time,seconds_elapsed,z,y,x
1780626349852496400,0.055496337890625,-0.756256103515625,-0.4207611083984375,0.0601654052734375
1780626349862526500,0.0655263671875,-0.7630767822265625,-0.399658203125,0.072357177734375
1780626349872556500,0.075556640625,-0.8783111572265625,-0.3596954345703125,0.0872955322265625
1780626349882586400,0.08558642578125,-0.9990997314453125,-0.324615478515625,0.08612060546875
1780626349892616400,0.095616455078125,-0.999847412109375,-0.3382720947265625,0.066680908203125
1780626349902646500,0.105646484375,-0.9386138916015625,-0.37823486328125,0.0641021728515625
1780626349912676600,0.115676513671875,-0.8704986572265625,-0.435272216796875,0.086700439453125
1780626349922706700,0.125706787109375,-0.8415374755859375,-0.4716339111328125,0.11181640625
1780626349932736500,0.135736572265625,-0.7977752685546875,-0.4526214599609375,0.11676025390625
1780626349942766300,0.145766357421875,-0.7638397216796875,-0.4180145263671875,0.110015869140625
1780626349952796400,0.15579638671875,-0.784637451171875,-0.3803863525390625,0.0939178466796875
1780626349962826500,0.165826416015625,-0.8534088134765625,-0.3220977783203125,0.0619964599609375
1780626349972856600,0.175856689453125,-0.9386749267578125,-0.2638702392578125,0.0260772705078125
1780626349982886700,0.18588671875,-1.0122833251953125,-0.237579345703125,0.0008087158203125
1780626349992916500,0.19591650390625,-1.0709381103515625,-0.2385406494140625,-0.0227203369140625
1780626350002946600,0.205946533203125,-1.1136627197265625,-0.2472686767578125,-0.048492431640625
1780626350012976400,0.215976318359375,-1.13787841796875,-0.275146484375,-0.069427490234375
1780626350023006500,0.22600634765625,-1.0909576416015625,-0.3254852294921875,-0.07733154296875
1780626350033036500,0.23603662109375,-1.0276947021484375,-0.3744049072265625,-0.0801544189453125
1780626350043066600,0.246066650390625,-0.97918701171875,-0.3871612548828125,-0.0903167724609375
1780626350053096400,0.256096435546875,-0.91180419921875,-0.36199951171875,-0.08172607421875
1780626350063126500,0.26612646484375,-0.8333892822265625,-0.3112335205078125,-0.061004638671875
1780626350073156600,0.276156494140625,-0.7827301025390625,-0.27471923828125,-0.0478363037109375
1780626350083186400,0.2861865234375,-0.7753143310546875,-0.2663116455078125,-0.036956787109375
1780626350093216500,0.296216552734375,-0.7978057861328125,-0.2349853515625,-0.04803466796875
1780626350103246300,0.306246337890625,-0.8297119140625,-0.19866943359375,-0.0626678466796875
1780626350113276400,0.3162763671875,-0.862091064453125,-0.1969146728515625,-0.079742431640625
1780626350123306500,0.326306396484375,-0.8604278564453125,-0.2542266845703125,-0.0805816650390625
1780626350133336600,0.336336669921875,-0.84173583984375,-0.3288726806640625,-0.072235107421875
1780626350143366700,0.34636669921875,-0.8314208984375,-0.4026641845703125,-0.0758056640625
1780626350153396500,0.356396484375,-0.806793212890625,-0.4535064697265625,-0.0909271240234375
1780626350163426300,0.36642626953125,-0.807861328125,-0.4799346923828125,-0.1296539306640625
1780626350173456400,0.376456298828125,-0.829254150390625,-0.488616943359375,-0.1766204833984375
1780626350183486500,0.386486572265625,-0.8589630126953125,-0.497467041015625,-0.2149810791015625
1780626350193516500,0.3965166015625,-0.8863983154296875,-0.5140838623046875,-0.2308197021484375
1780626350203546600,0.406546630859375,-0.956451416015625,-0.5199432373046875,-0.2385101318359375
1780626350213576400,0.416576416015625,-0.96966552734375,-0.4322967529296875,-0.26019287109375
1780626350223606500,0.4266064453125,-0.80084228515625,-0.359893798828125,-0.2263641357421875
1780626350233636400,0.43663623046875,-0.7814178466796875,-0.3717803955078125,-0.15985107421875
1780626350243666400,0.44666650390625,-0.841217041015625,-0.352996826171875,-0.1357269287109375
1780626350253696500,0.456696533203125,-0.88861083984375,-0.2909088134765625,-0.16143798828125
1780626350263726600,0.4667265625,-0.90509033203125,-0.2234344482421875,-0.1930999755859375
1780626350273756400,0.47675634765625,-0.9378204345703125,-0.18896484375,-0.204864501953125
1780626350283786500,0.486786376953125,-0.9752960205078125,-0.20428466796875,-0.2402191162109375
1780626350293815600,0.496815673828125,-0.953582763671875,-0.2877349853515625,-0.319305419921875
1780626350303845400,0.506845458984375,-0.8571929931640625,-0.4212799072265625,-0.3845062255859375
1780626350313876500,0.51687646484375,-0.8365478515625,-0.5167999267578125,-0.432525634765625
1780626350323905500,0.526905517578125,-0.851409912109375,-0.52197265625,-0.4603118896484375
1780626350333935600,0.536935546875,-0.8466033935546875,-0.4788665771484375,-0.4607391357421875
1780626350343965400,0.54696533203125,-0.8523101806640625,-0.3846435546875,-0.4436492919921875
1780626350353995500,0.55699560546875,-0.8697052001953125,-0.3131103515625,-0.4249267578125
1780626350364025600,0.567025634765625,-0.873138427734375,-0.3117523193359375,-0.38690185546875
1780626350374055400,0.577055419921875,-0.863739013671875,-0.308197021484375,-0.3582763671875
1780626350384085500,0.58708544921875,-0.86785888671875,-0.2868499755859375,-0.354827880859375
1780626350394115300,0.597115234375,-0.854827880859375,-0.2427825927734375,-0.3501739501953125
1780626350404145400,0.6071455078125,-0.8201751708984375,-0.186676025390625,-0.345306396484375
1780626350414175500,0.617175537109375,-0.781158447265625,-0.1007080078125,-0.3748016357421875
1780626350424205600,0.62720556640625,-0.775482177734375,-0.0074920654296875,-0.417755126953125
1780626350434235600,0.637235595703125,-0.8178863525390625,0.0289306640625,-0.4778900146484375
1780626350444265700,0.647265625,-0.863189697265625,-0.017425537109375,-0.5427703857421875
1780626350454295300,0.65729541015625,-0.8720703125,-0.083465576171875,-0.5535736083984375
1780626350464325400,0.667325439453125,-0.850433349609375,-0.1142425537109375,-0.528045654296875
1780626350474355500,0.67735546875,-0.8200225830078125,-0.120849609375,-0.4987640380859375
1780626350484385500,0.687385498046875,-0.79058837890625,-0.1096343994140625,-0.4672393798828125
1780626350494415600,0.69741552734375,-0.751251220703125,-0.0848236083984375,-0.4224395751953125
1780626350504445400,0.707445556640625,-0.69061279296875,-0.069488525390625,-0.383544921875
1780626350514475500,0.7174755859375,-0.68023681640625,-0.0959625244140625,-0.372711181640625
1780626350524505600,0.727505615234375,-0.758636474609375,-0.1467742919921875,-0.4197845458984375
1780626350534535400,0.737535400390625,-0.811279296875,-0.1616973876953125,-0.4954986572265625
1780626350544565500,0.7475654296875,-0.86273193359375,-0.129791259765625,-0.5421905517578125
1780626350554595600,0.757595703125,-0.9053497314453125,-0.0880126953125,-0.55853271484375
1780626350564625400,0.76762548828125,-0.8836822509765625,-0.0085296630859375,-0.569427490234375
1780626350574655500,0.777655517578125,-0.8289337158203125,0.1329345703125,-0.5766448974609375
1780626350584685600,0.787685546875,-0.749481201171875,0.30279541015625,-0.5987548828125
1780626350594715600,0.797715576171875,-0.6710968017578125,0.4179534912109375,-0.64190673828125
1780626350604745500,0.807745361328125,-0.6180419921875,0.458892822265625,-0.6897735595703125
1780626350614775300,0.817775390625,-0.5677337646484375,0.48516845703125,-0.7374725341796875
1780626350624805400,0.827805419921875,-0.5029144287109375,0.5010833740234375,-0.744232177734375
1780626350634835500,0.83783544921875,-0.40655517578125,0.5724334716796875,-0.7476806640625
1780626350644865500,0.847865478515625,-0.307830810546875,0.6590576171875,-0.76513671875
1780626350654895600,0.8578955078125,-0.292144775390625,0.672760009765625,-0.769500732421875
1780626350664926000,0.867926025390625,-0.2958831787109375,0.6544189453125,-0.7115478515625
1780626350674956000,0.8779560546875,-0.2515106201171875,0.685516357421875,-0.6666259765625
1780626350684986000,0.887986083984375,-0.2550811767578125,0.79833984375,-0.66461181640625
1780626350695016000,0.898015869140625,-0.3288726806640625,0.968505859375,-0.638946533203125
1780626350705046000,0.9080458984375,-0.389923095703125,1.09423828125,-0.5924072265625
1780626350715076000,0.918076171875,-0.41632080078125,1.1869659423828125,-0.58795166015625
1780626350725106000,0.92810595703125,-0.438568115234375,1.2036895751953125,-0.541778564453125
1780626350735136000,0.938135986328125,-0.4202423095703125,1.201507568359375,-0.5391845703125
1780626350745166000,0.948166015625,-0.4163970947265625,1.2066802978515625,-0.6080780029296875
1780626350755196200,0.958196044921875,-0.45086669921875,1.219390869140625,-0.70428466796875
1780626350765226000,0.96822607421875,-0.53900146484375,1.2006378173828125,-0.7867584228515625
1780626350775255800,0.978255859375,-0.695159912109375,1.1860809326171875,-0.89813232421875
1780626350785286000,0.988285888671875,-0.8712005615234375,1.2261199951171875,-1.0634918212890625
1780626350795316000,0.99831591796875,-1.0072479248046875,1.2095794677734375,-1.2845916748046875
1780626350805346000,1.008345947265625,-1.1822662353515625,1.0895843505859375,-1.62152099609375
1780626350815376100,1.018376220703125,-1.42205810546875,0.855010986328125,-2.1439971923828125
1780626350825406000,1.028406005859375,-1.5840606689453125,0.535614013671875,-2.75531005859375
1780626350835436000,1.03843603515625,-1.5112152099609375,0.2332916259765625,-3.256744384765625
1780626350845465900,1.0484658203125,-1.2172088623046875,0.0046539306640625,-3.527130126953125
1780626350855496000,1.058495849609375,-0.839935302734375,-0.2445068359375,-3.523162841796875
1780626350865526000,1.068526123046875,-0.400604248046875,-0.4327239990234375,-3.4162750244140625
1780626350875556000,1.07855615234375,-0.1026458740234375,-0.462677001953125,-3.271331787109375
1780626350885586000,1.0885859375,0.166259765625,-0.4212188720703125,-3.036712646484375
1780626350895616000,1.098615966796875,0.3251495361328125,-0.362518310546875,-2.7755279541015625
1780626350905646000,1.10864599609375,0.4129638671875,-0.24517822265625,-2.545867919921875
1780626350915676000,1.118676025390625,0.431671142578125,-0.04132080078125,-2.2966766357421875
1780626350925706000,1.1287060546875,0.464141845703125,0.248077392578125,-1.9572296142578125
1780626350935736000,1.138736083984375,0.60650634765625,0.4275054931640625,-1.6186065673828125
1780626350945766000,1.148765869140625,0.81317138671875,0.400115966796875,-1.3868560791015625
1780626350955796000,1.1587958984375,0.9277801513671875,0.4862060546875,-1.1526947021484375
1780626350965826000,1.168825927734375,0.9474029541015625,0.6437225341796875,-0.8800506591796875
1780626350975856000,1.178856201171875,0.7784881591796875,0.672393798828125,-0.74578857421875
1780626350985886200,1.18888623046875,0.512542724609375,0.754302978515625,-0.7565155029296875
1780626350995915800,1.198915771484375,0.255218505859375,0.8676910400390625,-0.6706085205078125
1780626351005945900,1.20894580078125,0.099334716796875,1.225128173828125,-0.271942138671875
1780626351015976000,1.218975830078125,0.0528106689453125,1.6618194580078125,0.4006805419921875
1780626351026006000,1.229006103515625,-0.0391387939453125,1.631744384765625,0.6298675537109375
1780626351036036000,1.2390361328125,-0.183319091796875,1.4468841552734375,0.57464599609375
1780626351046066000,1.24906591796875,-0.428314208984375,1.139007568359375,0.3780364990234375
1780626351056096000,1.259095947265625,-0.6206817626953125,0.8631134033203125,0.0848541259765625
1780626351066126000,1.2691259765625,-0.795166015625,0.701934814453125,-0.2187042236328125
1780626351076156000,1.279156005859375,-0.9966278076171875,0.609100341796875,-0.4575653076171875
1780626351086186000,1.28918603515625,-1.1064453125,0.513214111328125,-0.5749969482421875
1780626351096216000,1.299216064453125,-0.9766845703125,0.4137725830078125,-0.640289306640625
1780626351106246000,1.309245849609375,-0.7388458251953125,0.26495361328125,-0.7178955078125
1780626351116276000,1.31927587890625,-0.470550537109375,0.0988616943359375,-0.8584442138671875
1780626351126306000,1.32930615234375,-0.3477630615234375,-0.063201904296875,-0.887054443359375
1780626351136336100,1.339336181640625,-0.245819091796875,-0.1251678466796875,-0.9535675048828125
1780626351146366000,1.349365966796875,-0.2070465087890625,-0.08148193359375,-1.10040283203125
1780626351156396000,1.35939599609375,-0.451873779296875,-0.18109130859375,-1.3126220703125
1780626351166425900,1.36942578125,-0.3696136474609375,-0.40765380859375,-1.557769775390625
1780626351176456000,1.3794560546875,-0.519073486328125,0.010467529296875,-1.2545623779296875
1780626351186486000,1.389486083984375,-0.0860443115234375,-0.3176422119140625,-1.33013916015625
1780626351196516000,1.39951611328125,0.200775146484375,0.4439544677734375,-0.9644622802734375
1780626351206546200,1.409546142578125,-0.0715789794921875,0.25146484375,-0.695709228515625
1780626351216576000,1.419575927734375,-0.194488525390625,0.5854034423828125,-0.743133544921875
1780626351226605800,1.429605712890625,-0.502716064453125,0.893463134765625,-0.3690032958984375
1780626351236636000,1.439635986328125,0.093048095703125,0.731536865234375,-0.32904052734375
1780626351246666000,1.449666015625,0.3577880859375,0.5405426025390625,-0.4875640869140625
1780626351256696000,1.459696044921875,0.221954345703125,0.4293060302734375,-0.4884796142578125
1780626351266726100,1.46972607421875,0.0472564697265625,0.508636474609375,-0.4552154541015625
1780626351276756000,1.479755859375,-0.1815643310546875,0.7847900390625,-0.554656982421875
1780626351286786000,1.4897861328125,-0.3321075439453125,0.7801513671875,-0.6250762939453125
1780626351296816000,1.499816162109375,-0.459503173828125,0.8418731689453125,-0.6244049072265625
1780626351306846000,1.509845947265625,-0.5579376220703125,0.8812713623046875,-0.61480712890625
1780626351316876000,1.5198759765625,-0.49102783203125,0.8244781494140625,-0.4781646728515625
1780626351326905900,1.52990576171875,-0.22821044921875,1.0496673583984375,-0.404205322265625
1780626351336936000,1.53993603515625,0.1832122802734375,1.3129119873046875,-0.4688720703125
1780626351346966000,1.549966064453125,0.3993377685546875,0.9922637939453125,-0.511383056640625
1780626351356996000,1.55999609375,0.223541259765625,0.8866424560546875,-0.4997100830078125
1780626351367026200,1.570026123046875,0.1238861083984375,0.790985107421875,-0.473785400390625
1780626351377056000,1.580055908203125,0.3380584716796875,0.4720611572265625,-0.4000396728515625
1780626351387085800,1.5900859375,0.2174072265625,0.60675048828125,-0.5470123291015625
1780626351397116000,1.600115966796875,-0.119659423828125,0.464569091796875,-0.8553466796875
1780626351407146000,1.61014599609375,-0.4716033935546875,0.6986541748046875,-1.2072601318359375
1780626351417176000,1.620176025390625,-0.735992431640625,0.8218231201171875,-1.14825439453125
1780626351427206100,1.6302060546875,-0.934661865234375,0.5151519775390625,-0.6769256591796875
1780626351437236000,1.640236083984375,-0.5196380615234375,0.4355010986328125,-0.6740264892578125
1780626351447266000,1.65026611328125,-0.2565155029296875,0.292327880859375,-0.470855712890625
1780626351457296000,1.6602958984375,0.1775665283203125,0.372222900390625,-0.389190673828125
1780626351467326000,1.670325927734375,0.4206695556640625,0.5465240478515625,-0.36676025390625
1780626351477356000,1.68035595703125,0.51727294921875,0.950775146484375,-0.39691162109375
1780626351487386000,1.69038623046875,0.5340118408203125,1.4768524169921875,-0.4104156494140625
1780626351497416000,1.700416015625,0.329498291015625,1.6613616943359375,-0.40380859375
1780626351507446000,1.710446044921875,0.1346893310546875,1.7218780517578125,-0.423919677734375
1780626351517476000,1.72047607421875,0.0102996826171875,1.5187530517578125,-0.446136474609375
1780626351527506200,1.730506103515625,-0.0902252197265625,1.2457275390625,-0.394775390625
1780626351537536000,1.740535888671875,-0.18475341796875,0.9658660888671875,-0.2837066650390625
1780626351547565800,1.75056591796875,-0.1883392333984375,0.81292724609375,-0.194610595703125
1780626351557596000,1.760595947265625,-0.0885772705078125,0.655792236328125,-0.103118896484375
1780626351567626000,1.7706259765625,-0.023101806640625,0.5634765625,-0.062957763671875
1780626351577656000,1.780656005859375,-0.040740966796875,0.7584075927734375,-0.037139892578125
1780626351587686100,1.79068603515625,-0.0795440673828125,0.778045654296875,0.0302734375
1780626351597716000,1.800716064453125,-0.09918212890625,0.7857818603515625,0.0582122802734375
1780626351607745800,1.810745849609375,-0.180206298828125,0.815765380859375,0.0450439453125
1780626351617775900,1.82077587890625,-0.2412872314453125,0.83441162109375,-0.026702880859375
1780626351627806000,1.830805908203125,-0.30279541015625,0.9178924560546875,-0.17523193359375
1780626351637836000,1.8408359375,-0.369384765625,1.0281524658203125,-0.3327789306640625
1780626351647866000,1.8508662109375,-0.3741607666015625,1.1381683349609375,-0.3829498291015625
1780626351657896000,1.86089599609375,-0.346832275390625,1.2581024169921875,-0.4198760986328125
1780626351667926000,1.870926025390625,-0.29071044921875,1.2404022216796875,-0.441741943359375
1780626351677956000,1.8809560546875,-0.272613525390625,1.22564697265625,-0.481719970703125
1780626351687986000,1.89098583984375,-0.2690277099609375,1.1959686279296875,-0.5229339599609375
1780626351698016000,1.90101611328125,-0.2614288330078125,1.17608642578125,-0.5193328857421875
1780626351708046000,1.911046142578125,-0.3235626220703125,1.0861358642578125,-0.465545654296875
1780626351718076000,1.921075927734375,-0.633514404296875,0.957366943359375,-0.472686767578125
1780626351728106000,1.93110595703125,-0.6273040771484375,0.882659912109375,-0.5134429931640625
1780626351738136000,1.941135986328125,-0.21759033203125,0.8707733154296875,-0.5859222412109375
1780626351748166100,1.951166259765625,0.3169097900390625,0.9788970947265625,-0.585662841796875
1780626351758196200,1.9611962890625,0.506805419921875,1.029449462890625,-0.4785003662109375
1780626351768225800,1.971225830078125,0.5346221923828125,1.09063720703125,-0.4486541748046875
1780626351778256000,1.981255859375,0.3894805908203125,1.1072845458984375,-0.4796905517578125
1780626351788286000,1.991285888671875,0.0323333740234375,1.1092987060546875,-0.4828948974609375
1780626351798316000,2.00131591796875,-0.1289215087890625,1.0897369384765625,-0.453765869140625
1780626351808345000,2.011344970703125,0.008270263671875,1.0512847900390625,-0.4057159423828125
1780626351818375200,2.021375244140625,-0.02691650390625,1.0495758056640625,-0.3787994384765625
1780626351828405000,2.031405029296875,0.0123443603515625,1.061248779296875,-0.3450164794921875
1780626351838434800,2.041434814453125,0.0670318603515625,1.0900726318359375,-0.304931640625
1780626351848466000,2.0514658203125,0.0998687744140625,1.08575439453125,-0.281341552734375
1780626351858495000,2.061494873046875,0.053192138671875,1.0570831298828125,-0.2614593505859375
1780626351868525000,2.071525146484375,-0.06109619140625,0.990447998046875,-0.2301025390625
1780626351878555100,2.08155517578125,-0.1037445068359375,0.9310150146484375,-0.18804931640625
1780626351888585200,2.091585205078125,-0.136627197265625,0.884033203125,-0.1573333740234375
1780626351898614800,2.10161474609375,-0.157928466796875,0.8937530517578125,-0.138580322265625
1780626351908644900,2.111644775390625,-0.16192626953125,0.8571929931640625,-0.1215362548828125
1780626351918675000,2.121675048828125,-0.2001495361328125,0.8463592529296875,-0.1351470947265625
1780626351928705000,2.131705078125,-0.333160400390625,0.796875,-0.1680908203125
1780626351938735000,2.141735107421875,-0.45709228515625,0.7072296142578125,-0.1826171875
1780626351948765000,2.151764892578125,-0.53179931640625,0.6925811767578125,-0.1996917724609375
1780626351958795000,2.161794921875,-0.62652587890625,0.7537841796875,-0.216339111328125
1780626351968825000,2.1718251953125,-0.6682281494140625,0.89031982421875,-0.2320556640625
1780626351978855000,2.18185498046875,-0.470550537109375,1.076416015625,-0.247802734375
1780626351988885000,2.191885009765625,-0.094024658203125,1.2180633544921875,-0.2437744140625
1780626351998915000,2.2019150390625,0.1302947998046875,1.2430877685546875,-0.2306671142578125
1780626352008945000,2.21194482421875,0.3605194091796875,1.3034820556640625,-0.2202606201171875
1780626352018975000,2.22197509765625,0.5646209716796875,1.3076324462890625,-0.23455810546875
1780626352029005000,2.232005126953125,0.6431732177734375,1.255950927734375,-0.2698974609375
1780626352039035100,2.24203515625,0.467376708984375,1.1887359619140625,-0.266326904296875
1780626352049065200,2.252065185546875,0.1802520751953125,1.1220855712890625,-0.24041748046875
1780626352059094800,2.2620947265625,0.075897216796875,1.0856781005859375,-0.2072296142578125
1780626352069124900,2.272124755859375,0.0888519287109375,1.06561279296875,-0.1763763427734375
1780626352079155000,2.282155029296875,0.1370849609375,1.084564208984375,-0.15234375
1780626352089185000,2.29218505859375,0.1823883056640625,1.0793304443359375,-0.139617919921875
1780626352099215000,2.302215087890625,0.130584716796875,1.0396575927734375,-0.1411895751953125
1780626352109245200,2.3122451171875,0.0097503662109375,0.99700927734375,-0.1483306884765625
1780626352119275000,2.32227490234375,-0.0043487548828125,0.9421234130859375,-0.1664581298828125
1780626352129304800,2.332304931640625,0.102325439453125,0.907623291015625,-0.2191619873046875
1780626352139335000,2.3423349609375,0.154815673828125,0.915740966796875,-0.2326812744140625
1780626352149365000,2.352364990234375,0.1641693115234375,0.89251708984375,-0.1949462890625
1780626352159395000,2.36239501953125,0.181488037109375,0.8572845458984375,-0.133697509765625
1780626352169425000,2.3724248046875,0.197021484375,0.84307861328125,-0.084716796875
1780626352179455000,2.382455078125,0.206634521484375,0.8548126220703125,-0.05548095703125
1780626352189485000,2.392485107421875,0.220489501953125,0.920166015625,-0.0559234619140625
1780626352199515100,2.40251513671875,0.2243194580078125,0.9947967529296875,-0.0789642333984375
1780626352209545000,2.412544921875,0.212158203125,1.03424072265625,-0.1053009033203125
1780626352219575000,2.422574951171875,0.1864166259765625,1.055267333984375,-0.1089324951171875
1780626352229604900,2.43260498046875,0.1567840576171875,1.0102996826171875,-0.1074676513671875
1780626352239635000,2.442635009765625,0.1394500732421875,0.9223175048828125,-0.0913543701171875
1780626352249665000,2.4526650390625,0.13671875,0.85223388671875,-0.064697265625
1780626352259695000,2.462695068359375,0.141387939453125,0.795135498046875,-0.0457305908203125
1780626352269725200,2.47272509765625,0.179534912109375,0.7483978271484375,-0.048309326171875
1780626352279755000,2.482755126953125,0.2137451171875,0.746612548828125,-0.0692596435546875
1780626352289784800,2.492784912109375,0.237823486328125,0.789947509765625,-0.104705810546875
1780626352299815000,2.50281494140625,0.264068603515625,0.8535919189453125,-0.1380615234375
1780626352309845000,2.512844970703125,0.28802490234375,0.9111175537109375,-0.1782379150390625
1780626352319875000,2.522875,0.3059539794921875,0.9455413818359375,-0.2235565185546875
1780626352329905200,2.5329052734375,0.281402587890625,0.932403564453125,-0.25201416015625
1780626352339935000,2.54293505859375,0.2163238525390625,0.87969970703125,-0.255615234375
1780626352349965000,2.552965087890625,0.147705078125,0.818817138671875,-0.2506866455078125
1780626352359995000,2.562994873046875,0.087799072265625,0.7905426025390625,-0.241851806640625
1780626352370025000,2.57302490234375,0.0563507080078125,0.8125,-0.2383270263671875
1780626352380055000,2.583054931640625,0.0511627197265625,0.8655242919921875,-0.2542724609375
1780626352390084900,2.5930849609375,0.025177001953125,0.895172119140625,-0.285369873046875
1780626352400115000,2.603114990234375,-0.028564453125,0.91693115234375,-0.3138885498046875
1780626352410145000,2.61314501953125,-0.0612335205078125,0.943634033203125,-0.332977294921875
1780626352420175000,2.623175048828125,-0.0903778076171875,0.9627532958984375,-0.340423583984375
1780626352430205200,2.633205078125,-0.1066131591796875,1.0005950927734375,-0.3755950927734375
1780626352440235000,2.643235107421875,-0.1225738525390625,1.05126953125,-0.4258270263671875
1780626352450264800,2.653264892578125,-0.1250762939453125,1.1324462890625,-0.4703369140625
1780626352460295000,2.663294921875,-0.0936279296875,1.1592864990234375,-0.492156982421875
1780626352470325000,2.673324951171875,-0.0303802490234375,1.1344757080078125,-0.438568115234375
1780626352480355000,2.68335498046875,-0.1285552978515625,1.101104736328125,-0.2712860107421875
1780626352490385200,2.69338525390625,-0.241455078125,1.103485107421875,-0.148834228515625
1780626352500415000,2.7034150390625,-0.06964111328125,1.12542724609375,-0.07122802734375
1780626352510444800,2.71344482421875,0.1438140869140625,1.0824737548828125,0.01776123046875
1780626352520475000,2.723474853515625,0.3868255615234375,0.9976043701171875,0.100006103515625
1780626352530505000,2.7335048828125,0.5497283935546875,0.9546356201171875,0.1640625
1780626352540535000,2.74353515625,0.54071044921875,1.0287628173828125,0.1828765869140625
1780626352550565000,2.753565185546875,0.2415008544921875,1.050811767578125,0.1413116455078125
1780626352560595000,2.763594970703125,-0.0246429443359375,0.9910125732421875,0.0761260986328125
1780626352570625000,2.773625,-0.1248626708984375,0.9449462890625,0.032745361328125
1780626352580655000,2.783655029296875,-0.1310577392578125,0.9466552734375,0.0031280517578125
1780626352590685000,2.793684814453125,-0.1592254638671875,0.958831787109375,-0.022186279296875
1780626352600715000,2.803715087890625,-0.1331634521484375,1.029571533203125,-0.0418548583984375
1780626352610744800,2.813744873046875,-0.0434722900390625,1.093414306640625,-0.0684051513671875
1780626352620775000,2.82377490234375,-0.0807952880859375,1.280609130859375,-0.105194091796875
1780626352630805000,2.833804931640625,-0.0394439697265625,1.432861328125,-0.1151885986328125
1780626352640835000,2.8438349609375,0.0026702880859375,1.37835693359375,-0.0932159423828125
1780626352650865200,2.853865234375,0.0746612548828125,1.29998779296875,-0.05841064453125
1780626352660895200,2.863895263671875,0.20672607421875,1.2233123779296875,-0.021728515625
1780626352670924800,2.8739248046875,0.1827239990234375,1.2464599609375,-0.00628662109375
1780626352680955000,2.883954833984375,0.144195556640625,1.2656097412109375,0.0481414794921875
1780626352690985000,2.89398486328125,0.1513824462890625,1.301971435546875,0.1160736083984375
1780626352701015000,2.90401513671875,0.207916259765625,1.256561279296875,0.1513519287109375
1780626352711045000,2.914045166015625,0.168182373046875,1.3171844482421875,0.1402740478515625
1780626352721075000,2.924074951171875,0.0823211669921875,1.26885986328125,0.160858154296875
1780626352731105000,2.93410498046875,0.03173828125,1.181549072265625,0.1970672607421875
1780626352741134800,2.944134765625,-0.0638427734375,1.0823516845703125,0.1800384521484375
1780626352751165000,2.9541650390625,-0.129638671875,0.735992431640625,0.1336517333984375
1780626352761195000,2.964195068359375,-0.132080078125,0.5060882568359375,0.0454254150390625
1780626352771225000,2.97422509765625,-0.087890625,0.2779541015625,-0.0569305419921875
1780626352781255000,2.9842548828125,-0.1007232666015625,0.0797271728515625,-0.090850830078125
1780626352791285000,2.994284912109375,-0.1418609619140625,0.016387939453125,-0.0766143798828125
1780626352801315000,3.004315185546875,-0.1157684326171875,0.051116943359375,-0.0492706298828125
1780626352811345200,3.01434521484375,-0.0192718505859375,0.2579345703125,-0.017303466796875
1780626352821375000,3.024375,0.074798583984375,0.4389801025390625,0.0123443603515625
1780626352831404800,3.03440478515625,0.119110107421875,0.443206787109375,0.0409088134765625
1780626352841435000,3.044434814453125,0.111419677734375,0.4584808349609375,0.0625457763671875
1780626352851465000,3.05446484375,0.0593414306640625,0.516265869140625,0.0790557861328125
1780626352861495000,3.0644951171875,0.0403900146484375,0.679718017578125,0.0660247802734375
1780626352871525000,3.074525146484375,-0.0606689453125,0.969696044921875,0.0329742431640625
1780626352881555200,3.08455517578125,-0.2095489501953125,1.3183135986328125,0.0073089599609375
1780626352891585000,3.0945849609375,-0.191497802734375,1.72418212890625,-0.0336151123046875
1780626352901614800,3.10461474609375,-0.0909576416015625,2.0811309814453125,-0.08001708984375
1780626352911645000,3.11464501953125,0.043609619140625,2.2023773193359375,-0.1333465576171875
1780626352921675000,3.124675048828125,0.1037750244140625,1.9435882568359375,-0.1875152587890625
1780626352931705000,3.134705078125,-0.0128021240234375,1.5720062255859375,-0.1870880126953125
1780626352941735000,3.14473486328125,-0.20538330078125,1.290069580078125,-0.1485595703125
1780626352951765000,3.154764892578125,-0.3043670654296875,0.982940673828125,-0.101593017578125
1780626352961795000,3.164795166015625,-0.287750244140625,0.7134552001953125,-0.066436767578125
1780626352971825000,3.174824951171875,-0.2225341796875,0.6187286376953125,-0.033843994140625
1780626352981855000,3.18485498046875,-0.2528533935546875,0.801025390625,-0.0366363525390625
1780626352991885000,3.194885009765625,-0.1748504638671875,0.901336669921875,-0.0238494873046875
1780626353001915000,3.204914794921875,-0.01043701171875,0.98016357421875,-0.00994873046875
1780626353011945000,3.214945068359375,0.3014984130859375,0.9400634765625,0.03057861328125
1780626353021975000,3.22497509765625,0.4022674560546875,0.8968658447265625,0.0712432861328125
1780626353032005000,3.235005126953125,0.2795562744140625,0.892120361328125,0.073577880859375
1780626353042035200,3.24503515625,0.1442108154296875,0.8385467529296875,0.064605712890625
1780626353052064800,3.255064697265625,0.0595550537109375,0.851470947265625,0.032318115234375
1780626353062094800,3.2650947265625,0.052032470703125,0.9001617431640625,0.0230712890625
1780626353072125000,3.275125,0.010986328125,1.0390472412109375,0.0258941650390625
1780626353082155000,3.285155029296875,0.016387939453125,1.1514434814453125,0.0958099365234375
1780626353092185000,3.29518505859375,-0.0072174072265625,1.3592071533203125,0.1287384033203125
1780626353102215200,3.305215087890625,0.081756591796875,1.3979339599609375,0.132965087890625
1780626353112245000,3.315244873046875,0.041534423828125,1.340728759765625,0.1304168701171875
1780626353122275000,3.325275146484375,-0.0008544921875,1.3386688232421875,0.0861663818359375
1780626353132305000,3.335304931640625,-0.03448486328125,1.31695556640625,0.05511474609375
1780626353142335000,3.3453349609375,-0.094635009765625,1.24127197265625,0.0180816650390625
1780626353152365000,3.355364990234375,-0.1315765380859375,1.16943359375,-0.006134033203125
1780626353162395000,3.365394775390625,-0.11248779296875,1.0387420654296875,-0.0047760009765625
1780626353172425000,3.375425048828125,-0.0782623291015625,0.85015869140625,0.011688232421875
1780626353182455000,3.385455078125,-0.031524658203125,0.7317657470703125,0.0117340087890625
1780626353192485000,3.395485107421875,0.0544586181640625,0.7020111083984375,0.0071258544921875
1780626353202515000,3.405514892578125,0.097198486328125,0.6917266845703125,0.0148468017578125
1780626353212545000,3.415544921875,0.0827484130859375,0.7193145751953125,0.009033203125
1780626353222574800,3.425574951171875,0.0806427001953125,0.76934814453125,-0.009918212890625
1780626353232605000,3.43560498046875,0.1051025390625,0.8422698974609375,-0.0294189453125
1780626353242635000,3.445635009765625,0.09735107421875,0.8849334716796875,-0.0609283447265625
1780626353252665000,3.4556650390625,0.0579376220703125,0.9084014892578125,-0.0954437255859375
1780626353262695200,3.465695068359375,0.008209228515625,0.88909912109375,-0.1246337890625
1780626353272725000,3.47572509765625,-0.002410888671875,0.8665618896484375,-0.1482086181640625
1780626353282754800,3.4857548828125,0.0438690185546875,0.806671142578125,-0.1629638671875
1780626353292785000,3.495784912109375,0.1608428955078125,0.8692474365234375,-0.1917877197265625
1780626353302815000,3.50581494140625,0.1721954345703125,0.78375244140625,-0.2252655029296875
1780626353312845000,3.515844970703125,0.1345062255859375,0.8379669189453125,-0.229278564453125
1780626353322875100,3.525875244140625,0.031402587890625,0.8738861083984375,-0.2278594970703125
1780626353332905000,3.535905029296875,-0.060760498046875,0.9663543701171875,-0.2219085693359375
1780626353342935000,3.54593505859375,-0.1208038330078125,1.0584259033203125,-0.205963134765625
1780626353352964900,3.55596484375,-0.149383544921875,0.996490478515625,-0.1629486083984375
1780626353362995000,3.565994873046875,-0.08636474609375,1.0569610595703125,-0.123291015625
1780626353373025000,3.57602490234375,0.0012969970703125,0.984466552734375,-0.086395263671875
1780626353383054800,3.586054931640625,0.009307861328125,0.9295654296875,-0.04559326171875
1780626353393085000,3.5960849609375,0.0148468017578125,0.5031280517578125,-0.0366058349609375
1780626353403115000,3.606114990234375,0.0215606689453125,0.14495849609375,-0.0149078369140625
1780626353413145000,3.61614501953125,-0.1105499267578125,0.0712432861328125,-0.037139892578125
1780626353423175200,3.626175048828125,-0.1591033935546875,0.190185546875,-0.0069122314453125
1780626353433205000,3.636205078125,-0.1360321044921875,0.3120574951171875,0.0230865478515625
1780626353443234800,3.64623486328125,-0.11956787109375,0.3105621337890625,0.002593994140625
1780626353453265000,3.656264892578125,-0.0928497314453125,0.3079833984375,0.012786865234375
1780626353463295000,3.666294921875,-0.05322265625,0.5528106689453125,0.029449462890625
1780626353473325000,3.676324951171875,-0.0521240234375,0.5693511962890625,0.041778564453125
1780626353483355100,3.686355224609375,-0.03289794921875,0.69317626953125,0.1124420166015625
1780626353493385000,3.696385009765625,0.0373992919921875,0.928741455078125,0.151031494140625
1780626353503415000,3.7064150390625,0.06280517578125,1.265716552734375,0.2380218505859375
1780626353513444900,3.71644482421875,0.0387420654296875,1.74493408203125,0.3551177978515625
1780626353523475000,3.726474853515625,-0.0020599365234375,2.2274627685546875,0.4334259033203125
1780626353533505000,3.736505126953125,0.081634521484375,2.5138702392578125,0.4516143798828125
1780626353543535000,3.74653515625,0.2212677001953125,2.3650360107421875,0.353759765625
1780626353553565000,3.75656494140625,0.01947021484375,1.9223480224609375,0.30352783203125
1780626353563595000,3.766594970703125,-0.3698577880859375,1.4743499755859375,0.3472137451171875
1780626353573625000,3.776625,-0.6160430908203125,1.1458282470703125,0.371337890625
1780626353583655000,3.786655029296875,-0.5829620361328125,0.928924560546875,0.26336669921875
1780626353593685000,3.79668505859375,-0.428802490234375,0.8343505859375,0.20452880859375
1780626353603714800,3.80671484375,-0.28662109375,0.7708740234375,0.2275543212890625
1780626353613745000,3.816744873046875,-0.126068115234375,0.734344482421875,0.2535858154296875
1780626353623775000,3.82677490234375,-0.020782470703125,0.7477569580078125,0.2444000244140625
1780626353633805000,3.83680517578125,0.0084686279296875,0.8202972412109375,0.211090087890625
1780626353643835100,3.846835205078125,0.0078277587890625,0.944549560546875,0.1575927734375
1780626353653865200,3.856865234375,0.018798828125,1.0421295166015625,0.0823516845703125
1780626353663895000,3.86689501953125,0.051544189453125,1.0715789794921875,0.006744384765625
1780626353673925000,3.876925048828125,0.0718994140625,1.01513671875,-0.054534912109375
1780626353683955200,3.886955078125,0.069427490234375,0.9500885009765625,-0.0937652587890625
1780626353693985300,3.8969853515625,0.0712738037109375,0.9289703369140625,-0.1124725341796875
1780626353704015000,3.90701513671875,0.0913238525390625,0.92071533203125,-0.126739501953125
1780626353714045000,3.917044921875,0.0948028564453125,0.93841552734375,-0.1243133544921875
1780626353724075000,3.927074951171875,0.07354736328125,0.9622955322265625,-0.11077880859375
1780626353734105000,3.93710498046875,0.0414276123046875,0.9788665771484375,-0.0838775634765625
1780626353744135200,3.94713525390625,0.03302001953125,1.00152587890625,-0.06195068359375
1780626353754165200,3.957165283203125,0.0637969970703125,1.0262451171875,-0.033966064453125
1780626353764195300,3.9671953125,0.1191864013671875,1.030364990234375,-0.0042724609375
1780626353774225200,3.97722509765625,0.149322509765625,0.995330810546875,-0.00701904296875
1780626353784255000,3.9872548828125,0.0903472900390625,0.957122802734375,-0.0175323486328125
1780626353794285000,3.99728515625,-0.0166778564453125,0.9300689697265625,-0.0198974609375
1780626353804315100,4.007315185546875,-0.113372802734375,0.9078216552734375,0.0008392333984375
1780626353814345200,4.01734521484375,-0.1743011474609375,0.931427001953125,0.045623779296875
1780626353824375000,4.027375,-0.18829345703125,0.9956207275390625,0.1093597412109375
1780626353834405000,4.037405029296875,-0.1781158447265625,1.0931243896484375,0.1868896484375
1780626353844435200,4.047435302734375,-0.18133544921875,1.1518096923828125,0.25836181640625
1780626353854465000,4.057465087890625,-0.223541259765625,1.143951416015625,0.3144989013671875
1780626353864495000,4.0674951171875,-0.2952117919921875,1.103057861328125,0.3539886474609375
1780626353874525200,4.077525146484375,-0.30596923828125,1.055145263671875,0.3793792724609375
1780626353884555000,4.087554931640625,-0.25146484375,1.012451171875,0.395782470703125
1780626353894585000,4.097585205078125,-0.1768646240234375,1.01507568359375,0.394287109375
1780626353904615200,4.107615234375,-0.11492919921875,1.058074951171875,0.3715362548828125
1780626353914645200,4.117645263671875,-0.0808563232421875,1.06976318359375,0.33135986328125
1780626353924675300,4.12767529296875,-0.08819580078125,1.0111236572265625,0.3307952880859375
1780626353934705000,4.137704833984375,-0.0450592041015625,0.819305419921875,0.5394744873046875
1780626353944735000,4.14773486328125,-0.234619140625,0.8235626220703125,0.77105712890625
1780626353954765000,4.15776513671875,-0.0304412841796875,0.995941162109375,1.2034759521484375
1780626353964795100,4.167795166015625,-2.073699951171875,0.66595458984375,0.4055328369140625
1780626353974825200,4.1778251953125,-2.41839599609375,1.0465087890625,0.14178466796875
1780626353984855300,4.187855224609375,-0.464874267578125,1.1282501220703125,0.1291351318359375
1780626353994885000,4.197885009765625,0.285308837890625,0.7805328369140625,-0.1309356689453125
1780626354004915200,4.207915283203125,0.8383941650390625,0.822296142578125,-0.10589599609375
1780626354014945000,4.217945068359375,1.1343841552734375,0.8647003173828125,-0.0966644287109375
1780626354024975000,4.22797509765625,1.17938232421875,0.9098663330078125,-0.105316162109375
1780626354035005200,4.238005126953125,1.299560546875,1.066375732421875,-0.090118408203125
1780626354045035000,4.248034912109375,0.96160888671875,1.0357513427734375,-0.0239105224609375
1780626354055065000,4.258065185546875,0.31072998046875,0.8150787353515625,-0.043975830078125
1780626354065095200,4.26809521484375,-0.2558441162109375,0.8192291259765625,0.0436553955078125
1780626354075125200,4.278125244140625,-0.6288909912109375,0.821563720703125,0.149810791015625
1780626354085155000,4.288155029296875,-0.6884307861328125,0.76837158203125,0.2482452392578125
1780626354095185200,4.29818505859375,-0.533721923828125,0.7556610107421875,0.348968505859375
1780626354105215000,4.308215087890625,-0.262237548828125,0.8632049560546875,0.4541168212890625
1780626354115245000,4.3182451171875,-0.0089874267578125,0.981048583984375,0.5829620361328125
1780626354125275100,4.328275146484375,-0.2527008056640625,1.0304412841796875,0.4966583251953125
1780626354135305200,4.33830517578125,-0.4040985107421875,1.034759521484375,0.28802490234375
1780626354145335300,4.348335205078125,-0.1125030517578125,1.0633392333984375,0.1052703857421875
1780626354155365000,4.358365234375,0.00079345703125,0.97314453125,-0.0221405029296875
1780626354165395000,4.36839501953125,0.1484375,0.8829498291015625,-0.0998992919921875
1780626354175425000,4.378425048828125,0.4086456298828125,1.0182342529296875,-0.16082763671875
1780626354185455000,4.388455078125,0.2404937744140625,1.0156097412109375,-0.241790771484375
1780626354195485200,4.398485107421875,0.2845001220703125,1.05902099609375,-0.201324462890625
1780626354205515300,4.408515380859375,0.5054931640625,1.141265869140625,0.0313568115234375
1780626354215545000,4.418545166015625,0.2805633544921875,1.0092315673828125,0.1762847900390625
1780626354225575200,4.4285751953125,0.20684814453125,0.9569549560546875,0.2474822998046875
1780626354235605200,4.438605224609375,0.2773895263671875,0.9927825927734375,0.2720794677734375
1780626354245635000,4.448635009765625,0.2372589111328125,1.041229248046875,0.291778564453125
1780626354255665200,4.4586650390625,0.0553436279296875,1.002716064453125,0.234710693359375
1780626354265695000,4.468695068359375,0.0446319580078125,1.015411376953125,0.1662750244140625
1780626354275725000,4.47872509765625,0.129547119140625,1.0684814453125,0.180145263671875
1780626354285755100,4.488755126953125,0.06646728515625,1.046722412109375,0.1976470947265625
1780626354295785200,4.49878515625,0.0934906005859375,1.0504608154296875,0.187896728515625
1780626354305815300,4.508815185546875,0.2433319091796875,1.039794921875,0.2208709716796875
1780626354315845000,4.51884521484375,0.2239227294921875,0.9666748046875,0.2375335693359375
1780626354325875000,4.528875,0.2463531494140625,0.9281768798828125,0.2169036865234375
1780626354335905000,4.538905029296875,0.2668304443359375,0.9105987548828125,0.1641845703125
1780626354345935000,4.54893505859375,0.25274658203125,0.9141998291015625,0.137664794921875
1780626354355965200,4.558965087890625,0.246917724609375,0.932586669921875,0.101715087890625
1780626354365995300,4.568995361328125,0.2281341552734375,0.939453125,0.0662078857421875
1780626354376025000,4.579025146484375,0.1650238037109375,0.94085693359375,0.0614166259765625
1780626354386055200,4.58905517578125,0.121917724609375,0.935638427734375,0.09649658203125
1780626354396085000,4.5990849609375,0.1397247314453125,0.9164886474609375,0.147918701171875
1780626354406115000,4.609114990234375,0.164886474609375,0.93145751953125,0.18194580078125
1780626354416145200,4.619145263671875,0.199676513671875,0.9620819091796875,0.2051544189453125
1780626354426175200,4.62917529296875,0.22760009765625,0.979736328125,0.2127532958984375
1780626354436205000,4.639205078125,0.22503662109375,0.995025634765625,0.2154541015625
1780626354446235100,4.649235107421875,0.2025299072265625,1.0116119384765625,0.1861724853515625
1780626354456265200,4.65926513671875,0.189239501953125,1.00457763671875,0.16802978515625
1780626354466295000,4.669294921875,0.1677398681640625,0.99029541015625,0.1510009765625
1780626354476325000,4.6793251953125,0.1786956787109375,0.9829254150390625,0.1424560546875
1780626354486355000,4.68935498046875,0.208465576171875,0.99346923828125,0.1486358642578125
1780626354496385000,4.699385009765625,0.205535888671875,0.996124267578125,0.1366729736328125
1780626354506415000,4.7094150390625,0.2340545654296875,0.963409423828125,0.1326141357421875
1780626354516445200,4.719445068359375,0.218170166015625,0.9466400146484375,0.091949462890625
1780626354526475300,4.729475341796875,0.18743896484375,0.9290771484375,0.0703125
1780626354536505300,4.73950537109375,0.2020263671875,0.9091339111328125,0.09515380859375
1780626354546535000,4.749534912109375,0.1937408447265625,0.91339111328125,0.1125030517578125
1780626354556565000,4.75956494140625,0.195892333984375,0.9297943115234375,0.1421356201171875
1780626354566595000,4.769594970703125,0.1768951416015625,0.93988037109375,0.15765380859375
1780626354576625200,4.779625244140625,0.161163330078125,0.9480133056640625,0.18017578125
1780626354586655200,4.7896552734375,0.13409423828125,0.9524383544921875,0.1904296875
1780626354596685000,4.79968505859375,0.1191864013671875,0.952911376953125,0.1506195068359375
1780626354606715100,4.809715087890625,0.1496429443359375,0.9659881591796875,-0.0123443603515625
1780626354616745200,4.8197451171875,0.0034027099609375,0.88763427734375,0.120697021484375
1780626354626775000,4.829775146484375,0.0945892333984375,0.891693115234375,0.380828857421875
1780626354636805000,4.83980517578125,0.2763671875,1.0193634033203125,0.391876220703125
1780626354646835200,4.849835205078125,0.195098876953125,1.0009002685546875,0.28424072265625
1780626354656865000,4.859864990234375,0.15264892578125,0.95794677734375,0.217437744140625
1780626354666894300,4.869894287109375,0.1427001953125,0.948638916015625,0.17095947265625
1780626354676924400,4.87992431640625,0.1369781494140625,0.9391937255859375,0.1342926025390625
1780626354686954200,4.889954345703125,0.14825439453125,0.939788818359375,0.11883544921875
1780626354696984300,4.899984375,0.1555328369140625,0.943206787109375,0.112457275390625
1780626354707014400,4.910014404296875,0.1457672119140625,0.948089599609375,0.105133056640625
1780626354717044500,4.92004443359375,0.1262359619140625,0.9638671875,0.0999755859375
1780626354727074300,4.93007421875,0.11224365234375,0.9812164306640625,0.0982208251953125
1780626354737104400,4.9401044921875,0.0994110107421875,0.9890594482421875,0.1005859375
1780626354747134500,4.950134521484375,0.0896148681640625,0.987091064453125,0.1061859130859375
1780626354757164500,4.96016455078125,0.0710601806640625,0.9797515869140625,0.117156982421875
1780626354767194400,4.9701943359375,0.0672760009765625,0.9578399658203125,0.1219635009765625
1780626354777224200,4.98022412109375,0.0693206787109375,0.9329681396484375,0.124298095703125
1780626354787254300,4.990254150390625,0.0576629638671875,0.9010009765625,0.126953125
1780626354797284400,5.000284423828125,0.0382080078125,0.8889312744140625,0.142364501953125
1780626354807314400,5.010314453125,0.0336151123046875,0.8945770263671875,0.166778564453125
1780626354817344500,5.020344482421875,0.039581298828125,0.899505615234375,0.19268798828125
1780626354827374300,5.030374267578125,0.040130615234375,0.904754638671875,0.2188262939453125
1780626354837404400,5.040404296875,0.032135009765625,0.9151458740234375,0.2343902587890625
1780626354847434200,5.050434326171875,0.0309906005859375,0.9282989501953125,0.2491912841796875
1780626354857464300,5.06046435546875,0.04754638671875,0.9459075927734375,0.256591796875
1780626354867494400,5.070494384765625,0.0753326416015625,0.957489013671875,0.250213623046875
1780626354877524500,5.0805244140625,0.088592529296875,0.9482421875,0.2283172607421875
1780626354887554300,5.09055419921875,0.0702362060546875,0.9221038818359375,0.1983489990234375
1780626354897584400,5.10058447265625,0.028472900390625,0.8901214599609375,0.1871337890625
1780626354907614500,5.110614501953125,0.009552001953125,0.869293212890625,0.1900787353515625
1780626354917644300,5.120644287109375,0.01629638671875,0.882232666015625,0.1988067626953125
1780626354927674400,5.13067431640625,0.0228424072265625,0.918701171875,0.20074462890625
1780626354937704400,5.140704345703125,0.0057830810546875,0.96612548828125,0.210113525390625
1780626354947734300,5.150734375,-0.0122528076171875,1.03875732421875,0.2335357666015625
1780626354957764400,5.160764404296875,-0.002044677734375,1.13116455078125,0.271636962890625
1780626354967794400,5.17079443359375,0.07135009765625,1.1693878173828125,0.305999755859375
1780626354977824500,5.180824462890625,0.1180572509765625,1.10577392578125,0.298828125
1780626354987854600,5.1908544921875,0.0741119384765625,0.96417236328125,0.2452239990234375
1780626354997884200,5.20088427734375,-0.04229736328125,0.816925048828125,0.1885528564453125
1780626355007914200,5.210914306640625,-0.112579345703125,0.6885528564453125,0.1709442138671875
1780626355017944300,5.2209443359375,-0.0941009521484375,0.615234375,0.1871337890625
1780626355027974400,5.230974365234375,-0.0553131103515625,0.634429931640625,0.2118988037109375
1780626355038004500,5.24100439453125,-0.0160980224609375,0.72332763671875,0.251708984375
1780626355048034300,5.251034423828125,0.0432586669921875,0.852569580078125,0.2899322509765625
1780626355058064400,5.261064453125,0.0900421142578125,0.9932098388671875,0.31549072265625
1780626355068094200,5.27109423828125,0.119232177734375,1.121490478515625,0.315582275390625
1780626355078124300,5.281124267578125,0.133941650390625,1.209381103515625,0.2876434326171875
1780626355088154400,5.291154296875,0.091461181640625,1.19830322265625,0.2735595703125
1780626355098184400,5.301184326171875,0.049102783203125,1.0779571533203125,0.2799835205078125
1780626355108214300,5.31121435546875,0.04254150390625,0.941680908203125,0.275054931640625
1780626355118244400,5.321244384765625,0.0889739990234375,0.824951171875,0.2709808349609375
1780626355128274400,5.3312744140625,0.1378631591796875,0.7420501708984375,0.27459716796875
1780626355138304500,5.341304443359375,0.2056732177734375,0.71484375,0.311614990234375
1780626355148334300,5.351334228515625,0.264801025390625,0.7218017578125,0.349517822265625
1780626355158364400,5.361364501953125,0.29998779296875,0.7683563232421875,0.3778533935546875
1780626355168394200,5.371394287109375,0.313018798828125,0.817779541015625,0.376800537109375
1780626355178424300,5.38142431640625,0.354827880859375,0.8418121337890625,0.3444366455078125
1780626355188454400,5.391454345703125,0.40106201171875,0.858306884765625,0.2926788330078125
1780626355198484500,5.401484375,0.3985748291015625,0.847808837890625,0.2346649169921875
1780626355208514600,5.4115146484375,0.394073486328125,0.8422698974609375,0.211944580078125
1780626355218544400,5.42154443359375,0.4483795166015625,0.854461669921875,0.2364501953125
1780626355228574200,5.43157421875,0.533111572265625,0.8660888671875,0.286590576171875
1780626355238604300,5.441604248046875,0.5572509765625,0.865325927734375,0.3388671875
1780626355248634400,5.45163427734375,0.5451202392578125,0.851531982421875,0.370819091796875
1780626355258664400,5.46166455078125,0.564056396484375,0.8446502685546875,0.3726348876953125
1780626355268694500,5.471694580078125,0.5798492431640625,0.8593902587890625,0.3432464599609375
1780626355278724400,5.481724365234375,0.5400543212890625,0.881988525390625,0.292236328125
1780626355288754400,5.49175439453125,0.4917144775390625,0.8957366943359375,0.245697021484375
1780626355300039200,5.5030390625,0.45050048828125,0.89105224609375,0.2270660400390625
1780626355310069200,5.5130693359375,0.428802490234375,0.8765106201171875,0.2400054931640625
1780626355320099300,5.523099365234375,0.421905517578125,0.861785888671875,0.2916717529296875
1780626355330129400,5.53312939453125,0.42877197265625,0.857696533203125,0.3325042724609375
1780626355340159500,5.543159423828125,0.4750518798828125,0.847991943359375,0.345428466796875
1780626355350189600,5.553189453125,0.49029541015625,0.83392333984375,0.3420867919921875
1780626355360219400,5.563219482421875,0.4898529052734375,0.8340911865234375,0.302001953125
1780626355370249200,5.573249267578125,0.4973297119140625,0.8256072998046875,0.238067626953125
1780626355380279300,5.583279296875,0.52398681640625,0.8482666015625,0.1730804443359375
1780626355390309400,5.593309326171875,0.5460205078125,0.8802337646484375,0.128204345703125
1780626355400339500,5.60333935546875,0.5302886962890625,0.90338134765625,0.1283416748046875
1780626355410369300,5.613369384765625,0.5163421630859375,0.9341278076171875,0.173004150390625
1780626355420399400,5.6233994140625,0.5034637451171875,0.9661712646484375,0.240478515625
1780626355430429400,5.633429443359375,0.51544189453125,0.966217041015625,0.2845306396484375
1780626355440459500,5.64345947265625,0.5497894287109375,0.924468994140625,0.30084228515625
1780626355450489300,5.6534892578125,0.6164093017578125,0.90728759765625,0.2886199951171875
1780626355460519400,5.66351953125,0.6366729736328125,0.8988037109375,0.2614288330078125
1780626355470548500,5.673548583984375,0.62518310546875,0.8789825439453125,0.230987548828125
1780626355480578300,5.683578369140625,0.6080780029296875,0.861480712890625,0.2160186767578125
1780626355490608400,5.6936083984375,0.5800323486328125,0.843353271484375,0.2418060302734375
1780626355500638500,5.703638427734375,0.555328369140625,0.8375244140625,0.284210205078125
1780626355510668300,5.713668212890625,0.548065185546875,0.8540496826171875,0.325836181640625
1780626355520698400,5.723698486328125,0.547637939453125,0.8638763427734375,0.347930908203125
1780626355530728400,5.733728515625,0.549346923828125,0.8671875,0.3461151123046875
1780626355540758300,5.74375830078125,0.5601654052734375,0.877288818359375,0.3179473876953125
1780626355550788400,5.753788330078125,0.5947265625,0.8877105712890625,0.2767181396484375
1780626355560818400,5.763818359375,0.6090545654296875,0.88421630859375,0.2344512939453125
1780626355570848500,5.7738486328125,0.5941162109375,0.8624114990234375,0.1924285888671875
1780626355580878300,5.78387841796875,0.574310302734375,0.841522216796875,0.171783447265625
1780626355590908400,5.793908447265625,0.54010009765625,0.8274383544921875,0.176055908203125
1780626355600938200,5.803938232421875,0.516571044921875,0.8080902099609375,0.1992340087890625
1780626355610968300,5.81396826171875,0.511199951171875,0.787078857421875,0.2216644287109375
1780626355620998400,5.823998291015625,0.5190582275390625,0.786376953125,0.240966796875
1780626355631028500,5.834028564453125,0.54046630859375,0.7933197021484375,0.2613525390625
1780626355641058600,5.84405859375,0.5594482421875,0.7973175048828125,0.2708282470703125
1780626355651088400,5.85408837890625,0.5606689453125,0.79949951171875,0.2722930908203125
1780626355661119000,5.864118896484375,0.5694580078125,0.796783447265625,0.2746124267578125
1780626355671148800,5.874148681640625,0.5645599365234375,0.7951202392578125,0.268035888671875
1780626355681179000,5.884178955078125,0.559356689453125,0.7994232177734375,0.2590789794921875
1780626355691209000,5.894208984375,0.5533447265625,0.80108642578125,0.2490386962890625
1780626355701238800,5.90423876953125,0.5642547607421875,0.8137359619140625,0.2392578125
1780626355711268900,5.914268798828125,0.5618896484375,0.8353118896484375,0.236541748046875
1780626355721299000,5.924298828125,0.552581787109375,0.8462982177734375,0.2352752685546875
1780626355731329000,5.9343291015625,0.541473388671875,0.845855712890625,0.2384185791015625
1780626355741358800,5.94435888671875,0.527557373046875,0.84088134765625,0.2417144775390625
1780626355751388700,5.954388671875,0.508392333984375,0.8406982421875,0.25335693359375
1780626355761418800,5.964418701171875,0.485870361328125,0.847869873046875,0.2660675048828125
1780626355771448800,5.97444873046875,0.4587554931640625,0.85400390625,0.2779388427734375
1780626355781479000,5.98447900390625,0.444183349609375,0.855010986328125,0.29852294921875
1780626355791509000,5.994509033203125,0.4428863525390625,0.8432464599609375,0.31060791015625
1780626355801539000,6.0045390625,0.4343414306640625,0.8217315673828125,0.3195343017578125
1780626355811569000,6.01456884765625,0.4178619384765625,0.7988128662109375,0.3248291015625
1780626355821598700,6.0245986328125,0.4120025634765625,0.7818450927734375,0.321990966796875
1780626355831628800,6.03462890625,0.4301910400390625,0.775238037109375,0.3173675537109375
1780626355841659000,6.044658935546875,0.433837890625,0.77496337890625,0.3111419677734375
1780626355851689000,6.05468896484375,0.4303741455078125,0.7874298095703125,0.30950927734375
1780626355861718800,6.06471875,0.4359893798828125,0.81121826171875,0.3085784912109375
1780626355871748900,6.074748779296875,0.430908203125,0.8230743408203125,0.3056488037109375
1780626355881779000,6.084779052734375,0.4244537353515625,0.8244476318359375,0.2940521240234375
1780626355891809000,6.09480908203125,0.4353485107421875,0.8415374755859375,0.27862548828125
1780626355901838800,6.1048388671875,0.44342041015625,0.8648223876953125,0.264801025390625
1780626355911869000,6.114868896484375,0.4543609619140625,0.8848724365234375,0.252166748046875
1780626355921898800,6.124898681640625,0.4662628173828125,0.896331787109375,0.2464752197265625
1780626355931928800,6.1349287109375,0.4566650390625,0.8838958740234375,0.2490692138671875
1780626355941959000,6.144958984375,0.441650390625,0.859771728515625,0.2699432373046875
1780626355951989000,6.154989013671875,0.44189453125,0.83453369140625,0.2945556640625
1780626355962019000,6.16501904296875,0.4440155029296875,0.81201171875,0.300079345703125
1780626355972048600,6.175048583984375,0.44012451171875,0.8013458251953125,0.2864227294921875
1780626355982078700,6.18507861328125,0.43304443359375,0.8016204833984375,0.2689666748046875
1780626355992108800,6.19510888671875,0.4290618896484375,0.8087158203125,0.2679595947265625
1780626356002139000,6.205138916015625,0.408935546875,0.8187713623046875,0.2818450927734375
1780626356012169000,6.2151689453125,0.3983001708984375,0.8377227783203125,0.3122711181640625
1780626356022199000,6.225198974609375,0.3957366943359375,0.8645782470703125,0.3471527099609375
1780626356032228900,6.235228759765625,0.4040679931640625,0.9015045166015625,0.382568359375
1780626356042259000,6.245259033203125,0.4109649658203125,0.9365692138671875,0.4036865234375
1780626356052288800,6.255288818359375,0.413818359375,0.94793701171875,0.406005859375
1780626356062318800,6.26531884765625,0.41351318359375,0.9230804443359375,0.37060546875
1780626356072349000,6.275348876953125,0.4166107177734375,0.86090087890625,0.3176116943359375
1780626356082378800,6.285378662109375,0.4275054931640625,0.79364013671875,0.2769622802734375
1780626356092408800,6.295408935546875,0.441558837890625,0.74932861328125,0.2511749267578125
1780626356102439000,6.30543896484375,0.4443817138671875,0.746826171875,0.2471771240234375
1780626356112469000,6.315468994140625,0.4308013916015625,0.7814178466796875,0.258941650390625
1780626356122499000,6.3254990234375,0.42047119140625,0.8356475830078125,0.27484130859375
1780626356132529000,6.33552880859375,0.4070892333984375,0.880828857421875,0.2900848388671875
1780626356142558700,6.345558837890625,0.393096923828125,0.8887176513671875,0.311248779296875
1780626356152588800,6.3555888671875,0.390899658203125,0.8702545166015625,0.3351898193359375
1780626356162619000,6.365618896484375,0.408966064453125,0.8445587158203125,0.3525848388671875
1780626356172649000,6.37564892578125,0.4343109130859375,0.8248748779296875,0.358123779296875
1780626356182679000,6.385678955078125,0.4550628662109375,0.8223724365234375,0.3453521728515625
1780626356192708900,6.395708984375,0.4674224853515625,0.837066650390625,0.312469482421875
1780626356202738700,6.40573876953125,0.4668426513671875,0.852691650390625,0.27655029296875
1780626356212768800,6.415768798828125,0.46331787109375,0.854248046875,0.2591705322265625
1780626356222798800,6.425798828125,0.45184326171875,0.8408355712890625,0.2658233642578125
1780626356232829000,6.435828857421875,0.43682861328125,0.816741943359375,0.28369140625
1780626356242859000,6.44585888671875,0.429656982421875,0.802642822265625,0.2949371337890625
1780626356252888800,6.455888916015625,0.41094970703125,0.800140380859375,0.303558349609375
1780626356262919000,6.4659189453125,0.3949432373046875,0.7981109619140625,0.308837890625
1780626356272949000,6.475948974609375,0.3918304443359375,0.799560546875,0.3020782470703125
1780626356282978800,6.485978759765625,0.3753814697265625,0.7919769287109375,0.302947998046875
1780626356293009000,6.4960087890625,0.372833251953125,0.77850341796875,0.3131103515625
1780626356303038700,6.506038818359375,0.3944854736328125,0.7751922607421875,0.3291778564453125
1780626356313068800,6.51606884765625,0.4205169677734375,0.7889556884765625,0.341583251953125
1780626356323099000,6.526098876953125,0.458740234375,0.816680908203125,0.347381591796875
1780626356333129000,6.53612890625,0.5042724609375,0.8485107421875,0.3473358154296875
1780626356343159000,6.546158935546875,0.53289794921875,0.8650970458984375,0.3328094482421875
1780626356353188900,6.55618896484375,0.5513763427734375,0.85369873046875,0.3018035888671875
1780626356363218700,6.56621875,0.57110595703125,0.8194122314453125,0.2771759033203125
1780626356373248800,6.576248779296875,0.5798492431640625,0.767120361328125,0.262115478515625
1780626356383278800,6.58627880859375,0.5714111328125,0.7272491455078125,0.2521514892578125
1780626356393309000,6.596308837890625,0.5696258544921875,0.72491455078125,0.2505035400390625
1780626356403339000,6.606339111328125,0.55120849609375,0.7537384033203125,0.2479400634765625
1780626356413368800,6.616368896484375,0.5170440673828125,0.7822418212890625,0.23333740234375
1780626356423399000,6.62639892578125,0.4933319091796875,0.814300537109375,0.22003173828125
1780626356433428700,6.6364287109375,0.496734619140625,0.8342742919921875,0.2153167724609375
1780626356443458800,6.646458740234375,0.4935150146484375,0.8373260498046875,0.2224273681640625
1780626356453489000,6.656489013671875,0.4894561767578125,0.8285980224609375,0.2373199462890625
1780626356463519000,6.66651904296875,0.488494873046875,0.8050537109375,0.24871826171875
1780626356473548800,6.676548828125,0.486846923828125,0.7835693359375,0.25152587890625
1780626356483579000,6.686578857421875,0.5007171630859375,0.76593017578125,0.2480316162109375
1780626356493609000,6.69660888671875,0.506195068359375,0.764312744140625,0.23883056640625
1780626356503639000,6.70663916015625,0.5155181884765625,0.7608184814453125,0.219970703125
1780626356513668900,6.7166689453125,0.534423828125,0.7808380126953125,0.1871185302734375
1780626356523698700,6.72669873046875,0.553070068359375,0.8068695068359375,0.1473236083984375
1780626356533728800,6.736728759765625,0.552703857421875,0.8546905517578125,0.11358642578125
1780626356543758800,6.7467587890625,0.5419769287109375,0.8866119384765625,0.1269683837890625
1780626356553789000,6.756788818359375,0.5278778076171875,0.8661651611328125,0.1852569580078125
1780626356563819000,6.766819091796875,0.50830078125,0.828948974609375,0.2593994140625
1780626356573849000,6.77684912109375,0.5310516357421875,0.7848358154296875,0.3170166015625
1780626356583878700,6.786878662109375,0.5734405517578125,0.7779998779296875,0.33984375
1780626356593908700,6.79690869140625,0.611175537109375,0.799713134765625,0.3256072998046875
1780626356603938800,6.806938720703125,0.644927978515625,0.8361968994140625,0.2871246337890625
1780626356613969000,6.816968994140625,0.6676788330078125,0.875030517578125,0.242462158203125
1780626356623999000,6.8269990234375,0.6733856201171875,0.9108123779296875,0.2124481201171875
1780626356634028800,6.83702880859375,0.6395721435546875,0.9152374267578125,0.206787109375
1780626356644059000,6.847058837890625,0.595794677734375,0.895538330078125,0.2262115478515625
1780626356654089000,6.8570888671875,0.5765228271484375,0.8914794921875,0.26031494140625
1780626356664118800,6.867118896484375,0.5784454345703125,0.9112091064453125,0.296844482421875
1780626356674148600,6.877148681640625,0.60662841796875,0.94268798828125,0.32940673828125
1780626356684178700,6.8871787109375,0.61309814453125,0.9570159912109375,0.3326416015625
1780626356694208500,6.89720849609375,0.6148529052734375,0.9387359619140625,0.2942657470703125
1780626356704238600,6.907238525390625,0.6055755615234375,0.8985137939453125,0.2399444580078125
1780626356714268700,6.9172685546875,0.5854644775390625,0.864990234375,0.2116851806640625
1780626356724298800,6.927298828125,0.57318115234375,0.855377197265625,0.2245635986328125
1780626356734328800,6.937328857421875,0.5531158447265625,0.8499755859375,0.253631591796875
1780626356744358700,6.947358642578125,0.52496337890625,0.850616455078125,0.2742462158203125
1780626356754388500,6.957388427734375,0.5238494873046875,0.8527984619140625,0.2776031494140625
1780626356764418600,6.96741845703125,0.52667236328125,0.85711669921875,0.25982666015625
1780626356774448600,6.97744873046875,0.51800537109375,0.853668212890625,0.233306884765625
1780626356784478700,6.987478759765625,0.48297119140625,0.83154296875,0.208526611328125
1780626356794508800,6.9975087890625,0.4492645263671875,0.8050384521484375,0.1934967041015625
1780626356804538600,7.00753857421875,0.4487152099609375,0.78759765625,0.1857147216796875
1780626356814568700,7.017568603515625,0.462890625,0.7789306640625,0.1840362548828125
1780626356824598500,7.0275986328125,0.4835357666015625,0.778076171875,0.18853759765625
1780626356834628600,7.037628662109375,0.4972076416015625,0.78643798828125,0.191253662109375
1780626356844658700,7.04765869140625,0.480072021484375,0.7954864501953125,0.1916656494140625
1780626356854688800,7.057688720703125,0.479400634765625,0.8099822998046875,0.196807861328125
1780626356864718600,7.067718505859375,0.496673583984375,0.811279296875,0.2021942138671875
1780626356874748700,7.077748779296875,0.4955291748046875,0.7980804443359375,0.20379638671875
1780626356884778800,7.08777880859375,0.4901275634765625,0.7883758544921875,0.1990203857421875
1780626356894808800,7.097808837890625,0.48419189453125,0.786865234375,0.18914794921875
1780626356904838700,7.107838623046875,0.460723876953125,0.785614013671875,0.16876220703125
1780626356914868500,7.117868408203125,0.4308624267578125,0.7907257080078125,0.145172119140625
1780626356924898600,7.127898681640625,0.3965301513671875,0.8151092529296875,0.1231689453125
1780626356934928600,7.1379287109375,0.3749847412109375,0.8384857177734375,0.113006591796875
1780626356944958700,7.147958740234375,0.3714599609375,0.85589599609375,0.1201324462890625
1780626356954988800,7.15798876953125,0.3781280517578125,0.8754425048828125,0.1391754150390625
1780626356965018600,7.1680185546875,0.3746337890625,0.8932342529296875,0.1658172607421875
1780626356975049700,7.1780498046875,0.373809814453125,0.8982696533203125,0.193084716796875
1780626356985078500,7.18807861328125,0.365325927734375,0.8788299560546875,0.2135162353515625
1780626356995108600,7.198108642578125,0.34527587890625,0.8431549072265625,0.230865478515625
1780626357005139700,7.2081396484375,0.3586273193359375,0.7940826416015625,0.24957275390625
1780626357015168800,7.218168701171875,0.4129638671875,0.7609100341796875,0.278656005859375
1780626357025199600,7.22819970703125,0.4520416259765625,0.7450103759765625,0.29974365234375
1780626357035229700,7.238229736328125,0.444091796875,0.754638671875,0.3017578125
1780626357045259800,7.248259765625,0.42303466796875,0.785736083984375,0.2957916259765625
1780626357055289900,7.258289794921875,0.4243621826171875,0.821533203125,0.2900390625
1780626357065319700,7.268319580078125,0.4315185546875,0.8450775146484375,0.28167724609375
1780626357075349500,7.278349609375,0.4355010986328125,0.8456878662109375,0.2731781005859375
1780626357085379600,7.288379638671875,0.405914306640625,0.8299713134765625,0.2600860595703125
1780626357095409700,7.29840966796875,0.370635986328125,0.8171539306640625,0.2510223388671875
1780626357105439700,7.308439697265625,0.3575286865234375,0.7984466552734375,0.2465057373046875
1780626357115469600,7.318469482421875,0.3968963623046875,0.7942047119140625,0.2590789794921875
1780626357125499600,7.328499755859375,0.415985107421875,0.81549072265625,0.2808837890625
1780626357135529700,7.33852978515625,0.4016876220703125,0.858306884765625,0.3012847900390625
1780626357145559600,7.3485595703125,0.4135284423828125,0.913818359375,0.323822021484375
1780626357155589600,7.358589599609375,0.4417724609375,0.9525909423828125,0.3391571044921875
1780626357165619700,7.36861962890625,0.4420013427734375,0.9463653564453125,0.34771728515625
1780626357175649500,7.3786494140625,0.430145263671875,0.885986328125,0.3370513916015625
1780626357185679600,7.3886796875,0.43896484375,0.83062744140625,0.311981201171875
1780626357195709700,7.398709716796875,0.4494781494140625,0.810760498046875,0.2922821044921875
1780626357205739800,7.40873974609375,0.445587158203125,0.812286376953125,0.28204345703125
1780626357215769900,7.418769775390625,0.455657958984375,0.809112548828125,0.2792205810546875
1780626357225799700,7.428799560546875,0.485565185546875,0.80572509765625,0.28662109375
1780626357235829500,7.43882958984375,0.506927490234375,0.79742431640625,0.301055908203125
1780626357245859600,7.448859619140625,0.4939422607421875,0.7972412109375,0.3179473876953125
1780626357255889700,7.4588896484375,0.47259521484375,0.8065643310546875,0.3414154052734375
1780626357265919700,7.468919677734375,0.4600982666015625,0.817901611328125,0.3607330322265625
1780626357275949800,7.47894970703125,0.4584197998046875,0.808074951171875,0.3664398193359375
1780626357285979600,7.488979736328125,0.4652099609375,0.7945709228515625,0.3771209716796875
1780626357296009700,7.499009765625,0.47564697265625,0.7730560302734375,0.380950927734375
1780626357306039600,7.50903955078125,0.4835052490234375,0.73992919921875,0.36767578125
1780626357316069600,7.519069580078125,0.4938201904296875,0.7241363525390625,0.346710205078125
1780626357326099700,7.529099609375,0.48297119140625,0.720367431640625,0.3341217041015625
1780626357336129800,7.5391298828125,0.484771728515625,0.741943359375,0.3377532958984375
1780626357346159600,7.54915966796875,0.4879150390625,0.7640533447265625,0.35736083984375
1780626357356189700,7.559189697265625,0.4674530029296875,0.7731170654296875,0.3936614990234375
1780626357366219800,7.5692197265625,0.4906005859375,0.7515716552734375,0.4368896484375
1780626357376249600,7.57924951171875,0.522918701171875,0.7214508056640625,0.46197509765625
1780626357386279700,7.58927978515625,0.525390625,0.6851348876953125,0.45147705078125
1780626357396309500,7.5993095703125,0.5165252685546875,0.67401123046875,0.40521240234375
1780626357406339600,7.609339599609375,0.504425048828125,0.680267333984375,0.351715087890625
1780626357416369700,7.61936962890625,0.5018157958984375,0.671051025390625,0.3265228271484375
1780626357426399700,7.629399658203125,0.497222900390625,0.65924072265625,0.3292388916015625
1780626357436429800,7.639429931640625,0.4962310791015625,0.680419921875,0.3316802978515625
1780626357446459600,7.649459716796875,0.4951629638671875,0.7569732666015625,0.34674072265625
1780626357456489500,7.659489501953125,0.485107421875,0.8509063720703125,0.39068603515625
1780626357466519600,7.66951953125,0.474456787109375,0.905517578125,0.43670654296875
1780626357476549600,7.679549560546875,0.477325439453125,0.9040374755859375,0.4570465087890625
1780626357486579700,7.689579833984375,0.48895263671875,0.8509521484375,0.4311676025390625
1780626357496609800,7.69960986328125,0.49822998046875,0.7852935791015625,0.3714599609375
1780626357506639600,7.7096396484375,0.5213470458984375,0.7656097412109375,0.3271636962890625
1780626357516669700,7.719669677734375,0.5303955078125,0.7724761962890625,0.3084259033203125
1780626357526699800,7.72969970703125,0.5239105224609375,0.7852325439453125,0.3132781982421875
1780626357536729600,7.7397294921875,0.5027923583984375,0.8083953857421875,0.3319091796875
1780626357546759700,7.749759765625,0.4662933349609375,0.8382110595703125,0.354278564453125
1780626357556789800,7.759789794921875,0.4599456787109375,0.8714752197265625,0.381103515625
1780626357566819600,7.769819580078125,0.4618072509765625,0.89801025390625,0.399200439453125
1780626357576849700,7.779849609375,0.4744720458984375,0.908111572265625,0.399322509765625
1780626357586879700,7.789879638671875,0.467437744140625,0.8932647705078125,0.3796234130859375
1780626357596909800,7.799909912109375,0.4507293701171875,0.859771728515625,0.3616790771484375
1780626357606939600,7.809939697265625,0.4640350341796875,0.8267364501953125,0.358306884765625
1780626357616969500,7.819969482421875,0.47216796875,0.8022003173828125,0.3568572998046875
1780626357626999600,7.82999951171875,0.46893310546875,0.7913360595703125,0.356964111328125
1780626357637029600,7.840029541015625,0.4545440673828125,0.79864501953125,0.361053466796875
1780626357647059700,7.850059814453125,0.4440460205078125,0.8145599365234375,0.36981201171875
1780626357657089800,7.86008984375,0.4559326171875,0.8392333984375,0.3725433349609375
1780626357667119400,7.870119384765625,0.4697265625,0.87261962890625,0.36767578125
1780626357677149200,7.880149169921875,0.4734039306640625,0.88006591796875,0.3460693359375
1780626357687179300,7.89017919921875,0.481964111328125,0.873321533203125,0.3287200927734375
1780626357697209300,7.900209228515625,0.4792938232421875,0.8609161376953125,0.33074951171875
1780626357707239400,7.910239501953125,0.45977783203125,0.8432464599609375,0.3520050048828125
1780626357717269500,7.92026953125,0.4565277099609375,0.8291168212890625,0.3826141357421875
1780626357727299300,7.93029931640625,0.44818115234375,0.817352294921875,0.402099609375
1780626357737329400,7.940329345703125,0.4670257568359375,0.806549072265625,0.406524658203125
1780626357747359200,7.950359130859375,0.5045928955078125,0.80841064453125,0.3910980224609375
1780626357757389300,7.960389404296875,0.506011962890625,0.8003692626953125,0.35748291015625
1780626357767419400,7.97041943359375,0.5135498046875,0.79071044921875,0.322845458984375
1780626357777449500,7.980449462890625,0.5117645263671875,0.7989654541015625,0.2967376708984375
1780626357787479300,7.990479248046875,0.4888916015625,0.80517578125,0.2881011962890625
1780626357797509400,8.00050927734375,0.48236083984375,0.8271331787109375,0.30438232421875
1780626357807539500,8.01053955078125,0.4843597412109375,0.8575592041015625,0.33233642578125
1780626357817569300,8.0205693359375,0.4918975830078125,0.8720855712890625,0.35614013671875
1780626357827599400,8.030599365234375,0.502044677734375,0.87933349609375,0.3703765869140625
1780626357837629400,8.04062939453125,0.501220703125,0.869293212890625,0.363037109375
1780626357847659300,8.0506591796875,0.48468017578125,0.84100341796875,0.3371124267578125
1780626357857689300,8.060689453125,0.46551513671875,0.8119964599609375,0.3115997314453125
1780626357867719400,8.070719482421875,0.453826904296875,0.80303955078125,0.30535888671875
1780626357877749500,8.08074951171875,0.4541168212890625,0.812042236328125,0.3094635009765625
1780626357887779600,8.090779541015625,0.45733642578125,0.8295745849609375,0.3249053955078125
1780626357897809200,8.10080908203125,0.462615966796875,0.852813720703125,0.3389434814453125
1780626357907839200,8.110839111328126,0.4719696044921875,0.8802032470703125,0.3493804931640625
1780626357917869300,8.120869384765625,0.4766387939453125,0.9012298583984375,0.3494415283203125
1780626357927899400,8.1308994140625,0.4665374755859375,0.909423828125,0.3388214111328125
1780626357937929500,8.140929443359376,0.4585723876953125,0.8987884521484375,0.319366455078125
1780626357947959300,8.150959228515624,0.4505615234375,0.8722686767578125,0.2996978759765625
1780626357957989400,8.1609892578125,0.44366455078125,0.84210205078125,0.2919769287109375
1780626357968019500,8.17101953125,0.435394287109375,0.8236541748046875,0.2884368896484375
1780626357978049300,8.18104931640625,0.43304443359375,0.8226470947265625,0.291961669921875
1780626357988079400,8.191079345703125,0.434814453125,0.834808349609375,0.3079986572265625
1780626357998109400,8.201109375,0.430633544921875,0.843353271484375,0.3278045654296875
1780626358008139300,8.21113916015625,0.4152679443359375,0.854248046875,0.3455657958984375
1780626358018169300,8.22116943359375,0.4067535400390625,0.8583984375,0.3600006103515625
1780626358028199400,8.231199462890626,0.4118499755859375,0.85870361328125,0.36285400390625
1780626358038229500,8.2412294921875,0.4195098876953125,0.869049072265625,0.359405517578125
1780626358048259300,8.25125927734375,0.4178619384765625,0.8781280517578125,0.35125732421875
1780626358058289400,8.261289306640625,0.418182373046875,0.8796844482421875,0.34423828125
1780626358068319200,8.2713193359375,0.425048828125,0.881561279296875,0.3462677001953125
1780626358078349300,8.281349365234375,0.43182373046875,0.8842620849609375,0.337982177734375
1780626358088379400,8.29137939453125,0.4329071044921875,0.9031829833984375,0.327056884765625
1780626358098409500,8.301409423828124,0.42730712890625,0.9459381103515625,0.32110595703125
1780626358108439600,8.311439453125,0.42041015625,1.00250244140625,0.3180084228515625
1780626358118469400,8.321469482421875,0.41546630859375,1.05316162109375,0.319244384765625
1780626358128499200,8.331499267578126,0.4013214111328125,1.0782623291015625,0.3338775634765625
1780626358138529300,8.341529296875,0.3813934326171875,1.0695648193359375,0.35888671875
1780626358148559400,8.351559326171875,0.377838134765625,1.047821044921875,0.390167236328125
1780626358158589400,8.36158935546875,0.3853607177734375,1.018096923828125,0.4099578857421875
1780626358168619500,8.37161962890625,0.380401611328125,1.0128936767578125,0.416015625
1780626358178649300,8.3816494140625,0.34814453125,1.0212249755859375,0.4246978759765625
1780626358188679400,8.391679443359376,0.4113311767578125,0.99700927734375,0.4594879150390625
1780626358198709500,8.40170947265625,0.4689178466796875,0.8963470458984375,0.511444091796875
1780626358208739300,8.4117392578125,0.3980560302734375,0.7213592529296875,0.5498046875
1780626358218769400,8.421769287109376,0.2867279052734375,0.51507568359375,0.5373077392578125
1780626358228799200,8.43179931640625,0.1831207275390625,0.35882568359375,0.4808807373046875
1780626358238829300,8.441829345703125,0.148345947265625,0.3019561767578125,0.352691650390625
1780626358248859400,8.451859375,0.2406005859375,0.36871337890625,0.2424163818359375
1780626358258889500,8.461889404296874,0.3435821533203125,0.47381591796875,0.204620361328125
1780626358268919600,8.47191943359375,0.3638763427734375,0.5651702880859375,0.2216796875
1780626358278949400,8.481949462890626,0.3807373046875,0.611724853515625,0.245819091796875
1780626358288979200,8.491979248046874,0.4178466796875,0.64044189453125,0.255126953125
1780626358299009300,8.50200927734375,0.4038543701171875,0.6670379638671875,0.2509918212890625
1780626358309039400,8.512039306640625,0.3841400146484375,0.658843994140625,0.239715576171875
1780626358319069400,8.5220693359375,0.351806640625,0.6313018798828125,0.210540771484375
1780626358329099500,8.532099609375,0.34735107421875,0.5995635986328125,0.204193115234375
1780626358339129300,8.54212939453125,0.357269287109375,0.599395751953125,0.21368408203125
1780626358349159400,8.552159423828124,0.37701416015625,0.6119384765625,0.24578857421875
1780626358359189200,8.562189208984375,0.4270172119140625,0.6625823974609375,0.321441650390625
1780626358369219300,8.57221923828125,0.4094696044921875,0.7738037109375,0.4394073486328125
1780626358379249400,8.58224951171875,0.2931060791015625,0.935272216796875,0.562225341796875
1780626358389279500,8.592279541015625,0.192596435546875,1.161407470703125,0.597259521484375
1780626358399309300,8.602309326171875,0.2035980224609375,1.384490966796875,0.4742431640625
1780626358409339400,8.61233935546875,0.4902496337890625,1.5172576904296875,0.397216796875
1780626358419369500,8.622369384765625,1.0122222900390625,1.5268707275390625,0.3509674072265625
1780626358429399600,8.632399658203125,0.9051513671875,1.2727813720703125,0.212249755859375
1780626358439429400,8.642429443359376,0.3585052490234375,0.8052825927734375,0.08160400390625
1780626358449459200,8.652459228515625,0.326995849609375,0.4673919677734375,-0.0669403076171875
1780626358459489300,8.6624892578125,0.424896240234375,0.3342132568359375,-0.1254119873046875
1780626358469519400,8.672519287109376,0.3093109130859375,0.389556884765625,-0.0002899169921875
1780626358479549400,8.682549560546875,0.26568603515625,0.6202545166015625,0.1652984619140625
1780626358489579500,8.69257958984375,0.186309814453125,0.8537445068359375,0.2633819580078125
1780626358499609300,8.702609375,0.1430511474609375,1.029022216796875,0.322113037109375
1780626358509639200,8.71263916015625,0.17510986328125,1.1676788330078125,0.321563720703125
1780626358519669200,8.722669189453125,0.18988037109375,1.2577667236328125,0.282073974609375
1780626358529699300,8.73269921875,0.1592864990234375,1.2509918212890625,0.2617645263671875
1780626358539729400,8.7427294921875,0.1733856201171875,1.14569091796875,0.2677001953125
1780626358549759500,8.752759521484375,0.2499847412109375,1.0299835205078125,0.27294921875
1780626358559789300,8.762789306640625,0.3196563720703125,0.95709228515625,0.2675933837890625
1780626358569819400,8.7728193359375,0.3725128173828125,0.9187469482421875,0.245361328125
1780626358579849500,8.782849365234375,0.4107208251953125,0.872589111328125,0.2270660400390625
1780626358589879300,8.79287939453125,0.380279541015625,0.82574462890625,0.23779296875
1780626358599909400,8.802909423828124,0.2626495361328125,0.7914886474609375,0.2336578369140625
1780626358609939500,8.812939453125,0.16839599609375,0.791290283203125,0.2254791259765625
1780626358619969300,8.82296923828125,0.1499481201171875,0.8042755126953125,0.2269744873046875
1780626358629999400,8.832999267578124,0.1827850341796875,0.8132781982421875,0.2524871826171875
1780626358640029400,8.843029541015625,0.2245635986328125,0.8344573974609375,0.2725830078125
1780626358650059500,8.8530595703125,0.2436065673828125,0.866424560546875,0.2471923828125
1780626358660089300,8.86308935546875,0.2268524169921875,0.9050140380859375,0.211700439453125
1780626358670119200,8.873119140625,0.1770172119140625,0.916229248046875,0.15460205078125
1780626358680149200,8.883149169921875,0.1477813720703125,0.9195404052734375,0.06683349609375
1780626358690179300,8.893179443359376,0.1266937255859375,0.92340087890625,-0.02655029296875
1780626358700209200,8.903209228515625,0.107025146484375,0.9095458984375,-0.10711669921875
1780626358710239200,8.9132392578125,0.0850067138671875,0.879302978515625,-0.193023681640625
1780626358720269300,8.923269287109376,0.09661865234375,0.874603271484375,-0.260284423828125
1780626358730299100,8.933299072265624,0.119842529296875,0.8764190673828125,-0.3087921142578125
1780626358740329200,8.9433291015625,0.1538848876953125,0.8600921630859375,-0.363616943359375
1780626358750359300,8.953359375,0.2259521484375,0.8785858154296875,-0.4079742431640625
1780626358760389400,8.963389404296874,0.33502197265625,0.99407958984375,-0.439117431640625
1780626358770419500,8.97341943359375,0.3776702880859375,1.172821044921875,-0.455810546875
1780626358780449000,8.983448974609376,0.3478546142578125,1.29095458984375,-0.4661102294921875
1780626358790479000,8.99347900390625,0.3475494384765625,1.320098876953125,-0.457183837890625
1780626358800509200,9.00350927734375,0.34942626953125,1.26220703125,-0.4103546142578125
1780626358810539300,9.013539306640626,0.297576904296875,1.1171722412109375,-0.331085205078125
1780626358820569300,9.0235693359375,0.2447662353515625,0.980072021484375,-0.2369842529296875
1780626358830599400,9.033599365234375,0.2381134033203125,0.9127197265625,-0.163909912109375
1780626358840629200,9.043629150390625,0.239349365234375,0.8858184814453125,-0.1138458251953125
1780626358850659000,9.0536591796875,0.2399749755859375,0.8896636962890625,-0.07269287109375
1780626358860689200,9.063689208984375,0.2692718505859375,0.9071502685546875,-0.037841796875
1780626358870719200,9.07371923828125,0.3047637939453125,0.9193572998046875,-0.0183868408203125
1780626358880749300,9.083749267578124,0.3264007568359375,0.9368743896484375,-0.0069580078125
1780626358890779100,9.093779052734375,0.3262481689453125,0.9635162353515625,0.0025787353515625
1780626358900809200,9.103809326171875,0.3095550537109375,0.9878082275390625,0.0057220458984375
1780626358910839300,9.11383935546875,0.2631683349609375,0.994873046875,-0.00006103515625
1780626358920869400,9.123869384765625,0.2236175537109375,0.9857177734375,-0.006439208984375
1780626358930899200,9.133899169921875,0.19781494140625,0.969818115234375,-0.006744384765625
1780626358940929300,9.14392919921875,0.201507568359375,0.9510040283203125,-0.0032958984375
1780626358950959000,9.153958984375,0.2099151611328125,0.9430999755859375,-0.0038909912109375
1780626358960989200,9.1639892578125,0.183197021484375,0.9543914794921875,-0.018585205078125
1780626358971019300,9.174019287109376,0.16802978515625,0.9692840576171875,-0.0435791015625
1780626358981049300,9.18404931640625,0.1795654296875,0.9779815673828125,-0.0566864013671875
1780626358991079400,9.194079345703125,0.1981353759765625,0.975433349609375,-0.0528717041015625
1780626359001109200,9.204109130859376,0.22430419921875,0.9620208740234375,-0.041900634765625
1780626359011139000,9.21413916015625,0.256683349609375,0.945953369140625,-0.031219482421875
1780626359021169200,9.224169189453125,0.275665283203125,0.924041748046875,-0.02313232421875
1780626359031199200,9.23419921875,0.2941741943359375,0.921661376953125,-0.0182952880859375
1780626359041229300,9.244229248046874,0.2968597412109375,0.9242401123046875,-0.018463134765625
1780626359051259400,9.25425927734375,0.2880706787109375,0.91998291015625,-0.0279083251953125
1780626359061289200,9.264289306640626,0.289398193359375,0.92193603515625,-0.0392913818359375
1780626359071319300,9.2743193359375,0.2948760986328125,0.9207916259765625,-0.05133056640625
1780626359081349000,9.28434912109375,0.29998779296875,0.930877685546875,-0.06591796875
1780626359091379200,9.294379150390625,0.305816650390625,0.95587158203125,-0.0836944580078125
1780626359101409300,9.3044091796875,0.295867919921875,0.9897613525390625,-0.1026458740234375
1780626359111439000,9.314439208984375,0.2622222900390625,1.03436279296875,-0.1124420166015625
1780626359121469200,9.32446923828125,0.233123779296875,1.067352294921875,-0.109710693359375
1780626359131499300,9.334499267578124,0.20623779296875,1.0714569091796875,-0.0990447998046875
1780626359141529300,9.344529296875,0.1817626953125,1.0556488037109375,-0.0809326171875
1780626359151559400,9.354559326171875,0.16986083984375,1.037200927734375,-0.042938232421875
1780626359161589200,9.36458935546875,0.1901397705078125,1.005950927734375,0.0091552734375
1780626359171619000,9.374619140625,0.2254638671875,0.9737548828125,0.0625457763671875
1780626359181649200,9.384649169921875,0.25775146484375,0.932403564453125,0.1094512939453125
1780626359191679200,9.39467919921875,0.283172607421875,0.8973388671875,0.143798828125
1780626359201709300,9.404709228515625,0.3048553466796875,0.889251708984375,0.155975341796875
1780626359211739400,9.414739501953125,0.3168792724609375,0.91949462890625,0.1474151611328125
1780626359221769200,9.424769287109376,0.33013916015625,0.9911956787109375,0.1322479248046875
1780626359231799300,9.43479931640625,0.32635498046875,1.08038330078125,0.1181488037109375
1780626359241829000,9.4448291015625,0.3134918212890625,1.1713409423828125,0.1238861083984375
1780626359251859200,9.454859130859376,0.3224334716796875,1.22418212890625,0.1561431884765625
1780626359261889300,9.46488916015625,0.3592529296875,1.2343597412109375,0.1958770751953125
1780626359271919400,9.47491943359375,0.4089508056640625,1.2082672119140625,0.2363128662109375
1780626359281949200,9.48494921875,0.450653076171875,1.163970947265625,0.2680511474609375
1780626359291979300,9.494979248046874,0.4324798583984375,1.1064605712890625,0.268890380859375
1780626359302010400,9.50501025390625,0.4217987060546875,1.03143310546875,0.26324462890625
1780626359312040400,9.51504052734375,0.494903564453125,0.879119873046875,0.280731201171875
1780626359322070300,9.5250703125,0.5020294189453125,0.6829681396484375,0.2834930419921875
1780626359332100000,9.53510009765625,0.41351318359375,0.511199951171875,0.2799835205078125
1780626359342130200,9.545130126953126,0.319854736328125,0.3519287109375,0.2646484375
1780626359352160300,9.55516015625,0.2755279541015625,0.247039794921875,0.2289886474609375
1780626359362190300,9.5651904296875,0.3187103271484375,0.2224884033203125,0.1983489990234375
1780626359372220200,9.57522021484375,0.39459228515625,0.277130126953125,0.1719512939453125
1780626359382250200,9.585250244140624,0.471771240234375,0.3726043701171875,0.135955810546875
1780626359392280300,9.5952802734375,0.5012664794921875,0.4763946533203125,0.1096954345703125
1780626359402310100,9.60531005859375,0.47564697265625,0.566314697265625,0.1040496826171875
1780626359412340200,9.61534033203125,0.4530792236328125,0.6229095458984375,0.1139068603515625
1780626359422370300,9.625370361328125,0.466949462890625,0.672454833984375,0.1219024658203125
1780626359432400100,9.635400146484375,0.470062255859375,0.7333984375,0.1133880615234375
1780626359442430200,9.64543017578125,0.4788360595703125,0.8432464599609375,0.104339599609375
1780626359452460300,9.655460205078125,0.4951019287109375,0.9877471923828125,0.1107025146484375
1780626359462490400,9.665490478515625,0.5513153076171875,1.1083831787109375,0.1282501220703125
1780626359472519200,9.675519287109376,0.6331329345703125,1.1969146728515625,0.15057373046875
1780626359482549200,9.68554931640625,0.691162109375,1.2625274658203125,0.1700439453125
1780626359492579300,9.695579345703125,0.657928466796875,1.2619171142578125,0.182647705078125
1780626359502609200,9.705609130859376,0.402496337890625,1.1417999267578125,0.18890380859375
1780626359512639200,9.71563916015625,0.30419921875,0.994720458984375,0.201629638671875
1780626359522669300,9.72566943359375,0.3354339599609375,0.9796905517578125,0.240509033203125
1780626359532700400,9.735700439453124,0.379302978515625,1.04949951171875,0.3056182861328125
1780626359542729200,9.745729248046874,0.4979705810546875,1.099578857421875,0.35467529296875
1780626359552760300,9.75576025390625,0.5451202392578125,1.06317138671875,0.3733367919921875
1780626359562790100,9.7657900390625,0.446746826171875,0.9258575439453125,0.379608154296875
1780626359572819200,9.775819091796874,0.3136749267578125,0.73565673828125,0.333892822265625
1780626359582850300,9.785850341796875,0.2992401123046875,0.6199951171875,0.230316162109375
1780626359592880000,9.795880126953126,0.3298187255859375,0.61773681640625,0.1474761962890625
1780626359602910200,9.80591015625,0.3450164794921875,0.680419921875,0.09063720703125
1780626359612940300,9.815940185546875,0.3561248779296875,0.8054046630859375,0.0594482421875
1780626359622970400,9.825970458984376,0.3907012939453125,0.9701385498046875,0.0565948486328125
1780626359633000200,9.836000244140624,0.4253387451171875,1.109130859375,0.06915283203125
1780626359643030300,9.8460302734375,0.415008544921875,1.174957275390625,0.0810089111328125
1780626359653060000,9.85606005859375,0.376953125,1.1753387451171875,0.091949462890625
1780626359663091000,9.866091064453125,0.332183837890625,1.1051177978515625,0.0988006591796875
1780626359673121000,9.87612109375,0.3020172119140625,0.995025634765625,0.110198974609375
1780626359683150800,9.88615087890625,0.2826690673828125,0.894500732421875,0.112091064453125
1780626359693180700,9.8961806640625,0.2839202880859375,0.8317718505859375,0.0930328369140625
1780626359703210800,9.906210693359375,0.2957000732421875,0.80859375,0.072113037109375
1780626359713240800,9.91624072265625,0.3073883056640625,0.8127899169921875,0.0650177001953125
1780626359723271000,9.92627099609375,0.312255859375,0.84759521484375,0.064239501953125
1780626359733301000,9.936301025390625,0.3109588623046875,0.9129791259765625,0.07293701171875
1780626359743331000,9.9463310546875,0.3176727294921875,0.983795166015625,0.0868988037109375
1780626359753361000,9.95636083984375,0.3379364013671875,1.02862548828125,0.10052490234375
1780626359763390700,9.966390625,0.331085205078125,1.056396484375,0.1055145263671875
1780626359773420800,9.9764208984375,0.2933807373046875,1.0442962646484375,0.108062744140625
1780626359783451000,9.986450927734374,0.26226806640625,1.002410888671875,0.120635986328125
1780626359793481000,9.99648095703125,0.2448883056640625,0.958343505859375,0.1353607177734375
1780626359803510800,10.0065107421875,0.2347259521484375,0.92376708984375,0.1455230712890625
1780626359813540900,10.016540771484374,0.231597900390625,0.9126739501953125,0.145538330078125
1780626359823571000,10.026571044921875,0.2294464111328125,0.9287872314453125,0.14361572265625
1780626359833600800,10.036600830078125,0.2265777587890625,0.959686279296875,0.1453704833984375
1780626359843630800,10.046630859375,0.2148284912109375,0.9873809814453125,0.1474761962890625
1780626359853661000,10.056660888671875,0.2010498046875,0.9948883056640625,0.150543212890625
1780626359863690800,10.066690673828125,0.17864990234375,0.9812774658203125,0.1468658447265625
1780626359873720800,10.076720947265626,0.1561737060546875,0.9593505859375,0.1414642333984375
1780626359883751000,10.0867509765625,0.134613037109375,0.9407806396484375,0.139434814453125
1780626359893781000,10.096781005859375,0.1219482421875,0.9282379150390625,0.138916015625
1780626359903811000,10.10681103515625,0.1274566650390625,0.923858642578125,0.138763427734375
1780626359913841000,10.1168408203125,0.1369171142578125,0.9302978515625,0.1459503173828125
1780626359923870700,10.12687060546875,0.1382598876953125,0.94207763671875,0.1463165283203125
1780626359933900800,10.13690087890625,0.1321868896484375,0.95538330078125,0.1367034912109375
1780626359943931000,10.146930908203124,0.1251220703125,0.9656829833984375,0.1368255615234375
1780626359953961000,10.1569609375,0.118804931640625,0.9733428955078125,0.135589599609375
1780626359963991000,10.166990966796876,0.119415283203125,0.975921630859375,0.13897705078125
1780626359974020900,10.177020751953124,0.1227569580078125,0.9723968505859375,0.141754150390625
1780626359984051000,10.187051025390625,0.1321868896484375,0.9752197265625,0.1499481201171875
1780626359994080800,10.197080810546876,0.1417083740234375,0.988372802734375,0.1580810546875
1780626360004110800,10.20711083984375,0.1406707763671875,0.990447998046875,0.1645050048828125
1780626360014141000,10.217140869140625,0.12835693359375,0.98455810546875,0.1645355224609375
1780626360024170800,10.227170654296875,0.1264190673828125,0.9833221435546875,0.159912109375
1780626360034200800,10.237200927734374,0.1200714111328125,0.9843597412109375,0.14532470703125
1780626360044231000,10.24723095703125,0.09674072265625,0.9909820556640625,0.12506103515625
1780626360054261000,10.257260986328125,0.0712127685546875,0.99957275390625,0.112213134765625
1780626360064290800,10.267290771484374,0.0550537109375,1.0000762939453125,0.1080474853515625
1780626360074321000,10.27732080078125,0.0472869873046875,0.990386962890625,0.10760498046875
1780626360084350700,10.287350830078125,0.044281005859375,0.9816131591796875,0.1129302978515625
1780626360094380800,10.297380859375,0.0552520751953125,0.9726715087890625,0.112396240234375
1780626360104411000,10.307410888671875,0.072113037109375,0.9532623291015625,0.1145782470703125
1780626360114441000,10.31744091796875,0.077911376953125,0.934478759765625,0.1251678466796875
1780626360124471000,10.327470947265626,0.076751708984375,0.9240570068359375,0.1167755126953125
1780626360134500900,10.3375009765625,0.0700531005859375,0.91571044921875,0.0932464599609375
1780626360144530700,10.34753076171875,0.0316162109375,0.9213714599609375,0.0759429931640625
1780626360154560800,10.357560791015626,-0.0168609619140625,0.9444122314453125,0.07025146484375
1780626360164590800,10.3675908203125,-0.0496978759765625,0.9717559814453125,0.066741943359375
1780626360174621000,10.377620849609375,-0.074798583984375,0.995697021484375,0.0654296875
1780626360184651000,10.387651123046876,-0.0745697021484375,1.0135498046875,0.07257080078125
1780626360194680800,10.397680908203125,-0.0251312255859375,1.0103912353515625,0.0878753662109375
1780626360204711000,10.4077109375,0.0386505126953125,0.998748779296875,0.104766845703125
1780626360214740700,10.41774072265625,0.089141845703125,0.98822021484375,0.112396240234375
1780626360224770800,10.427770751953124,0.106536865234375,0.99530029296875,0.107574462890625
1780626360234801000,10.43780078125,0.0742340087890625,1.008331298828125,0.0961151123046875
1780626360244830700,10.447830810546876,0.0190277099609375,1.011199951171875,0.0884246826171875
1780626360254860800,10.45786083984375,-0.0106048583984375,1.006744384765625,0.0981597900390625
1780626360264891000,10.467890869140625,-0.003021240234375,1.004852294921875,0.1248016357421875
1780626360274921000,10.4779208984375,0.024658203125,1.005767822265625,0.15411376953125
1780626360284951000,10.487950927734374,0.0480194091796875,0.99468994140625,0.16680908203125
1780626360294980900,10.49798095703125,0.0606842041015625,0.965301513671875,0.1784210205078125
1780626360305010700,10.5080107421875,0.053253173828125,0.947479248046875,0.1896209716796875
1780626360315040800,10.518040771484374,0.04913330078125,0.9483489990234375,0.16650390625
1780626360325070800,10.52807080078125,0.0330352783203125,0.9375762939453125,0.123321533203125
1780626360335101000,10.538100830078125,-0.0000152587890625,0.9394378662109375,0.088409423828125
1780626360345131000,10.548131103515624,-0.02728271484375,0.93426513671875,0.0807037353515625
1780626360355160800,10.558160888671875,-0.0156402587890625,0.9284515380859375,0.09527587890625
1780626360365191000,10.56819091796875,0.0121612548828125,0.929229736328125,0.12109375
1780626360375220700,10.578220703125,0.031219482421875,0.934112548828125,0.1460418701171875
1780626360385250800,10.588250732421875,0.0529327392578125,0.931182861328125,0.162384033203125
1780626360395281000,10.598281005859375,0.051422119140625,0.9318389892578125,0.1614837646484375
1780626360405311000,10.60831103515625,0.038665771484375,0.944732666015625,0.1428985595703125
1780626360415340800,10.6183408203125,0.033050537109375,0.9716033935546875,0.10430908203125
1780626360425371000,10.628370849609375,0.03436279296875,1.001953125,0.0603179931640625
1780626360435401000,10.63840087890625,0.0509185791015625,1.0284881591796875,0.0202178955078125
1780626360445430800,10.6484306640625,0.06842041015625,1.0431060791015625,-0.0050811767578125
1780626360455460900,10.6584609375,0.07464599609375,1.045989990234375,-0.017059326171875
1780626360465491000,10.668490966796876,0.0557403564453125,1.0298919677734375,-0.0181884765625
1780626360475520800,10.678520751953124,0.0285491943359375,1.0172119140625,-0.0121917724609375
1780626360485550800,10.68855078125,-0.0047760009765625,1.011322021484375,-0.004364013671875
1780626360495581000,10.698580810546876,-0.0318603515625,1.0092926025390625,0.009033203125
1780626360505611000,10.708611083984374,-0.0462188720703125,1.0129852294921875,0.0299530029296875
1780626360515641000,10.71864111328125,-0.05047607421875,1.0135498046875,0.0467529296875
1780626360525670700,10.728670654296875,-0.055694580078125,1.0152130126953125,0.0553131103515625
1780626360535700700,10.73870068359375,-0.0669097900390625,1.0164794921875,0.0614013671875
1780626360545730800,10.748730712890625,-0.0522003173828125,1.012664794921875,0.06982421875
1780626360555761000,10.758760986328125,-0.03204345703125,1.0032196044921875,0.0719451904296875
1780626360565791000,10.768791015625,-0.0381927490234375,0.995758056640625,0.073516845703125
1780626360575820800,10.77882080078125,-0.0361175537109375,1.0076446533203125,0.07989501953125
1780626360585851000,10.788850830078125,-0.0399017333984375,1.0328826904296875,0.0883941650390625
1780626360595881000,10.798880859375,-0.0510101318359375,1.0583953857421875,0.092864990234375
1780626360605910800,10.808910888671875,-0.0423583984375,1.0655517578125,0.09307861328125
1780626360615940900,10.81894091796875,-0.02630615234375,1.0501708984375,0.089874267578125
1780626360625971000,10.828970947265624,-0.0431671142578125,1.018646240234375,0.079376220703125
1780626360636000800,10.839000732421875,-0.076019287109375,0.9825897216796875,0.064697265625
1780626360646030800,10.84903076171875,-0.106781005859375,0.9603424072265625,0.0452728271484375
1780626360656061000,10.85906103515625,-0.1261138916015625,0.9501190185546875,0.0272216796875
1780626360666091000,10.869091064453125,-0.1271820068359375,0.9562530517578125,0.0131072998046875
1780626360676120800,10.879120849609375,-0.119964599609375,0.9639739990234375,0.0002593994140625
1780626360686151000,10.88915087890625,-0.123809814453125,0.975250244140625,-0.012176513671875
1780626360696180700,10.8991806640625,-0.1210784912109375,0.9817657470703125,-0.0116119384765625
1780626360706210800,10.9092109375,-0.117950439453125,0.9888763427734375,0.0008697509765625
1780626360716241000,10.919240966796876,-0.1108551025390625,1.0031585693359375,0.0261077880859375
1780626360726271000,10.92927099609375,-0.09564208984375,1.0226593017578125,0.0550689697265625
1780626360736301000,10.939301025390625,-0.0899810791015625,1.02587890625,0.084564208984375
1780626360746331000,10.949330810546876,-0.07098388671875,1.0052490234375,0.118804931640625
1780626360756360700,10.959360595703124,-0.0388336181640625,0.96826171875,0.1449127197265625
1780626360766390800,10.969390869140625,-0.056549072265625,0.91876220703125,0.1527862548828125
1780626360776420900,10.9794208984375,-0.097991943359375,0.880859375,0.143951416015625
1780626360786451000,10.989450927734374,-0.1110992431640625,0.87005615234375,0.134063720703125
1780626360796480800,10.999480712890625,-0.100830078125,0.870361328125,0.1279754638671875
1780626360806510800,11.0095107421875,-0.075469970703125,0.8927154541015625,0.12286376953125
1780626360816541000,11.019541015625,-0.048980712890625,0.918426513671875,0.1117706298828125
1780626360826571000,11.029571044921875,-0.050506591796875,0.9342803955078125,0.086090087890625
1780626360836600800,11.039600830078125,-0.0722503662109375,0.9340057373046875,0.054840087890625
1780626360846631000,11.049630859375,-0.092010498046875,0.92974853515625,0.028411865234375
1780626360856660700,11.05966064453125,-0.1110992431640625,0.9344635009765625,0.015625
1780626360866690800,11.06969091796875,-0.132049560546875,0.9594573974609375,0.016448974609375
1780626360876721000,11.079720947265624,-0.1473236083984375,1.012298583984375,0.03216552734375
1780626360886751000,11.0897509765625,-0.1426544189453125,1.0779266357421875,0.058319091796875
1780626360896781000,11.099781005859375,-0.1123199462890625,1.1402587890625,0.0915679931640625
1780626360906811000,11.109810791015626,-0.0943450927734375,1.165802001953125,0.1249542236328125
1780626360916840700,11.1198408203125,-0.1048583984375,1.1122589111328125,0.153717041015625
1780626360926870800,11.129870849609375,-0.133087158203125,0.9959869384765625,0.183746337890625
1780626360936900900,11.13990087890625,-0.169342041015625,0.87225341796875,0.203582763671875
1780626360946931000,11.149930908203125,-0.1737060546875,0.7923431396484375,0.220367431640625
1780626360956961000,11.1599609375,-0.1358795166015625,0.767120361328125,0.2388763427734375
1780626360966990800,11.169990966796876,-0.0997467041015625,0.8247833251953125,0.244720458984375
1780626360977021000,11.18002099609375,-0.0792083740234375,0.945404052734375,0.2315826416015625
1780626360987050800,11.19005078125,-0.06658935546875,1.0450897216796875,0.1986541748046875
1780626360997080800,11.200080810546876,-0.0702056884765625,1.1040191650390625,0.1485595703125
1780626361007111000,11.21011083984375,-0.068695068359375,1.120269775390625,0.0943756103515625
1780626361017141000,11.22014111328125,-0.04229736328125,1.09967041015625,0.0542144775390625
1780626361027170800,11.2301708984375,-0.0059661865234375,1.0448455810546875,0.03997802734375
1780626361037201000,11.240200927734374,0.023345947265625,0.9804534912109375,0.0509033203125
1780626361047231000,11.25023095703125,0.02764892578125,0.931396484375,0.080810546875
1780626361057261000,11.260260986328126,0.0253448486328125,0.898406982421875,0.10888671875
1780626361067292000,11.2702919921875,0.028778076171875,0.901947021484375,0.1266937255859375
1780626361077321700,11.28032177734375,0.0239105224609375,0.9461822509765625,0.133331298828125
1780626361087351800,11.290351806640626,0.013946533203125,0.9942779541015625,0.135589599609375
1780626361097382000,11.3003818359375,0.0252532958984375,1.0227203369140625,0.1379547119140625
1780626361107412000,11.310411865234375,0.052978515625,1.0293731689453125,0.1443634033203125
1780626361117441800,11.32044189453125,0.070068359375,1.0188751220703125,0.14495849609375
1780626361127471900,11.330471923828124,0.0510406494140625,1.001007080078125,0.13458251953125
1780626361137502000,11.340501953125,0.0090789794921875,0.984130859375,0.118438720703125
1780626361147532000,11.350531982421876,0.001068115234375,0.973419189453125,0.1158905029296875
1780626361157561900,11.360561767578124,0.0326080322265625,0.962249755859375,0.1302642822265625
1780626361167592000,11.370592041015625,0.0765533447265625,0.969696044921875,0.143310546875
1780626361177621800,11.380621826171875,0.104248046875,0.985260009765625,0.1520538330078125
1780626361187651800,11.39065185546875,0.1042938232421875,0.9918365478515625,0.1522216796875
1780626361197682000,11.400681884765625,0.0482940673828125,0.986480712890625,0.16192626953125
1780626361207712000,11.4107119140625,0.0302886962890625,0.9486236572265625,0.19140625
1780626361217742000,11.4207421875,0.0540618896484375,0.9278564453125,0.2279205322265625
1780626361227771600,11.430771728515625,0.07745361328125,0.958953857421875,0.2665252685546875
1780626361237801700,11.4408017578125,0.0820770263671875,1.0345458984375,0.3067626953125
1780626361247831800,11.450831787109376,0.1136627197265625,1.1360626220703125,0.3436431884765625
1780626361257862000,11.46086181640625,0.1845245361328125,1.2151031494140625,0.3791351318359375
1780626361267892000,11.47089208984375,0.3045196533203125,1.2352447509765625,0.423187255859375
1780626361277921800,11.480921875,0.4154815673828125,1.1913299560546875,0.4637603759765625
1780626361287952000,11.490951904296875,0.437896728515625,1.060455322265625,0.4807586669921875
1780626361297982000,11.50098193359375,0.4513397216796875,0.859283447265625,0.4648284912109375
1780626361308011800,11.51101171875,0.46075439453125,0.6830902099609375,0.4220428466796875
1780626361318041900,11.521041748046875,0.4577178955078125,0.5538177490234375,0.38092041015625
1780626361328072000,11.531072021484375,0.418731689453125,0.511993408203125,0.353485107421875
1780626361338101800,11.541101806640626,0.3957061767578125,0.513916015625,0.353302001953125
1780626361348131800,11.5511318359375,0.4573974609375,0.5489959716796875,0.3748931884765625
1780626361358162000,11.561161865234375,0.5458221435546875,0.62579345703125,0.39990234375
1780626361368192000,11.57119189453125,0.6140899658203125,0.687469482421875,0.4092864990234375
1780626361378222000,11.58122216796875,0.6318359375,0.7110443115234375,0.3961639404296875
1780626361388252000,11.591251953125,0.5831756591796875,0.70587158203125,0.3629302978515625
1780626361398281700,11.60128173828125,0.5187835693359375,0.6862945556640625,0.3258056640625
1780626361408311800,11.611311767578124,0.4781494140625,0.658599853515625,0.309356689453125
1780626361418342000,11.621341796875,0.4708251953125,0.64599609375,0.3253173828125
1780626361428372000,11.6313720703125,0.498687744140625,0.6667633056640625,0.3574371337890625
1780626361438402000,11.641402099609374,0.534271240234375,0.7102203369140625,0.3880615234375
1780626361448431900,11.651431884765625,0.5726318359375,0.7796478271484375,0.4107513427734375
1780626361458461700,11.661461669921875,0.60162353515625,0.8406524658203125,0.4254608154296875
1780626361468491800,11.67149169921875,0.59326171875,0.8700103759765625,0.4309539794921875
1780626361478521900,11.68152197265625,0.555572509765625,0.8576812744140625,0.435150146484375
1780626361488552000,11.691552001953125,0.49090576171875,0.8265380859375,0.446258544921875
1780626361498581800,11.701581787109374,0.4262847900390625,0.8000640869140625,0.450958251953125
1780626361508611800,11.71161181640625,0.3866119384765625,0.7687225341796875,0.4512939453125
1780626361518642000,11.721641845703125,0.404266357421875,0.7464141845703125,0.4557037353515625
1780626361528672000,11.731672119140624,0.470794677734375,0.7418212890625,0.4527130126953125
1780626361538701800,11.741701904296875,0.5443878173828125,0.751678466796875,0.4461517333984375
1780626361548732000,11.75173193359375,0.5923614501953125,0.7655029296875,0.442047119140625
1780626361558761700,11.76176171875,0.613372802734375,0.759490966796875,0.4451904296875
1780626361568791800,11.771791748046875,0.61328125,0.7490234375,0.45208740234375
1780626361578822000,11.78182177734375,0.58074951171875,0.733734130859375,0.4614105224609375
1780626361588852000,11.79185205078125,0.5103302001953125,0.712921142578125,0.46038818359375
1780626361598882000,11.801882080078125,0.4502716064453125,0.6764068603515625,0.4457855224609375
1780626361608912000,11.811911865234375,0.4278106689453125,0.6425018310546875,0.423187255859375
1780626361618941700,11.821941650390626,0.4334259033203125,0.6150054931640625,0.4057159423828125
1780626361628971800,11.8319716796875,0.455108642578125,0.5804290771484375,0.3927001953125
1780626361639001900,11.842001953125,0.4753265380859375,0.5428619384765625,0.377685546875
1780626361649032000,11.852031982421876,0.482696533203125,0.5102691650390625,0.361724853515625
1780626361659062000,11.86206201171875,0.4711151123046875,0.5023040771484375,0.340362548828125
1780626361669091800,11.872091796875,0.447723388671875,0.5077056884765625,0.329742431640625
1780626361679122000,11.882121826171876,0.419189453125,0.5286865234375,0.34149169921875
1780626361689152000,11.892152099609374,0.3926849365234375,0.557281494140625,0.38330078125
1780626361699182000,11.90218212890625,0.3899383544921875,0.583953857421875,0.452667236328125
1780626361709212200,11.912212158203126,0.40179443359375,0.611907958984375,0.514190673828125
1780626361719242000,11.922241943359374,0.398193359375,0.6214141845703125,0.553436279296875
1780626361729271800,11.932271728515625,0.378509521484375,0.603179931640625,0.5647735595703125
1780626361739302000,11.942302001953125,0.3569488525390625,0.579681396484375,0.548828125
1780626361749332000,11.95233203125,0.34930419921875,0.570037841796875,0.5064849853515625
1780626361759362000,11.962362060546875,0.3714752197265625,0.5787506103515625,0.45037841796875
1780626361769392000,11.97239208984375,0.4222412109375,0.625396728515625,0.3922882080078125
1780626361779422000,11.982421875,0.4895172119140625,0.7066192626953125,0.3600311279296875
1780626361789452000,11.9924521484375,0.538604736328125,0.7799072265625,0.3762359619140625
1780626361799482000,12.002482177734375,0.5620269775390625,0.7989654541015625,0.443603515625
1780626361809512000,12.012511962890626,0.5670318603515625,0.7246856689453125,0.5154571533203125
1780626361819542000,12.0225419921875,0.56842041015625,0.619537353515625,0.5433197021484375
1780626361829571800,12.03257177734375,0.52056884765625,0.5793304443359375,0.5291748046875
1780626361839602000,12.042601806640626,0.4931793212890625,0.6533050537109375,0.5113525390625
1780626361849632000,12.052632080078125,0.4983673095703125,0.768646240234375,0.5084381103515625
1780626361859662000,12.062662109375,0.5693817138671875,0.869354248046875,0.53228759765625
1780626361869692200,12.072692138671876,0.7050628662109375,0.9703826904296875,0.569091796875
1780626361879722000,12.082721923828124,0.81512451171875,1.0575408935546875,0.595703125
1780626361889751800,12.092751708984375,0.863128662109375,1.0577392578125,0.5732574462890625
1780626361899782000,12.102781982421876,0.87322998046875,0.990753173828125,0.5073089599609375
1780626361909812000,12.11281201171875,0.831573486328125,0.8753204345703125,0.4133148193359375
1780626361919842000,12.122842041015625,0.7403106689453125,0.756866455078125,0.34130859375
1780626361929872100,12.1328720703125,0.648040771484375,0.6316070556640625,0.33636474609375
1780626361939902000,12.14290185546875,0.601898193359375,0.5641632080078125,0.3804168701171875
1780626361949932000,12.15293212890625,0.5328826904296875,0.531829833984375,0.4688568115234375
1780626361959961900,12.1629619140625,0.4678192138671875,0.531646728515625,0.5576019287109375
1780626361969992000,12.172991943359374,0.4671173095703125,0.59765625,0.6082305908203125
1780626361980022000,12.18302197265625,0.50457763671875,0.732757568359375,0.6583251953125
1780626361990052000,12.193052001953125,0.5478668212890625,0.855865478515625,0.698638916015625
1780626362000082000,12.20308203125,0.509246826171875,0.8750457763671875,0.71929931640625
1780626362010112000,12.213112060546875,0.5284423828125,0.8996124267578125,0.70654296875
1780626362020142000,12.22314208984375,0.552490234375,0.9247894287109375,0.6547698974609375
1780626362030172200,12.233172119140624,0.5957183837890625,0.9493255615234375,0.5785369873046875
1780626362040202000,12.243201904296875,0.663543701171875,0.9699554443359375,0.521575927734375
1780626362050231800,12.253231689453125,0.6894683837890625,0.92364501953125,0.5009002685546875
1780626362060263000,12.263262939453124,0.6665496826171875,0.8197174072265625,0.512542724609375
1780626362070293000,12.27329296875,0.622772216796875,0.7554168701171875,0.5189208984375
1780626362080323000,12.283322998046875,0.5637054443359375,0.7618408203125,0.48876953125
1780626362090353000,12.293352783203124,0.544891357421875,0.7545623779296875,0.4902801513671875
1780626362100383000,12.303383056640625,0.50042724609375,0.7283172607421875,0.516357421875
1780626362110413000,12.3134130859375,0.442718505859375,0.7144012451171875,0.5146026611328125
1780626362120443100,12.323443115234374,0.4096832275390625,0.71893310546875,0.514129638671875
1780626362130473000,12.333472900390625,0.3814544677734375,0.749053955078125,0.489990234375
1780626362140503000,12.3435029296875,0.3644256591796875,0.78759765625,0.444854736328125
1780626362150532900,12.353532958984376,0.3112030029296875,0.784881591796875,0.402862548828125
1780626362160563000,12.36356298828125,0.3363800048828125,0.7761383056640625,0.375152587890625
1780626362170593000,12.373593017578125,0.3594970703125,0.7360992431640625,0.339752197265625
1780626362180623000,12.383623046875,0.3641510009765625,0.6917266845703125,0.32037353515625
1780626362190653200,12.393653076171875,0.3100433349609375,0.6041412353515625,0.329071044921875
1780626362200682800,12.403682861328125,0.2815399169921875,0.5536346435546875,0.36322021484375
1780626362210712800,12.413712890625,0.2923431396484375,0.5344390869140625,0.4054718017578125
1780626362220743000,12.423742919921875,0.26568603515625,0.53179931640625,0.4538421630859375
1780626362230773000,12.43377294921875,0.26983642578125,0.5635223388671875,0.4945220947265625
1780626362240803000,12.443802978515626,0.296875,0.6198883056640625,0.51580810546875
1780626362250833200,12.453833251953125,0.3304443359375,0.6963958740234375,0.503143310546875
1780626362260863000,12.463863037109375,0.3352508544921875,0.771209716796875,0.448028564453125
1780626362270893000,12.47389306640625,0.338348388671875,0.8110198974609375,0.390411376953125
1780626362280923000,12.4839228515625,0.3514862060546875,0.820770263671875,0.3476104736328125
1780626362290953000,12.493952880859375,0.3544464111328125,0.8011322021484375,0.3330841064453125
1780626362300983000,12.503983154296876,0.313720703125,0.7569122314453125,0.339996337890625
1780626362311012900,12.514012939453124,0.294586181640625,0.7270050048828125,0.3963470458984375
1780626362321043000,12.52404296875,0.2990570068359375,0.7203216552734375,0.4918365478515625
1780626362331073000,12.534072998046875,0.2893829345703125,0.72607421875,0.5730438232421875
1780626362341103000,12.54410302734375,0.3106536865234375,0.74993896484375,0.635955810546875
1780626362351133200,12.55413330078125,0.31658935546875,0.778900146484375,0.6545562744140625
1780626362361163000,12.5641630859375,0.3292388916015625,0.798065185546875,0.62744140625
1780626362371192800,12.57419287109375,0.346405029296875,0.813385009765625,0.581207275390625
1780626362381223000,12.584222900390625,0.3768768310546875,0.8252105712890625,0.555755615234375
1780626362391253000,12.5942529296875,0.3933868408203125,0.8118743896484375,0.531036376953125
1780626362401283000,12.604282958984374,0.3878631591796875,0.7943267822265625,0.5048370361328125
1780626362411313200,12.614313232421875,0.4300994873046875,0.8182830810546875,0.5023345947265625
1780626362421343000,12.624343017578125,0.4088592529296875,0.735992431640625,0.5316162109375
1780626362431372800,12.634372802734376,0.411285400390625,0.6797637939453125,0.516357421875
1780626362441403000,12.64440283203125,0.4205322265625,0.67559814453125,0.48028564453125
1780626362451433000,12.654432861328125,0.431854248046875,0.7211456298828125,0.4771575927734375
1780626362461463000,12.664463134765626,0.49884033203125,0.80767822265625,0.490234375
1780626362471493000,12.6744931640625,0.4828338623046875,0.82666015625,0.4766693115234375
1780626362481523000,12.68452294921875,0.407958984375,0.8003082275390625,0.4246826171875
1780626362491553000,12.694552978515626,0.432464599609375,0.8163909912109375,0.3563079833984375
1780626362501583000,12.7045830078125,0.5205078125,0.83074951171875,0.3130340576171875
1780626362511613000,12.714613037109375,0.5301055908203125,0.7872314453125,0.3402557373046875
1780626362521643000,12.72464306640625,0.500152587890625,0.7220611572265625,0.4028167724609375
1780626362531672800,12.7346728515625,0.4637298583984375,0.657073974609375,0.4520416259765625
1780626362541703000,12.744702880859375,0.4002838134765625,0.58746337890625,0.4763641357421875
1780626362551733000,12.75473291015625,0.4037628173828125,0.55645751953125,0.5095367431640625
1780626362561763000,12.76476318359375,0.475006103515625,0.575408935546875,0.5312957763671875
1780626362571793200,12.774793212890625,0.5241241455078125,0.6459808349609375,0.49481201171875
1780626362581823200,12.7848232421875,0.534332275390625,0.7269134521484375,0.458526611328125
1780626362591852800,12.794852783203124,0.4864501953125,0.7231597900390625,0.4579925537109375
1780626362601883000,12.8048828125,0.517059326171875,0.7113037109375,0.4501495361328125
1780626362611913000,12.814912841796875,0.53857421875,0.683624267578125,0.4288787841796875
1780626362621943000,12.824943115234374,0.50439453125,0.6511077880859375,0.3779754638671875
1780626362631973000,12.83497314453125,0.48016357421875,0.5800018310546875,0.3323822021484375
1780626362642003000,12.8450029296875,0.5222625732421875,0.5359344482421875,0.3059539794921875
1780626362652033000,12.855032958984374,0.6261444091796875,0.5424346923828125,0.305419921875
1780626362662062800,12.865062744140625,0.665008544921875,0.5477447509765625,0.2495880126953125
1780626362672092700,12.8750927734375,0.635955810546875,0.5710906982421875,0.2182769775390625
1780626362682122800,12.885122802734376,0.6081695556640625,0.621734619140625,0.2511138916015625
1780626362692152800,12.89515283203125,0.5835418701171875,0.7090301513671875,0.2901611328125
1780626362702182700,12.9051826171875,0.5819854736328125,0.7594757080078125,0.347808837890625
1780626362712212500,12.91521240234375,0.661468505859375,0.7729339599609375,0.4110260009765625
1780626362722242600,12.92524267578125,0.725494384765625,0.7635650634765625,0.4371337890625
1780626362732272600,12.935272705078125,0.7468719482421875,0.7191619873046875,0.460968017578125
1780626362742302700,12.945302734375,0.73388671875,0.651611328125,0.452728271484375
1780626362752332800,12.955332763671874,0.65191650390625,0.5930023193359375,0.3849945068359375
1780626362762362600,12.965362548828125,0.6189727783203125,0.58050537109375,0.3083038330078125
1780626362772392700,12.975392822265626,0.6451568603515625,0.5954132080078125,0.2321319580078125
1780626362782422800,12.9854228515625,0.689849853515625,0.6154327392578125,0.2007598876953125
1780626362792452600,12.99545263671875,0.7472991943359375,0.631072998046875,0.2185211181640625
1780626362802482700,13.005482666015626,0.7875823974609375,0.6439666748046875,0.25738525390625
1780626362812512500,13.015512451171874,0.776824951171875,0.6356353759765625,0.301055908203125
1780626362822542600,13.02554248046875,0.7491455078125,0.604766845703125,0.32989501953125
1780626362832572700,13.03557275390625,0.7499542236328125,0.578948974609375,0.33489990234375
1780626362842602800,13.045602783203124,0.748992919921875,0.5475311279296875,0.3126373291015625
1780626362852632800,13.0556328125,0.743011474609375,0.5385894775390625,0.290374755859375
1780626362862662700,13.06566259765625,0.7789154052734375,0.51580810546875,0.2681121826171875
1780626362872692500,13.0756923828125,0.79815673828125,0.4841461181640625,0.2330322265625
1780626362882722600,13.08572265625,0.7876129150390625,0.4380035400390625,0.165618896484375
1780626362892752600,13.095752685546875,0.762420654296875,0.398651123046875,0.09490966796875
1780626362902782700,13.10578271484375,0.7412567138671875,0.3939208984375,0.0583953857421875
1780626362912812800,13.115812744140625,0.73712158203125,0.42901611328125,0.0667266845703125
1780626362922842600,13.125842529296875,0.7322540283203125,0.46966552734375,0.1075897216796875
1780626362932873700,13.135873779296874,0.7266693115234375,0.490570068359375,0.1408233642578125
1780626362942902500,13.145902587890625,0.7593536376953125,0.5110626220703125,0.1561431884765625
