time,seconds_elapsed,z,y,x
1780626349866288400,0.069288330078125,1.6776713469028472,-0.5720581294327974,0.5453676178406923
1780626349876318500,0.079318359375,0.41410979344546794,-0.1645765219554305,0.733146078620106
1780626349886348500,0.0893486328125,-0.6063736560106278,0.10162556026279926,0.7252443655848503
1780626349896378600,0.099378662109375,-0.48918987661004065,-0.12800181827396154,0.5207809101274237
1780626349906408400,0.109408447265625,0.16890227620005607,-0.592723024059832,0.4732090116133913
1780626349916438500,0.1194384765625,0.8094616949290037,-1.225031039533019,0.6719244249381124
1780626349926468600,0.129468505859375,1.0945540633171795,-1.5623533613741396,0.8269536586083471
1780626349936498400,0.13949853515625,1.5608154842823743,-1.3851184333756565,0.8185321594826876
1780626349946528500,0.149528564453125,1.8545219517588614,-1.0801046822041271,0.7339571027420461
1780626349956558600,0.15955859375,1.5813853941023348,-0.7131570374280214,0.5932006515089422
1780626349966588400,0.16958837890625,0.8817121076256036,-0.1380395204246044,0.3234847890160978
1780626349976618500,0.179618408203125,0.04098901299238205,0.4101470272943377,0.062371207309607414
1780626349986648600,0.189648681640625,-0.6617313860952854,0.6388543683767318,-0.07854881872106342
1780626349996678700,0.1996787109375,-1.222683015102148,0.6349722662463784,-0.22181644905749706
1780626350006708500,0.20970849609375,-1.6261802291184664,0.5401642770439387,-0.4123037669368088
1780626350016738300,0.21973828125,-1.81657186807096,0.25167028351873155,-0.5772521178793162
1780626350026768400,0.229768310546875,-1.2732464966475963,-0.24628625239282845,-0.639968320968002
1780626350036798500,0.239798583984375,0.4868471128761768,-0.48594227299094195,-0.6658945701893418
1780626350046828500,0.24982861328125,0.4836135377824306,-0.4750198969602585,-0.697476945476234
1780626350056858600,0.259858642578125,0.47945992523431774,-0.4616910443097353,-0.7265289255026728
1780626350066888400,0.269888427734375,1.2259481543779371,0.08176964393109083,-0.5405408918039873
1780626350076918500,0.27991845703125,1.6635042898625134,0.40503830597847695,-0.3843295722097158
1780626350086948400,0.2899482421875,1.6632704811066388,0.5401143004223704,-0.24033801151290535
1780626350096978400,0.299978515625,1.413398479181528,0.9242644244119524,-0.2778784001550637
1780626350107008500,0.310008544921875,1.0703443356901408,1.3284507897362112,-0.3227998024266213
1780626350117038600,0.32003857421875,0.7304805126726627,1.353539053763449,-0.374453380763717
1780626350127068400,0.330068359375,0.7636842786163092,0.8271762153178452,-0.22903697489555924
1780626350137098500,0.340098388671875,0.8864356290161609,0.19326047238707542,-0.021313713924586773
1780626350147128600,0.350128662109375,0.9499597144216299,-0.40007483835220337,0.06660531948171555
1780626350157158700,0.36015869140625,1.1172621542096137,-0.7616495579183101,0.06008139760568738
1780626350167188500,0.3701884765625,1.008248237261176,-0.8800941510349511,-0.17417722092829643
1780626350177218600,0.380218505859375,0.725423813804984,-0.873441999669373,-0.4595514019325375
1780626350187248400,0.390248291015625,0.3691431089937687,-0.8904217760428785,-0.6667955376170576
1780626350197278500,0.400278564453125,0.044590836876630784,-1.0122110034123062,-0.6576502542614936
1780626350207308500,0.41030859375,-0.7490823372900486,-0.9767287711426615,-0.6589419015072285
1780626350217338600,0.420338623046875,-0.5930184998750686,-0.030204876388609407,-0.762379041236639
1780626350227368700,0.43036865234375,1.0108698179364204,0.5334080807819962,-0.26813538836836814
1780626350237398300,0.440398193359375,0.9955898312181234,0.38313130233585835,0.45487508068457244
1780626350247428400,0.450428466796875,0.38642742127180096,0.6213409235179423,0.7148344691209495
1780626350257458400,0.46045849609375,-0.05429623833298683,1.2418927424848079,0.5349028493843972
1780626350267488500,0.470488525390625,-0.2332937920898199,1.860517100520432,0.36392201334461566
1780626350277518600,0.4805185546875,-0.6041209086477756,2.1324334687322377,0.38754984943047166
1780626350287548400,0.49054833984375,-0.9926911871671676,1.9054677106201647,0.09975041404068469
1780626350297577500,0.500577392578125,-0.6621902357786893,0.9771937583059072,-0.5684586436361074
1780626350307607300,0.510607177734375,0.2117570830643177,-0.36421588172465563,-1.0524851461336016
1780626350317638400,0.520638427734375,0.2994739449620247,-1.2303230084612964,-1.4029714854523538
1780626350327667500,0.53066748046875,0.16588029803037643,-1.241463703417778,-1.54800130315572
1780626350337697500,0.540697509765625,0.21937048067748546,-0.8099024244338273,-1.4521157478496431
1780626350347727600,0.5507275390625,0.13070552427470683,0.09514467381089925,-1.1938488425448537
1780626350357757700,0.5607578125,-0.039406712237000464,0.6514867631956934,-0.9381719537332653
1780626350367787500,0.57078759765625,-0.04708382273614406,0.5724632031023502,-0.48673926858752964
1780626350377817300,0.5808173828125,0.037279637080430986,0.5737991278812289,-0.17406623483449218
1780626350387847400,0.590847412109375,-0.009890694895386696,0.747313281790912,-0.09629705871641635
1780626350397877500,0.60087744140625,0.15367548097372055,1.1597580646336079,0.029572423703968523
1780626350407907600,0.610907470703125,0.5010545019268989,1.6765104864299296,0.1298728728428483
1780626350417937400,0.6209375,0.8413771746277808,2.499413846734166,-0.10137100097984075
1780626350427967500,0.630967529296875,0.8005991740375756,3.3163267344519496,-0.4180146919295192
1780626350437997600,0.64099755859375,0.33243162719011304,3.516517006102204,-0.9274445157527923
1780626350448027600,0.651027587890625,-0.09451368243098258,2.912622307425737,-1.4219219773769378
1780626350458057500,0.661057373046875,-0.1501174962311983,2.2127903232559563,-1.381715639194846
1780626350468087600,0.671087646484375,0.080879709354043,1.8648337946757674,-1.0515963806003332
1780626350478117400,0.681117431640625,0.3825058639138937,1.719643817974627,-0.7006742802128195
1780626350488147500,0.6911474609375,0.7024930200725793,1.7397107467085122,-0.34875060156732796
1780626350498177500,0.701177490234375,1.1193372069180012,1.8723136290371416,0.14952479103505611
1780626350508207600,0.71120751953125,1.742849629256129,1.8634125297009945,0.5523129799991846
1780626350518237700,0.72123779296875,1.700790356683731,1.4418950903475283,0.682692925581336
1780626350528267300,0.731267333984375,0.8960060059159993,0.8496730015471577,0.2305544302538037
1780626350538297300,0.74129736328125,0.3919903160959482,0.6852189369276166,-0.4127414277017116
1780626350548327400,0.751327392578125,-0.15658639998435972,0.9312915465697645,-0.7332862177431583
1780626350558357500,0.761357421875,-0.529053684964776,1.2722097009457647,-0.7975193282008171
1780626350568387600,0.7713876953125,-0.26965806789100166,2.0191367598980663,-0.8186658688649535
1780626350578417700,0.781417724609375,0.2661106045424938,3.347439957857132,-0.8121358825743198
1780626350588447500,0.791447509765625,1.0406962164014577,4.864630819946528,-0.954892494648695
1780626350598477600,0.8014775390625,1.723908781942725,5.758899626806378,-1.2554448824971913
1780626350608507400,0.81150732421875,2.146284299430251,6.005400106471777,-1.594106343987584
1780626350618537500,0.821537353515625,2.566547939330339,6.147654029721021,-1.8523738338142632
1780626350628567600,0.831567626953125,3.1085370937138794,6.249862942829727,-1.7085732656449077
1780626350638597400,0.841597412109375,3.9515474225014446,6.944867068451643,-1.5145552528887987
1780626350648627500,0.85162744140625,4.659304646712541,7.643361374276876,-1.4475363111048936
1780626350658657500,0.861657470703125,4.47814027031064,7.577456531214714,-1.1176192970842123
1780626350668688100,0.871688232421875,4.23455246322155,7.282762806266546,-0.1813479162752628
1780626350678718200,0.88171826171875,4.338956840547919,7.471402633115649,0.5418523762613534
1780626350688747800,0.891747802734375,3.8442034845918416,8.478306470030546,0.896534413704276
1780626350698777900,0.90177783203125,2.6815058593749996,9.84450714470744,1.5513164190530777
1780626350708808000,0.911807861328125,1.7294371899753809,10.693830309903621,2.2660002276569604
1780626350718838000,0.921838134765625,1.052256890335679,11.130029770082235,2.5761077948361635
1780626350728868000,0.9318681640625,0.44391865625381466,10.770844576001167,3.263247178432345
1780626350738898000,0.94189794921875,0.2165016472429037,10.224560939294099,3.3281261855781077
1780626350748928000,0.951927978515625,-0.19440613529086112,9.713181442707777,2.6594027486383913
1780626350758958000,0.9619580078125,-0.9667945293664931,9.2030405480057,1.704687948644161
1780626350768988000,0.97198779296875,-2.2527920787766575,8.308855912297963,0.7977548905223607
1780626350779018000,0.98201806640625,-4.127700985004007,7.591361137926578,-0.5565910957098007
1780626350789048000,0.992048095703125,-6.067739366006851,7.2985296997189515,-2.5012802251279354
1780626350799078000,1.002077880859375,-7.500417715197801,6.429463723176718,-5.124629663610458
1780626350809108000,1.01210791015625,-9.436839951530098,4.527634076797962,-9.016198125967383
1780626350819138000,1.022137939453125,-11.670662249159813,1.6618430786520242,-14.770660062587261
1780626350829168000,1.032168212890625,-12.831831349635124,-1.8631214377999306,-21.11932766304016
1780626350839198200,1.0421982421875,-11.38955164388418,-4.850606386247277,-26.14622994287014
1780626350849228000,1.05222802734375,-7.850534636682272,-7.093675235649943,-28.73226467295885
1780626350859257900,1.0622578125,-3.4960847511872646,-9.36352337090671,-28.57548888788223
1780626350869288000,1.072287841796875,1.1697510508596896,-10.815424891483783,-27.666791158175467
1780626350879318000,1.082318115234375,4.5296004084348676,-10.672380694639681,-26.24954769400358
1780626350889348000,1.09234814453125,7.427088859614729,-10.002001891708373,-23.954385084748267
1780626350899378200,1.102378173828125,9.20306042174995,-9.12055281893313,-21.501775659286974
1780626350909408000,1.112407958984375,10.270566319143771,-7.630900536632537,-19.32195090930462
1780626350919437800,1.122437744140625,10.619709427160023,-5.248282346764206,-16.81394283722639
1780626350929468000,1.132468017578125,11.279177544498443,-2.184882033371925,-13.427915082299709
1780626350939498000,1.142498046875,12.94903500277996,-0.44921471683532,-10.206769262015818
1780626350949528000,1.152528076171875,15.048499683368204,-0.5524962276116013,-7.930430011174082
1780626350959558000,1.162557861328125,16.083184092134235,0.761162943445146,-5.479361385414004
1780626350969588000,1.172587890625,16.106121900129317,2.3451243255153296,-2.674602655857801
1780626350979618000,1.1826181640625,14.127518810671567,2.8290421069413423,-1.3729758679002522
1780626350989648100,1.192648193359375,11.435459993100165,3.807894446109235,-1.288336513751745
1780626350999678000,1.202677978515625,8.78138223887682,5.231290295431018,0.0790758748024702
1780626351009708000,1.2127080078125,7.301121469777822,9.244786516845226,4.732988891604543
1780626351019737900,1.22273779296875,6.636203854861855,13.002979358935356,11.261529659605026
1780626351029768000,1.232767822265625,5.476244130176306,12.358377971339225,13.12607966890335
1780626351039798000,1.242798095703125,3.6973008587539193,10.289972445881366,12.585181816887856
1780626351049828000,1.252828125,0.9972744233042001,7.204177345329523,10.66814875615835
1780626351059858200,1.262858154296875,-1.0474661489278076,4.609402843946218,7.9486869678765535
1780626351069888000,1.272887939453125,-3.0268799702465534,3.1480244699716566,5.114122298121452
1780626351079917800,1.282917724609375,-5.222417837667465,2.279175351050496,3.0911312008827925
1780626351089948000,1.292947998046875,-6.134813252848386,1.3202622225835918,2.0726678590774537
1780626351099978000,1.30297802734375,-4.716495729704201,0.31394173851460216,1.5641162793934344
1780626351110008000,1.313008056640625,-2.3596219296842813,-1.1880541847914456,0.6958686334967613
1780626351120038100,1.3230380859375,0.08963146334737539,-2.849084485755861,-0.5584036980897188
1780626351130068000,1.33306787109375,1.0432339181855321,-4.3321050749570125,-0.7051753910243511
1780626351140098000,1.34309814453125,2.012503020972013,-4.804309329974651,-1.4138830478280782
1780626351150127900,1.3531279296875,1.8542738222166895,-4.354747991658747,-2.8892086986124514
1780626351160158000,1.363157958984375,-0.5393021072566508,-5.8740241355895995,-5.07932454098463
1780626351170188000,1.37318798828125,0.6352110434383154,-7.2317206012934445,-7.148559503003955
1780626351180217900,1.3832177734375,-1.176393557614088,-4.832506373672187,-4.179100040590763
1780626351190248000,1.393248046875,4.490279036393761,-6.587734715247154,-5.24689586084187
1780626351200278000,1.403278076171875,5.104304668462277,0.31614567829966544,-0.8215057684659958
1780626351210308000,1.41330810546875,3.2170120814800263,-2.0669494814306497,0.78445877109766
1780626351220338200,1.423338134765625,1.1870815403670072,1.3995876882329583,0.8110515944689511
1780626351230368000,1.433367919921875,-1.0182871084555982,3.908386910688877,4.290170890069008
1780626351240397800,1.443397705078125,5.0117701771497725,1.7448504476845264,4.328108698797226
1780626351250428000,1.453427978515625,6.600422347384691,-0.037710429713129996,2.757705886480212
1780626351260458000,1.4634580078125,4.888192897319794,-1.269030340257287,2.98910056695044
1780626351270488000,1.473488037109375,2.76667157548517,-0.13242168054282666,3.148371091452241
1780626351280518100,1.48351806640625,0.36112697579860686,2.114142025238275,2.051322288709879
1780626351290548000,1.4935478515625,-1.2829209184437989,1.6995178525298833,1.3546727339684963
1780626351300577800,1.503577880859375,-2.714763985854387,2.2860224404662848,1.3092127130419016
1780626351310608000,1.51360791015625,-3.720160340815782,2.243204458481073,1.3517811041802168
1780626351320638000,1.523637939453125,-2.9633325039654967,1.7523942871928213,2.7233810075521467
1780626351330668000,1.53366796875,-0.2883440636605024,4.249645402935147,3.1362656431168316
1780626351340698000,1.543697998046875,3.584078384199738,6.1664253656864165,2.484350717636943
1780626351350728000,1.55372802734375,4.924165543454885,2.6134558209776877,2.117427038258314
1780626351360758000,1.563758056640625,2.548291567149758,2.2142624416351318,2.236418159341812
1780626351370788000,1.5737880859375,1.879836425757408,0.40983576938807964,2.5179683250784874
1780626351380818000,1.58381787109375,3.392708840125799,-2.3032740195184944,2.9738685110270975
1780626351390848000,1.593847900390625,1.487591842639446,-1.1529910547167062,1.0221884998083115
1780626351400878000,1.603878173828125,-2.2813795830965042,-2.802633407965302,-2.344693240621686
1780626351410908000,1.613907958984375,-5.772841058397293,-0.26035364845097064,-6.067364102953672
1780626351420938000,1.62393798828125,-8.865056547385453,-0.19398995570540428,-4.7088592434763905
1780626351430968000,1.633968017578125,-9.928613999414443,-3.223220288470387,-1.2054846275418996
1780626351440998100,1.643998046875,-5.713570538783073,-4.241577831813693,-1.4452783030450342
1780626351451028200,1.6540283203125,-3.0787153714239595,-5.799376598623395,0.2562470899149775
1780626351461057800,1.664057861328125,1.4412100306928157,-4.872559859380126,0.532030362688005
1780626351471087900,1.674087890625,3.507596617543697,-3.3099557381153106,0.43661943915635343
1780626351481118000,1.684117919921875,4.688882623374462,1.0250456428050994,-0.22641017005592584
1780626351491148000,1.69414794921875,4.680501748520135,5.626064689287543,-0.6270517023801804
1780626351501178000,1.70417822265625,2.7396190256476403,7.153860532021522,-0.9405337144285439
1780626351511208000,1.7142080078125,1.164595567792654,7.32076315883696,-1.5401511741772294
1780626351521238000,1.724238037109375,0.2382686213603243,5.023105225634574,-2.0402815469965336
1780626351531267800,1.734267822265625,-0.45209787105619903,2.2958605283915996,-1.7550965318888425
1780626351541298000,1.7442978515625,-1.0266413144987077,-0.4257867872357368,-0.9118782594390213
1780626351551328000,1.754327880859375,-0.565754572309181,-1.7527765645086764,-0.2763609265305102
1780626351561358000,1.764358154296875,0.7223162031784653,-3.480840128043294,0.5205957993514836
1780626351571388000,1.774387939453125,1.5536714577466249,-3.791518188586831,0.7366442959994077
1780626351581418000,1.78441796875,1.4993373716212808,-1.9673843608289956,1.0907650462977587
1780626351591448000,1.794447998046875,1.2823758517816661,-1.85465522274971,1.8201469500787555
1780626351601478100,1.80447802734375,1.0402965495593846,-1.7159423331081867,2.168991367409378
1780626351611508000,1.814508056640625,0.11473726303130388,-1.394067755767703,2.169619874571264
1780626351621538000,1.8245380859375,-0.5950958906710148,-1.229725334829092,1.5550770867608488
1780626351631568000,1.83456787109375,-1.5045026454299688,-0.2407522914022207,0.15778218564018606
1780626351641598000,1.844597900390625,-2.271594540532678,0.6904635595828295,-1.1489271662786602
1780626351651628000,1.8546279296875,-2.5075176582127807,1.9137334346622228,-1.496708338291943
1780626351661658000,1.864658203125,-2.3475346015274523,2.8882962599426505,-1.8139182848222553
1780626351671688200,1.874688232421875,-1.9487270066320894,2.6627742708981037,-1.9993129922702908
1780626351681718000,1.884718017578125,-1.873370444613695,2.5038129584759474,-2.436155280397087
1780626351691747800,1.894747802734375,-1.8328174849510193,2.209312125751376,-2.835058590751886
1780626351701778000,1.90477783203125,-1.7020961785852908,1.9728087239652872,-2.7756182675287127
1780626351711808000,1.91480810546875,-2.485851769849658,0.9765390937894582,-2.3387743719667196
1780626351721838000,1.924838134765625,-5.407411416968703,-0.2573264095842838,-2.6018279270261524
1780626351731868000,1.934867919921875,-4.614997302952409,-0.9492086037933826,-3.137178081786632
1780626351741898000,1.94489794921875,-0.17802622450664637,-0.914945684185624,-3.9733866216048597
1780626351751928000,1.954927978515625,4.875908000764251,0.15252105024158955,-3.886071910767257
1780626351761958000,1.9649580078125,6.341011532741785,0.5832055463910103,-2.898413164809346
1780626351771988000,1.974988037109375,6.441696012762189,1.1710001741379499,-2.760253232875466
1780626351782018000,1.98501806640625,4.591487832549214,1.2631944737106562,-3.051882894077897
1780626351792047900,1.9950478515625,0.8604238934684544,1.275320964834094,-3.004877105014026
1780626351802078000,2.005077880859375,-0.26436639122366906,1.0272662414640188,-2.63228794721961
1780626351812107000,2.01510693359375,0.8257681751508266,0.6664999156713486,-2.1241686214730144
1780626351822136800,2.02513671875,0.3706926765233278,0.7012637705385685,-1.8376523577615618
1780626351832167000,2.0351669921875,0.7887813835371286,0.8156424293905497,-1.4287923015378414
1780626351842197000,2.045197021484375,1.2358043624818325,1.12461719314754,-1.0246016984298825
1780626351852227800,2.055227783203125,1.443753285434842,1.0182926614135503,-0.741185154299438
1780626351862257000,2.0652568359375,0.7518763519227504,0.7284627431094646,-0.4992085817992687
1780626351872287000,2.075286865234375,-0.3680132281810045,0.05275193150043487,-0.1305319212734699
1780626351882317000,2.085317138671875,-0.8121119171768426,-0.509555203768611,0.33121801361665126
1780626351892347100,2.09534716796875,-1.1918073998451233,-0.9006266514539718,0.6724062171056866
1780626351902377000,2.105376953125,-1.4286387184113263,-0.7971867352455854,0.8986680647321045
1780626351912407000,2.115406982421875,-1.512514102450013,-1.1868477316111326,1.0914021751575171
1780626351922436900,2.125436767578125,-2.0107237363398074,-1.2159750418961048,0.9562516541726886
1780626351932467000,2.135467041015625,-3.3914766679823396,-1.834201632785797,0.6937032721564174
1780626351942497000,2.1454970703125,-4.514954627966881,-2.6228163545191285,0.609031623173505
1780626351952527000,2.155527099609375,-5.242628266525268,-2.6739099974185225,0.46536271855980155
1780626351962557200,2.16555712890625,-6.146831022900343,-1.9570020830243824,0.35643647989481686
1780626351972587000,2.1755869140625,-6.348989672014117,-0.5537994191646576,0.22818770112246273
1780626351982616800,2.185616943359375,-3.92606109906733,1.332076871278882,0.10480448255985975
1780626351992647000,2.19564697265625,-0.31370182881150394,2.525231009557843,0.14376315876841544
1780626352002677000,2.205677001953125,1.8306360492587088,2.7775334535002707,0.2577566176950931
1780626352012707000,2.21570703125,4.116816895157099,3.3440596677690744,0.3020838351994753
1780626352022737200,2.225737060546875,5.946314295774698,3.2785634055078026,0.09012523821368813
1780626352032767000,2.23576708984375,6.346164093199372,2.7450328673899174,-0.24420243185609578
1780626352042797000,2.245797119140625,4.144003008246422,2.0613164439797402,-0.1715354011826217
1780626352052827000,2.255826904296875,1.3037012561440466,1.4367033669233322,0.08292042140141129
1780626352062857000,2.26585693359375,0.3690799440970644,1.1135381652504206,0.3979029011406004
1780626352072887000,2.275886962890625,0.4512017259340733,0.950196445786953,0.6607131489634513
1780626352082916900,2.285916748046875,0.8546971863847226,1.1495184101700782,0.8672318929828703
1780626352092947000,2.295947021484375,1.1133400123298167,1.027603510594368,0.928154855979234
1780626352102977000,2.30597705078125,0.32389987262301145,0.6456120259433984,0.8682540756374597
1780626352113007000,2.316007080078125,-0.9395194228194653,0.20745909360945222,0.7797326193585992
1780626352123037200,2.326037109375,-1.0179752660274506,-0.31235797645449637,0.5500554103307426
1780626352133067000,2.33606689453125,-0.05930325284004211,-0.562450343132019,0.04360153357833624
1780626352143096800,2.346096923828125,0.2446807168923318,-0.47420039727091784,0.011251461854577064
1780626352153127000,2.356126953125,0.27390345037579533,-0.7397773333281278,0.42866906467378135
1780626352163157000,2.366156982421875,0.3906685659728944,-1.0422592279344796,1.0414235077627003
1780626352173187000,2.37618701171875,0.4944973353683948,-1.1599696615576744,1.5063045802854
1780626352183217200,2.386217041015625,0.5893194992266595,-0.9877285963237286,1.7686343511149287
1780626352193247000,2.3962470703125,0.7072387532949447,-0.29902210954129693,1.7403547437004745
1780626352203277000,2.406277099609375,0.7311142805315554,0.413171635812521,1.5038199238628147
1780626352213307000,2.416306884765625,0.6026596039235591,0.763867233967781,1.286622987832129
1780626352223337000,2.4263369140625,0.3466227957583964,0.935682767266035,1.2735099698893726
1780626352233367000,2.436366943359375,0.07903437374830245,0.3891010243952274,1.295085549620539
1780626352243397000,2.446397216796875,-0.05295987516269088,-0.46904140707254405,1.4641542684286832
1780626352253427000,2.456427001953125,-0.043859015470743175,-1.1501350807636976,1.7242314380258321
1780626352263457000,2.46645703125,0.06734028269276023,-1.6989835995227098,1.883286566211283
1780626352273487000,2.476487060546875,0.5082241012953221,-2.126321123331785,1.8421851788856087
1780626352283517000,2.486516845703125,0.8415760582007468,-2.0920810000777244,1.6187332741133869
1780626352293547000,2.496547119140625,1.1329540827296674,-1.6243986063987015,1.2839087604373693
1780626352303576800,2.506576904296875,1.4163082291483877,-0.9917793330192566,0.9661315354131161
1780626352313607000,2.51660693359375,1.6955726220354437,-0.4472428322404623,0.5616178378306329
1780626352323637000,2.526636962890625,1.8722037389218806,-0.17048457695543764,0.11069646320790051
1780626352333667000,2.5366669921875,1.5830582957506178,-0.36337329342067237,-0.1762378797851503
1780626352343697200,2.546697265625,0.9581330840051173,-0.9267851750612258,-0.23572905641272662
1780626352353727000,2.55672705078125,0.31488544910550115,-1.520099443012476,-0.2250010339103639
1780626352363756800,2.5667568359375,-0.20095869873948394,-1.7524428025096654,-0.17367328999415038
1780626352373787000,2.576786865234375,-0.4196259265184402,-1.4899135635852814,-0.20184169211909173
1780626352383817000,2.58681689453125,-0.4125298307776451,-0.9878361483514309,-0.4103492718681693
1780626352393847000,2.596846923828125,-0.6957740140158682,-0.7468512172371149,-0.7531475409023464
1780626352403877000,2.606877197265625,-1.1554735922474413,-0.5228384637117386,-1.0630360585033893
1780626352413907000,2.616906982421875,-1.4250596908807753,-0.29633213980495926,-1.270370502819866
1780626352423937000,2.62693701171875,-1.6420435686826704,-0.09209726893901825,-1.3852801998086273
1780626352433967000,2.636967041015625,-1.7355284925878047,0.25866613375544545,-1.8313203782610594
1780626352443997000,2.646996826171875,-1.8380875343084335,0.7951865013390779,-2.382448532389849
1780626352454027000,2.657027099609375,-1.7434779902875421,1.5444734212905167,-2.8711627543121576
1780626352464057000,2.66705712890625,-1.2993641037225723,1.6950906837373971,-3.1507085944890973
1780626352474087000,2.6770869140625,-0.6323136414963751,1.4198112688332796,-2.5855352561339733
1780626352484117000,2.687116943359375,-1.7663374723494052,1.0527613327264784,-1.0178352730348705
1780626352494147000,2.69714697265625,-2.4109926359593867,1.152902207389474,-0.04088379905223846
1780626352504177200,2.70717724609375,-0.47228433451652524,1.272210139337182,0.6371256448879837
1780626352514207000,2.71720703125,1.7395576019734142,0.8442991995543241,1.4361943944878874
1780626352524236800,2.72723681640625,4.1597710707426065,-0.16013737046420573,2.163366074873507
1780626352534267000,2.737266845703125,5.580135881805419,-0.3002788316041231,2.7173592630445955
1780626352544297000,2.747296875,5.1116474324405194,0.3836977040469646,2.7964620258539914
1780626352554327000,2.7573271484375,1.901423988187313,0.5478840576410293,2.2952226688794792
1780626352564357000,2.767357177734375,-0.4863876786708832,-0.13857026630043984,1.6493924701407552
1780626352574387200,2.77738720703125,-1.350558868908882,-0.506595184919238,1.2352338691174982
1780626352584417000,2.7874169921875,-1.3363655083835124,-0.46500294533669945,0.9367861253980546
1780626352594446800,2.79744677734375,-1.6641607079446314,-0.2995119388848543,0.6995047980420291
1780626352604477000,2.807476806640625,-1.222839666968584,0.41806642211675643,0.503043849113211
1780626352614507000,2.817507080078125,-0.4884112934529781,1.0988754336476325,0.25223244744613765
1780626352624537000,2.827537109375,-0.8626327286243438,3.092259912651777,-0.12306341202370821
1780626352634567000,2.83756689453125,-0.42513212271928785,4.290273765921593,-0.19554646443240342
1780626352644597000,2.847596923828125,-0.1138415197679773,3.670826108804345,-0.0493834049154073
1780626352654627000,2.857626953125,0.6642553516149521,2.834020479875803,0.24445721033476292
1780626352664657000,2.867656982421875,1.7510101393580435,2.2320897747486828,0.4704633296344429
1780626352674687000,2.87768701171875,1.339553490769863,2.448427755862474,0.5311225636607035
1780626352684717000,2.887717041015625,0.938323637163639,2.686789352735877,1.0077703906163573
1780626352694747000,2.897746826171875,1.0539373907685279,2.9342291590780016,1.5332244436539708
1780626352704777000,2.90777685546875,1.5150129335284233,2.541557290458679,1.6813519351117312
1780626352714807000,2.91780712890625,0.9669440939050167,3.171260384130478,1.4107671077646313
1780626352724837000,2.927837158203125,0.1407715757369995,2.608898303803801,1.513143486394733
1780626352734867200,2.9378671875,-0.3362006243348121,1.611352077820897,1.6455726195916534
1780626352744896800,2.947896728515625,-1.3533902929425239,0.6403226873636245,1.2648857877984643
1780626352754926800,2.9579267578125,-1.888849753296375,-3.0177783799022433,0.6282838745236397
1780626352764957000,2.96795703125,-1.8506570930242536,-5.003104640135168,-0.4235625353150069
1780626352774987000,2.977987060546875,-1.4241723866522311,-7.3628767919451,-1.4531795776888727
1780626352785017000,2.98801708984375,-1.59047704757452,-9.099612906756997,-1.748903522467613
1780626352795047200,2.998047119140625,-1.9146610709011553,-9.61966261653304,-1.5851903393432496
1780626352805077000,3.008076904296875,-1.5066110158860682,-9.095963152077793,-1.2867483677774667
1780626352815107000,3.018107177734375,-0.4694026416003704,-6.942974386572837,-0.9149824359994381
1780626352825137000,3.028136962890625,0.46788401719834655,-5.3857431905180215,-0.5585706521544606
1780626352835167000,3.0381669921875,0.9275614201307296,-5.4650674871236085,-0.17904679972603915
1780626352845197000,3.048197021484375,0.8696329627752304,-5.243559409895539,0.14134159417729825
1780626352855227000,3.058226806640625,0.45925183446407314,-4.620304761710763,0.4424383911008015
1780626352865257000,3.068257080078125,0.3837017957001924,-2.835098338240385,0.4209010610207915
1780626352875287000,3.078287109375,-0.7220265725821257,0.10706336740255355,0.2594180663676001
1780626352885317000,3.088317138671875,-1.9881454093068838,3.5858833877950906,0.10806785000367089
1780626352895347000,3.098346923828125,-1.6039941162735223,7.622007036080956,-0.2836317943163216
1780626352905377000,3.108376953125,-0.549919362860918,10.898466747307777,-0.7767052343614399
1780626352915406800,3.11840673828125,0.7471732887983322,11.694396175968647,-1.4370448738373816
1780626352925437000,3.12843701171875,1.1629133137941359,8.74669437185526,-2.084216842573881
1780626352935467000,3.138467041015625,-0.2645879250198602,5.2900505274355405,-2.15905230332762
1780626352945497000,3.1484970703125,-2.1484674886882305,2.4431699814647434,-1.8598647740915417
1780626352955527200,3.158527099609375,-3.1580116109788414,-0.4831318917453289,-1.472503432970494
1780626352965557000,3.168556884765625,-2.932803510189056,-3.089880908560753,-1.0995803670465945
1780626352975586800,3.1785869140625,-2.552051796466112,-3.5789357606142755,-0.769061660805717
1780626352985617000,3.188616943359375,-2.9222505519926547,-1.7553291716009378,-0.7280675332468003
1780626352995647000,3.19864697265625,-2.171478946441412,-0.8657289410740137,-0.515717598855868
1780626353005677000,3.208677001953125,-0.4754291353482753,-0.11399053631722926,-0.28200857702866194
1780626353015707100,3.21870703125,2.5197978785932063,-0.673399612057209,0.21806217455789445
1780626353025737000,3.228737060546875,3.0708932994961735,-0.9428110117107629,0.6439744148042053
1780626353035767000,3.23876708984375,1.797125409322977,-1.090927689513564,0.705134474492073
1780626353045797000,3.248797119140625,0.511207647150755,-1.5610440323412418,0.6586294014919549
1780626353055827000,3.258826904296875,-0.15080314040780066,-1.4141215327590704,0.4218805735774338
1780626353065857000,3.26885693359375,-0.2412321838736534,-0.818390851315856,0.37386604586243627
1780626353075886800,3.278886962890625,-0.6032159226320684,0.5846095679700374,0.46482115902900695
1780626353085917000,3.2889169921875,-0.5283306313872337,1.7065601722568273,1.1908460074670613
1780626353095947000,3.298947021484375,-0.6713982091069222,3.7250498664230105,1.387071174878627
1780626353105977000,3.30897705078125,0.2221791083574295,3.8526521639853715,1.4383001345954836
1780626353116007200,3.319007080078125,-0.3112462158203125,3.3353666582256554,1.3255030458465218
1780626353126037000,3.329037109375,-0.6360368998032063,3.334654710564017,0.8859245376888663
1780626353136066800,3.33906689453125,-1.025683867643401,3.0649966426730155,0.5708584347868337
1780626353146097000,3.349096923828125,-1.6038906558990478,2.275914887949824,0.19781603506589307
1780626353156127000,3.359126953125,-1.9219699326097963,1.5669412736862898,-0.03526542488092091
1780626353166157000,3.369156982421875,-1.6685960600435732,0.18391572093665598,-0.01607997113970341
1780626353176187100,3.379187255859375,-1.3603051868975162,-1.6865829676330089,0.10646059747012332
1780626353186217000,3.389217041015625,-0.8391899667818099,-2.642798819839954,0.03868376825731248
1780626353196247000,3.3992470703125,0.0077472531259059904,-2.948253592777252,-0.023556752744177355
1780626353206276900,3.40927685546875,0.3442168305952102,-2.9995185005903244,0.0192422322796192
1780626353216307000,3.419306884765625,0.21560440614223478,-2.674673967528343,-0.07865163977472112
1780626353226337000,3.4293369140625,0.2779191157579422,-2.1691092947006223,-0.30657647044360636
1780626353236367000,3.4393671875,0.5188976171314716,-1.5097212568610905,-0.5241526881154627
1780626353246397000,3.44939697265625,0.41873160802721976,-1.0285720633655786,-0.8530173435389995
1780626353256427000,3.459427001953125,0.09069671795871108,-0.8575345287024975,-1.2016628042314201
1780626353266457000,3.46945703125,-0.3443676007101312,-1.1171762294918297,-1.5034379388079047
1780626353276487200,3.479487060546875,-0.3825625625371933,-1.4196587086200714,-1.7253091502599418
1780626353286517000,3.48951708984375,0.2624339983889833,-1.8125182087659835,-1.8576320466034113
1780626353296546800,3.499546875,1.395795017951727,-1.3279729430913925,-2.148826677389443
1780626353306577000,3.509576904296875,1.4819862777173518,-2.1348680024027824,-2.420697745154798
1780626353316607000,3.51960693359375,1.1254010370016096,-1.4937059416055678,-2.399268442026526
1780626353326637000,3.529636962890625,0.13722820404171943,-1.1849608949512243,-2.3473913936644792
1780626353336667100,3.539667236328125,-0.6239654268026351,-0.16168810703754424,-2.2281408909924325
1780626353346697200,3.549697265625,-1.1116402226746083,0.538011482924223,-2.000417300250381
1780626353356726800,3.559726806640625,-1.2417705774098633,-0.02405658289194107,-1.519854820601642
1780626353366756900,3.5697568359375,-0.45707741303443905,0.585205195775628,-1.1199293275922537
1780626353376787000,3.579786865234375,0.3940034460166469,-0.2617547474205494,-0.7331392104879021
1780626353386817000,3.589817138671875,0.42685299169514324,-0.867403011766076,-0.3130490639911964
1780626353396847000,3.59984716796875,0.6007885858872904,-5.595958304837346,-0.25934056241828946
1780626353406877000,3.609876953125,0.5194669779846445,-8.494391927912831,-0.006034667921205982
1780626353416907000,3.619906982421875,-0.8377268354266881,-9.105959060913325,-0.21892377808960153
1780626353426937000,3.62993701171875,-1.1458008509516715,-7.6980387208819385,0.16497589653655886
1780626353436967000,3.639966796875,-0.9313941301614046,-6.675133012714982,0.4189215045761317
1780626353446997000,3.6499970703125,-0.7831623015463351,-6.840591285941004,0.22900729214334858
1780626353457027000,3.660027099609375,-0.5934422417124733,-6.586331278190016,0.4372444391869008
1780626353467057000,3.670056884765625,-0.11778696945812553,-4.181053512746096,0.566296935557574
1780626353477087000,3.6800869140625,-0.22138470657672732,-4.215505232924222,0.8187731286317109
1780626353487117000,3.690116943359375,0.09263674611058086,-2.7250077319711443,1.511669468319416
1780626353497147100,3.700147216796875,0.7893167325228452,-0.36929976086020466,1.88332017621994
1780626353507177200,3.71017724609375,1.0256231504321098,3.1473908482432362,2.762846171978116
1780626353517206800,3.720206787109375,0.7953489984244108,7.94145643210113,3.7365289995536206
1780626353527236900,3.73023681640625,0.6150556327033787,12.568088058745861,4.213710166200995
1780626353537267000,3.740266845703125,1.8107459383964537,14.955504588806628,3.9417897063359617
1780626353547297000,3.750297119140625,3.0886499054610725,13.006189553153513,2.6560563608199357
1780626353557327000,3.7603271484375,0.7745137156665325,8.545044256785511,2.107791194906831
1780626353567357200,3.770357177734375,-2.972379149252176,4.288202804866433,2.5286183139085767
1780626353577387000,3.780386962890625,-5.095225874471664,1.2067255675137043,2.5953523012712596
1780626353587416800,3.790416748046875,-4.5368514024764295,-0.7733814967662096,1.4792720503225922
1780626353597447000,3.800447021484375,-3.0784581817924974,-1.6002894165366888,1.0271764442887157
1780626353607477000,3.81047705078125,-1.703481495463848,-2.2256693863123655,1.2668477355211973
1780626353617507000,3.820507080078125,-0.16878997493200004,-2.5137059914588926,1.4641633285179734
1780626353627537000,3.830536865234375,0.742067563157156,-2.327256952652335,1.3075832121439277
1780626353637567000,3.84056689453125,0.9578029022026806,-1.5244365954339503,0.9356091175079345
1780626353647597000,3.85059716796875,0.9509592468529939,-0.2963753944247961,0.32959830346032976
1780626353657627100,3.860627197265625,1.0964951874475926,0.605147913607955,-0.46713411214649675
1780626353667657200,3.8706572265625,1.4299305117875336,0.7933774060904979,-1.2501365469560026
1780626353677687300,3.880687255859375,1.6005273169457912,0.1760638383924961,-1.891711718598753
1780626353687717000,3.890717041015625,1.5517600711673498,-0.4063981961548328,-2.3039419819079336
1780626353697747200,3.900747314453125,1.5955822617590427,-0.5699456673234701,-2.522688923859596
1780626353707777000,3.910777099609375,1.7995558513402938,-0.6305506504118442,-2.692402516442537
1780626353717807000,3.92080712890625,1.8030303955830633,-0.41388942869305606,-2.682111424052715
1780626353727837200,3.930837158203125,1.5930051047474145,-0.19247955114245413,-2.5477909241512418
1780626353737867000,3.940866943359375,1.3093021448910236,-0.02477379125058651,-2.2839548404119907
1780626353747897000,3.95089697265625,1.3203735740035771,0.2037964794486761,-2.0767169883377847
1780626353757927200,3.96092724609375,1.6855964408136903,0.4476122500747442,-1.7963864275239407
1780626353767957200,3.970957275390625,2.2789015025451778,0.44368484749794,-1.5480790445670485
1780626353777987000,3.980987060546875,2.502855511620641,0.08162088311016559,-1.629516533934325
1780626353788017200,3.99101708984375,1.8290367973685264,-0.2764005278885364,-1.7338509147644041
1780626353798047000,4.001046875,0.7788054215110838,-0.5420025983870029,-1.7335259205937386
1780626353808077000,4.0110771484375,-0.12490414451956748,-0.7206114450871944,-1.503604381415993
1780626353818107100,4.021107177734375,-0.6395148050468414,-0.42175826237201686,-1.0303893419206143
1780626353828137200,4.03113720703125,-0.6875063902776688,0.2572866620957851,-0.38045273077636954
1780626353838167300,4.041167236328125,-0.5154407546758651,1.2042840195804834,0.38466391873061656
1780626353848197000,4.051197021484375,-0.513557425147295,1.7300222963869571,1.0544013550184665
1780626353858227000,4.06122705078125,-0.9301908918514847,1.589303912141919,1.559965881715715
1780626353868257000,4.071257080078125,-1.5722832192361353,1.1864894196927547,1.91681138080284
1780626353878287000,4.081287109375,-1.5657130470655858,0.7131506076872348,2.1428632389403877
1780626353888317200,4.091317138671875,-1.002428591196984,0.3167717012435198,2.285706067993492
1780626353898347300,4.10134716796875,-0.31413945304378865,0.43613340920507904,2.246309292628616
1780626353908377000,4.111377197265625,0.23771803827285765,0.8158020038664341,2.006407334445417
1780626353918407200,4.1214072265625,0.46573242865502834,0.8634259248286485,1.6407346780411898
1780626353928437200,4.131437255859375,0.35103703200407327,0.1817763708204031,1.7891405480489133
1780626353938467000,4.141467041015625,0.40057928074300286,-1.8194722656875848,4.120869969940185
1780626353948497200,4.1514970703125,-0.9316368528760969,-1.359175306084752,6.939611632141471
1780626353958527000,4.16152685546875,0.5672453223235905,0.02948620672523975,10.20775593496561
1780626353968557000,4.17155712890625,-23.09881104246378,-3.4990450622975824,1.7595386059895157
1780626353978587100,4.181587158203125,-19.308284787523746,1.6319219876408575,0.6297508052710443
1780626353988617200,4.1916171875,-2.895672926190495,0.5122463425487279,-0.23991554831713435
1780626353998647300,4.201647216796875,4.016079808166623,-2.009083567917347,-2.278966384474933
1780626354008677000,4.211677001953125,8.245351116114854,-1.7192197473436592,-1.8823212283104658
1780626354018707000,4.22170703125,10.680979011636971,-1.1370073036432267,-1.8328772523142396
1780626354028737000,4.231737060546875,10.297603963673113,-0.6933820773780346,-1.8369965242013335
1780626354038767000,4.24176708984375,11.368286737537384,0.9791992529094219,-1.598336236642301
1780626354048797200,4.251797119140625,7.223150925868749,0.16889117028415201,-1.0750836391717196
1780626354058827300,4.2618271484375,0.9917546369694172,-1.7766805871874094,-1.2397057538345455
1780626354068857000,4.271857177734375,-4.45775565392971,-1.603243005645275,-0.2840625869490206
1780626354078887200,4.28188720703125,-7.572310400497913,-1.6837305008113383,0.7282852676507086
1780626354088917000,4.2919169921875,-7.724478984040021,-2.2382576497286557,1.709336066710949
1780626354098947000,4.301947021484375,-5.9102773522317404,-2.2460072409421206,2.716744930538535
1780626354108977200,4.31197705078125,-3.029946372079849,-1.0971768130362034,3.770975166773796
1780626354119007200,4.32200732421875,-0.8285844016153365,-0.012125322079658508,4.901242640767991
1780626354129037000,4.332037109375,-3.71559522485733,0.382134107992053,3.7104639994487165
1780626354139067100,4.342067138671875,-4.636980586701632,0.45116848125159736,1.641930755957961
1780626354149097200,4.35209716796875,-1.7304628797613084,0.7163736613869667,-0.11117175256945191
1780626354159127300,4.362127197265625,-1.171523175098747,-0.37895723152160643,-1.3345204650387168
1780626354169157000,4.3721572265625,0.730703800034523,-0.9139239399224519,-2.0270047167941927
1780626354179187000,4.38218701171875,2.7143758633196353,0.41570729176998134,-2.674870366883278
1780626354189217000,4.392217041015625,0.8130350233711302,0.2296031208783388,-3.4404619404256342
1780626354199247000,4.4022470703125,1.9232745854675768,0.9052262542039156,-2.730161461472511
1780626354209277200,4.412277099609375,3.515343870669603,1.4258669156104324,-0.5049643688470125
1780626354219307300,4.422307373046875,1.1825028342746198,0.12304244230091571,0.7539978010561317
1780626354229337000,4.432337158203125,0.7680221616901457,-0.27611235859692096,1.3148363981425761
1780626354239367000,4.442366943359375,1.4214920615270732,0.1809124474674463,1.515393749539554
1780626354249397000,4.45239697265625,0.8121464039683342,0.5696762027323246,1.6202628217682242
1780626354259427000,4.462427001953125,-0.9987770829521119,0.16597499057650564,0.9195651606798172
1780626354269457200,4.47245703125,-0.7933505180835724,0.41535131793916225,0.32194267414063216
1780626354279487200,4.4824873046875,-0.1602444841004908,0.8626005799204111,0.4835603462904691
1780626354289517000,4.49251708984375,-0.8769896091483533,0.6239274328798056,0.5933754966191948
1780626354299547100,4.502547119140625,-0.3567958147265017,0.7322650580018758,0.5058380829416215
1780626354309577200,4.5125771484375,0.9130242146037518,0.5307166497409344,0.8419438685998321
1780626354319607000,4.52260693359375,0.6162802791275084,-0.17980770109593866,0.9413083520628511
1780626354329637000,4.53263720703125,0.8794869789220392,-0.49489364120960233,0.6886071180611848
1780626354339667200,4.542667236328125,0.9723134389184415,-0.6520131251573562,0.16768164836391805
1780626354349697000,4.552697021484375,0.8188578843057155,-0.5780296050578355,-0.09444076332524418
1780626354359727000,4.56272705078125,0.7505388197086751,-0.39785307064950465,-0.4762091067448258
1780626354369757200,4.572757080078125,0.5033785609602928,-0.33551088850498195,-0.8258753618523478
1780626354379787300,4.582787353515625,-0.13280468851104377,-0.32605273980796334,-0.8356118890993297
1780626354389817300,4.5928173828125,-0.4819546646595001,-0.397188469260931,-0.48835225674211974
1780626354399847000,4.602846923828125,-0.2877694786429405,-0.5470967066556215,0.012272329334914683
1780626354409877000,4.612876953125,-0.011060469327121972,-0.37668110328316684,0.31453926601633425
1780626354419907000,4.622906982421875,0.33528643209934234,-0.07124795765578747,0.5132891295999288
1780626354429937200,4.632937255859375,0.5940950430653988,0.06945055284500122,0.5928871285803615
1780626354439967200,4.64296728515625,0.5231903458893299,0.23926994388997552,0.5721579365454614
1780626354449997300,4.652997314453125,0.3103448830664158,0.37127602936923504,0.2781044091969728
1780626354460027100,4.663027099609375,0.1637068995140493,0.2976946603298187,0.12106105922535061
1780626354470057000,4.673056884765625,-0.03122764356508851,0.15843758080899714,-0.05537643478512764
1780626354480087000,4.683087158203125,0.11550269444584846,0.0908311945259571,-0.09297463629543781
1780626354490117000,4.6931171875,0.3701261286817491,0.2282867775827646,-0.05228504464104771
1780626354500147200,4.703147216796875,0.33640973704084753,0.20360534079074857,-0.17366963673233984
1780626354510177000,4.713177001953125,0.6372970559321344,-0.12688041302859782,-0.23654621801450848
1780626354520207000,4.72320703125,0.3909142112970352,-0.27417408401072024,-0.6679714495286345
1780626354530237200,4.7332373046875,0.16732976618632672,-0.4691881220668554,-0.8046379280343652
1780626354540267300,4.743267333984375,0.3170319596149027,-0.6343307534724474,-0.5502053401954472
1780626354550297000,4.753297119140625,0.2509073363222182,-0.5768541315376758,-0.3769089206896722
1780626354560327200,4.7633271484375,0.29525720404982564,-0.4198579817086458,-0.07677841151505709
1780626354570357000,4.77335693359375,0.12319266442656517,-0.33470132568776606,0.0724519266180694
1780626354580387000,4.783386962890625,0.007865180417150258,-0.2595353178054094,0.3096409725807607
1780626354590417200,4.793417236328125,-0.2532698276698589,-0.2308797166854143,0.38522827461510895
1780626354600447200,4.803447265625,-0.26499066060185433,-0.2170119348526001,-0.16181114889532328
1780626354610477300,4.813477294921875,-0.16137714139223097,-0.12991700424551963,-1.725028141361475
1780626354620507100,4.823507080078125,-1.4809342844463884,-0.9898375513017177,0.047232291296124454
1780626354630537000,4.833536865234375,-0.2469805182673037,-0.6827361802011728,2.349568153181672
1780626354640567000,4.843567138671875,1.3210581952668725,0.49213177528083324,2.20965874723196
1780626354650597000,4.85359716796875,0.41834713875427837,0.13688158256113528,1.1561775757983326
1780626354660626400,4.86362646484375,0.139380267509073,-0.21778876444399356,0.5665649388439953
1780626354670656500,4.873656494140625,0.06801014477834105,-0.3161602913469076,0.12747414113804698
1780626354680686600,4.8836865234375,0.055349400647729634,-0.39791619901359077,-0.1903628512494266
1780626354690716200,4.893716064453125,0.18558219284415245,-0.384912925055623,-0.32130028458386656
1780626354700746200,4.903746337890625,0.2482113752365112,-0.35587621566355226,-0.3843064835950732
1780626354710776300,4.9137763671875,0.15812617677226662,-0.3085714436531067,-0.44852541939690704
1780626354720806400,4.923806396484375,-0.0035853111408650873,-0.14107026642262935,-0.503440666411072
1780626354730836500,4.93383642578125,-0.10471227423176169,0.017965280279517173,-0.5131035438999534
1780626354740866300,4.9438662109375,-0.19065584284663198,0.07486907076239585,-0.49355187121182675
1780626354750896400,4.953896484375,-0.25614801345467564,0.04888824180960655,-0.42885275067761536
1780626354760926500,4.963926513671875,-0.40155258275456723,-0.0402589451521635,-0.3290991217665374
1780626354770956300,4.973956298828125,-0.39068982795663176,-0.269793676969409,-0.2857588694728911
1780626354780986400,4.983986328125,-0.35324659781232476,-0.5257710100322962,-0.26459011697694657
1780626354791016400,4.994016357421875,-0.4707834284342825,-0.8360755610883236,-0.2384244329765439
1780626354801046300,5.00404638671875,-0.6395500955559313,-0.9134241737067699,-0.07801131431087852
1780626354811076400,5.014076416015625,-0.6426515687026083,-0.8608505213826895,0.15090981565266848
1780626354821106400,5.0241064453125,-0.5668997237563133,-0.8089882321983576,0.40550270861983295
1780626354831136500,5.034136474609375,-0.5455963120300322,-0.7541647551208734,0.6322479558490216
1780626354841166300,5.044166259765625,-0.5983646101433784,-0.6518786851227283,0.7507628377228975
1780626354851196400,5.054196533203125,-0.5732616600036621,-0.5090834946036339,0.8705021468251943
1780626354861226200,5.064226318359375,-0.3515490001142025,-0.33044892894029615,0.8916627160146832
1780626354871256300,5.07425634765625,-0.05500818599462509,-0.2385258475244045,0.7885755587667226
1780626354881286400,5.084286376953125,0.07216857963204383,-0.35143969452083107,0.5349899431459605
1780626354891316500,5.09431640625,-0.13743636689968405,-0.6265028363257646,0.22949250011071562
1780626354901346600,5.1043466796875,-0.5120856720943003,-0.9281658157646655,0.12794336608499288
1780626354911376400,5.11437646484375,-0.6337971580523997,-1.113997599455714,0.15644421503469347
1780626354921406200,5.12440625,-0.5174363124072552,-0.9364806396454572,0.21943916199952362
1780626354931436300,5.134436279296875,-0.46054004764370615,-0.5674351458072662,0.19641528315618634
1780626354941466400,5.14446630859375,-0.6215489402454346,-0.06968903777599335,0.27452742749303577
1780626354951496400,5.154496337890625,-0.7734217557113617,0.6906383316278457,0.47030163626670834
1780626354961526300,5.1645263671875,-0.5853695194918662,1.5869102950036524,0.7869860976181924
1780626354971556400,5.174556396484375,0.15761040926985442,1.866619216787815,1.0035723544046282
1780626354981586400,5.18458642578125,0.50202941137366,1.1392495296120644,0.7822492783546448
1780626354991616500,5.194616455078125,-0.07101246839947999,-0.27170214093923567,0.13786708646714688
1780626355001646300,5.204646240234375,-1.285498075455427,-1.6826976506322622,-0.44523850668072695
1780626355011676400,5.214676513671875,-1.897683048093319,-2.880840683239698,-0.599236789868027
1780626355021706200,5.224706298828125,-1.7252467525482176,-3.4796325058192012,-0.47074368094578384
1780626355031736300,5.234736328125,-1.4145581706106662,-3.1713544921547174,-0.2404302198410034
1780626355041766400,5.244766357421875,-1.0482708894394337,-2.219474623325467,0.10279752665162085
1780626355051796500,5.25479638671875,-0.530278112193197,-0.8973661883533001,0.3960030588686466
1780626355061826600,5.26482666015625,-0.18118191205859183,0.5071259307950735,0.5388564093157648
1780626355071856400,5.2748564453125,0.000008183306455612182,1.778801817125082,0.4080453788399696
1780626355081886200,5.28488623046875,-0.02174655238389969,2.5981898627847433,0.01173223110884428
1780626355091916300,5.294916259765625,-0.6203871299244463,2.3781898520320652,-0.152104286134243
1780626355101946400,5.3049462890625,-1.155908403468132,1.1618459768235683,-0.16073562861829996
1780626355111976400,5.3149765625,-1.2977202820383011,-0.11390811873078345,-0.2585319859817624
1780626355122006500,5.325006591796875,-0.9921114875830709,-1.1794424237906933,-0.3107046562895179
1780626355132036400,5.335036376953125,-0.6527976996637881,-1.888756814315915,-0.2631596457824111
1780626355142066400,5.34506640625,-0.13828764996677637,-2.072926802274585,0.11087649594992399
1780626355152096300,5.35509619140625,0.24151158533692357,-1.889994831678271,0.44939942575246095
1780626355162126300,5.365126220703125,0.3708873223125934,-1.354596746122837,0.6674681761816144
1780626355172156400,5.375156494140625,0.3216378459751606,-0.8303530917882919,0.5943021099448204
1780626355182186200,5.385186279296875,0.5884960540145635,-0.5314116462677717,0.23482056326568126
1780626355192216300,5.39521630859375,0.7850511840328573,-0.3273971401542425,-0.30888854677826166
1780626355202246400,5.405246337890625,0.5299830747693777,-0.37175358375310896,-0.8766597926720976
1780626355212276500,5.4152763671875,0.3623533027231693,-0.3320575331807136,-1.0256038612097502
1780626355222306600,5.425306640625,0.8271405594825744,-0.14539806649386883,-0.7432756968379021
1780626355232336400,5.43533642578125,1.4981082682177425,0.01917407154738903,-0.22275135528743265
1780626355242366200,5.4453662109375,1.551561918246746,0.03345043418109417,0.2678644624724984
1780626355252396300,5.455396240234375,1.343580262067914,-0.07807692689299583,0.5537292765378952
1780626355262426400,5.46542626953125,1.4835279542014002,-0.07856091101765632,0.5576292065858841
1780626355272456400,5.47545654296875,1.504028305916488,0.12049275781810283,0.24689327837526798
1780626355282486500,5.485486572265625,1.0122209402844309,0.3538227902650833,-0.24249562793821094
1780626355292516400,5.495516357421875,0.12806523889899252,0.44892508623898025,-0.7823945320442318
1780626355302546200,5.505546142578125,0.07319616911411285,0.4651192651927471,-0.7480448109358548
1780626355312576300,5.515576171875,-0.18753245012909173,0.3347738064020872,-0.5845870638772845
1780626355322606300,5.5256064453125,-0.3024398090302944,0.20215280389487741,-0.03971183266341686
1780626355332636400,5.535636474609375,-0.28920447988212106,0.17787760981619358,0.399335125900805
1780626355342666500,5.54566650390625,0.0996735494121909,0.1056757124364376,0.5631035463437438
1780626355352696300,5.5556962890625,0.17505962978601455,-0.0036363106757402418,0.5680199599578977
1780626355362726400,5.565726318359375,0.09614771337360144,0.02713642872869968,0.21482465394139288
1780626355372756500,5.575756591796875,0.10497077903747558,-0.03180558958351612,-0.37245559454262256
1780626355382786300,5.585786376953125,0.3161246355116367,0.2092687733799219,-0.977061656358838
1780626355392816400,5.59581640625,0.49227556766569613,0.5389274287253618,-1.393728148549795
1780626355402846500,5.605846435546875,0.302662511870265,0.7812865708023309,-1.374114224280417
1780626355412876300,5.615876220703125,0.13089549388885496,1.0985977857500313,-0.9191349525690078
1780626355422906400,5.62590625,-0.03260112387537956,1.4298282204568384,-0.23926935936808585
1780626355432936400,5.6359365234375,0.046882747206091875,1.447597101381421,0.2121694632574916
1780626355442966500,5.645966552734375,0.34681904898285865,1.055685111218691,0.3897089271605015
1780626355452996400,5.655996337890625,0.9653846625685691,0.9054168083399534,0.2816334601059556
1780626355463026200,5.666026123046875,1.1347411122769118,0.8386866203695535,0.022091420298814772
1780626355473056300,5.67605615234375,1.0036503880769014,0.6548404575377702,-0.2723857392892241
1780626355483086300,5.68608642578125,0.8291086446851491,0.4872445877611637,-0.41810704638808965
1780626355493116400,5.696116455078125,0.5538906045794487,0.3095961105257273,-0.16522621803581714
1780626355503146500,5.706146484375,0.31267244923114773,0.2509744102090597,0.2530833651870489
1780626355513176300,5.71617626953125,0.24183424142003057,0.4109773406386375,0.6669695790097117
1780626355523206400,5.726206298828125,0.23611177211999893,0.5056079274475574,0.892243146251142
1780626355533236200,5.736236328125,0.24863164647519587,0.5371206715643405,0.8861348925039172
1780626355543266300,5.746266357421875,0.34902269650697704,0.635455958110094,0.6239350316643715
1780626355553296400,5.75629638671875,0.6828729583233595,0.7368447870075703,0.23273031298816202
1780626355563326500,5.766326416015625,0.8212082468241453,0.7005126599103212,-0.1705941748097539
1780626355573356300,5.776356201171875,0.6772714850544929,0.4823457098037004,-0.5740224152430892
1780626355583386400,5.786386474609375,0.48942310084402557,0.2720762349486351,-0.7722668135225772
1780626355593416400,5.79641650390625,0.16177052462399005,0.12867138809859752,-0.7295680740028619
1780626355603446500,5.806446533203125,-0.060274143698811525,-0.06653788026869296,-0.5026455705106259
1780626355613476400,5.816476318359375,-0.10314473265409468,-0.27909108214676376,-0.2819523167967796
1780626355623506400,5.82650634765625,-0.01547054085433483,-0.2935293573439121,-0.09012859921455382
1780626355633536300,5.836536376953125,0.20646832900643347,-0.234060100287199,0.11297989796996116
1780626355643566300,5.84656640625,0.40620121227800843,-0.20451661041676997,0.20932737169936297
1780626355653596400,5.856596435546875,0.4339572342097759,-0.19422084185183047,0.22740137305036187
1780626355663627000,5.866626953125,0.5385463204532861,-0.23309563916921613,0.25236338034942746
1780626355673656800,5.87665673828125,0.5099006562054157,-0.26170973923504354,0.18846213219463825
1780626355683687000,5.88668701171875,0.4773024549394846,-0.2307359243005514,0.09982815545201301
1780626355693716700,5.896716796875,0.4361626352995634,-0.22475918797850608,-0.0009362579368054866
1780626355703746800,5.906746826171875,0.5599211169153452,-0.10941665253043174,-0.1022252797216177
1780626355713777000,5.91677685546875,0.5514350281208753,0.0952624549716711,-0.13584639429450035
1780626355723807000,5.926806884765625,0.47361879799067974,0.19662205777466296,-0.1543663858473301
1780626355733836800,5.9368369140625,0.3788058403521776,0.1850175446987152,-0.12794570417255163
1780626355743867000,5.946866943359375,0.25872867759764195,0.12752864780426024,-0.09969663802683353
1780626355753897000,5.95689697265625,0.0896829012736678,0.11579495539069175,0.009634382046759128
1780626355763927000,5.966927001953125,-0.11026654735803604,0.17523264826536178,0.12879969065338373
1780626355773956900,5.976956787109375,-0.35399931587576866,0.22373744371533394,0.2399973813816905
1780626355783986700,5.986986572265625,-0.4734229831576347,0.22091420298814773,0.43780806441903114
1780626355794016800,5.997016845703125,-0.46130818247199057,0.09185293878912926,0.5532052526637912
1780626355804046800,6.007046875,-0.5207967287510633,-0.13300211077928542,0.6395359209001064
1780626355814077000,6.017076904296875,-0.6591407850801945,-0.37206396487653254,0.6940081003218889
1780626355824107000,6.02710693359375,-0.6931044294804334,-0.5537117408812046,0.6717065444037318
1780626355834137000,6.03713720703125,-0.4911737439036369,-0.6335346346586942,0.6313634280994534
1780626355844166700,6.047166748046875,-0.43409985755085945,-0.6494973429441452,0.5740373205512762
1780626355854196700,6.05719677734375,-0.450413863492012,-0.5380366173654795,0.5606409556224942
1780626355864226800,6.067226806640625,-0.38052053531557317,-0.3133540017545223,0.5523012895613908
1780626355874257000,6.0772568359375,-0.41769349715113635,-0.20412088909745216,0.5233081270501018
1780626355884287000,6.087286865234375,-0.47038756098449225,-0.19660043046474457,0.4096048832416534
1780626355894316800,6.09731689453125,-0.3543704872757196,-0.0343120194464922,0.2589218620821833
1780626355904347000,6.107346923828125,-0.2674164264440536,0.18898411024212836,0.12572130612134932
1780626355914377000,6.117376953125,-0.15273381620943546,0.38023674993813034,0.006055646777153015
1780626355924406800,6.12740673828125,-0.02854045030772686,0.4869914897829294,-0.04478957431912422
1780626355934436900,6.137436767578125,-0.11479016226232051,0.35910569910407064,-0.014035831876099109
1780626355944467000,6.147467041015625,-0.2531599375545978,0.11597849526405334,0.19626126163825391
1780626355954496800,6.157496826171875,-0.2408677344754338,-0.13831658380031586,0.4422020615942776
1780626355964526800,6.16752685546875,-0.21010347063839435,-0.3652987085253,0.49857861333265896
1780626355974557000,6.177556884765625,-0.23827976380884647,-0.47526364258825776,0.3643303018845618
1780626355984587000,6.1875869140625,-0.29716625254154205,-0.4780237549513578,0.19211846274510025
1780626355994617000,6.1976171875,-0.32394846100509167,-0.41492929313480853,0.1816001374706626
1780626356004646700,6.207646728515625,-0.5072863820537924,-0.32395664431154725,0.31788200057297944
1780626356014676700,6.2176767578125,-0.5974380698829889,-0.14578385094106197,0.6164055129423737
1780626356024706800,6.227706787109375,-0.6090916827976703,0.11046996097564697,0.9579958674915134
1780626356034737000,6.23773681640625,-0.5160775912746787,0.46684944998621936,1.3042182657554744
1780626356044767000,6.24776708984375,-0.44273032325208184,0.8077116363912821,1.5111577194049954
1780626356054797000,6.257797119140625,-0.41693654130399227,0.9199807557433843,1.5352033425115048
1780626356064827000,6.267826904296875,-0.42807489817291494,0.6799205382585525,1.1902958262383938
1780626356074856700,6.277856689453125,-0.4069552455157041,0.07461655730605125,0.6722973499037325
1780626356084886800,6.28788671875,-0.30645547441244125,-0.5813263085156679,0.27279797335192557
1780626356094916900,6.297916748046875,-0.17115356225818396,-1.0131091212958097,0.01508344123288989
1780626356104947000,6.307947021484375,-0.1436824947476387,-1.0352122320324182,-0.0320417364269495
1780626356114976800,6.317976806640625,-0.2766594710856676,-0.6937643546938895,0.07541910586059093
1780626356125006800,6.3280068359375,-0.3789902570083737,-0.15953414387404918,0.22502514543831348
1780626356135037000,6.338036865234375,-0.5140361485749483,0.2868891886770725,0.370155208645761
1780626356145067000,6.34806689453125,-0.6590384937494993,0.3692085754454136,0.5751695394515991
1780626356155096800,6.358096923828125,-0.6914876419335604,0.19452596227824687,0.8083598711669444
1780626356165127000,6.368126953125,-0.5272253004938364,-0.04984393509924411,0.9769196175396442
1780626356175156700,6.37815673828125,-0.2926812160819769,-0.2341781737089157,1.0276973263576625
1780626356185186800,6.388186767578125,-0.10391513250470161,-0.24921090766787526,0.8976669248655438
1780626356195217000,6.398216796875,0.0024310265392065047,-0.095249595490098,0.5695987535819411
1780626356205247000,6.4082470703125,-0.016758242577314376,0.06708849988877773,0.21188567788004875
1780626356215277000,6.418277099609375,-0.063516486620903,0.09038403528034686,0.03725099550783634
1780626356225307000,6.428306884765625,-0.18825228883624076,-0.03385609237253666,0.10086860441565514
1780626356235336700,6.438336669921875,-0.34781156715154643,-0.26340368367135525,0.2765960504606366
1780626356245366800,6.44836669921875,-0.43050124853700394,-0.39518122109174725,0.388346406635642
1780626356255396900,6.45839697265625,-0.6255208395510912,-0.41357261782884597,0.474071510194242
1780626356265427000,6.468427001953125,-0.7909212451100349,-0.4286375004917383,0.5255865933761
1780626356275457000,6.47845703125,-0.8295090421795844,-0.40919688696265216,0.4571043010413646
1780626356285486800,6.48848681640625,-1.000978538519144,-0.476952910849452,0.4628308619946241
1780626356295517000,6.498516845703125,-1.0369354025632143,-0.601755348560214,0.5589201231792569
1780626356305546800,6.508546630859375,-0.8351736438125371,-0.6266191561818123,0.7113339136540889
1780626356315576800,6.518576904296875,-0.5913736552774905,-0.4833575171947479,0.8273977491140365
1780626356325607000,6.52860693359375,-0.23247779953181744,-0.20084347486197948,0.8795257034972309
1780626356335636700,6.53863671875,0.19004794008135795,0.1258136605799198,0.8770067064136267
1780626356345666800,6.548666748046875,0.4390630329161882,0.30627661071419715,0.7367243754982948
1780626356355697000,6.55869677734375,0.5845528693467378,0.21382804411947726,0.43810529379993673
1780626356365727000,6.56872705078125,0.7428501649022102,-0.10303834967017172,0.20153817912787197
1780626356375757000,6.578757080078125,0.7969380211815238,-0.5978174245893955,0.056908466657996176
1780626356385787000,6.588786865234375,0.6871218479394913,-0.9733481887936591,-0.037946868817508216
1780626356395816700,6.598816650390625,0.6469219394981861,-0.9833031810969114,-0.05130436304062604
1780626356405846800,6.6088466796875,0.4469143309384584,-0.6894687033265828,-0.07418634919524192
1780626356415876900,6.618876953125,0.09399111986160277,-0.4001023108810186,-0.21365648694485426
1780626356425907000,6.628906982421875,-0.15736498314142225,-0.07579144630432129,-0.33862200626283884
1780626356435937000,6.63893701171875,-0.14479600894749164,0.13153437631428241,-0.3800961724236607
1780626356445966800,6.648966796875,-0.1981973442673683,0.17385668373703955,-0.3063376932516694
1780626356455997000,6.658996826171875,-0.2597445766419172,0.10074877742826938,-0.15646248134374618
1780626356466026800,6.66902685546875,-0.28942893628776073,-0.11880290503501892,-0.039943887853622434
1780626356476056800,6.679056884765625,-0.3244377058267593,-0.31951310890614987,-0.0059451721400022505
1780626356486087000,6.6890869140625,-0.20671207463443278,-0.48354222611188885,-0.03136544460058212
1780626356496117000,6.699116943359375,-0.17178572268188,-0.4910182610809803,-0.10965718328803777
1780626356506146800,6.709146728515625,-0.10040215594768524,-0.5171902286916971,-0.2788435371264815
1780626356516177000,6.719177001953125,0.06379004286527633,-0.3124965081423521,-0.583362782779336
1780626356526207000,6.72920703125,0.22602000169456005,-0.04898001174628734,-0.9564357785679399
1780626356536236800,6.73923681640625,0.20473580612540243,0.42673195913136003,-1.271232818737626
1780626356546267000,6.749266845703125,0.08330138354301451,0.7468716755032538,-1.1280657261662184
1780626356556296700,6.759296630859375,-0.0719610743612051,0.5550403591364622,-0.5479691055759788
1780626356566326800,6.769326904296875,-0.28187749799489975,0.19968670604228972,0.1867484601445496
1780626356576356900,6.77935693359375,-0.0767845489948988,-0.22354396696984766,0.760610862520337
1780626356586387000,6.789386962890625,0.321914909350872,-0.2824292866587639,0.9953189053222536
1780626356596417000,6.7994169921875,0.6773942346513271,-0.06342939285933971,0.8683182269148528
1780626356606447000,6.809447021484375,0.9977385336846113,0.2976122427433729,0.5042835469760001
1780626356616476700,6.8194765625,1.2163356919020414,0.6779694041907787,0.07833835430815815
1780626356626506800,6.8295068359375,1.2756892136245965,1.0242997928738593,-0.20813129378259182
1780626356636536800,6.839536865234375,0.9542267242163419,1.0599334163129328,-0.2603913501128554
1780626356646567000,6.84956689453125,0.5399292992442846,0.8569114283680915,-0.07068155594468116
1780626356656597000,6.859596923828125,0.3673042031288147,0.8076748115122317,0.2585851774737239
1780626356666626800,6.869626708984375,0.39685120013058184,0.996549031639099,0.6081592242531478
1780626356676656600,6.87965673828125,0.6755640966147184,1.3064929326891899,0.9178834912031888
1780626356686686700,6.889686767578125,0.7400111420840024,1.4482394909381866,0.9430895363911986
1780626356696716500,6.899716552734375,0.7657073088765144,1.264721829408407,0.5620275876753031
1780626356706746600,6.90974658203125,0.6931447614908218,0.8602057937383651,0.022125468698889015
1780626356716776700,6.919776611328125,0.5211287371844053,0.5186696535944938,-0.2679191152691841
1780626356726806500,6.929806640625,0.4288999508202076,0.4117775511056185,-0.1613299412496388
1780626356736836600,6.939836669921875,0.259866157194972,0.34795945118963717,0.0997073055513203
1780626356746866700,6.94986669921875,0.01083119061589241,0.3440402319192886,0.27779592776969075
1780626356756896800,6.959896728515625,0.026982114949822424,0.35508769563436504,0.2876547662220895
1780626356766926800,6.9699267578125,0.08211480410695075,0.3869891468077898,0.09035714727342128
1780626356776956700,6.979956787109375,0.025426702201366422,0.3424941715210676,-0.19312281748205423
1780626356786986500,6.989986572265625,-0.2893856816679239,0.11389058307409286,-0.4568035645291209
1780626356797016600,7.0000166015625,-0.590692102754116,-0.1593903514891863,-0.6197437174543738
1780626356807046700,7.010046630859375,-0.5652876123845577,-0.34546821889579293,-0.7087839369103313
1780626356817076700,7.02007666015625,-0.39366730939745903,-0.44619244640469546,-0.7387789699405432
1780626356827106800,7.03010693359375,-0.15741642106771467,-0.46958676599562166,-0.7121168807253241
1780626356837136600,7.04013671875,0.010513210707902908,-0.40114626697599887,-0.7070043600171804
1780626356847166700,7.050166748046875,-0.12421996164768934,-0.3252677269101143,-0.7249862991705537
1780626356857196500,7.060196533203125,-0.10026683913022279,-0.19403613293468952,-0.6968325100928544
1780626356867226600,7.0702265625,0.0965498644337058,-0.18975509461462498,-0.6677402711212634
1780626356877256700,7.080256591796875,0.1126554883211851,-0.32729017264842986,-0.6761012722313404
1780626356887286800,7.090286865234375,0.08738602250814437,-0.43104982233047484,-0.7456596693649887
1780626356897316600,7.100316650390625,0.057465223757922644,-0.4553361223250627,-0.863059429603815
1780626356907346700,7.1103466796875,-0.1439268248975277,-0.47848669628798957,-1.0796578152194618
1780626356917376800,7.120376708984375,-0.40962651055157184,-0.44050329485237594,-1.320748837056756
1780626356927406600,7.130406494140625,-0.7200438743323088,-0.21529987023770808,-1.5391685928806662
1780626356937436700,7.140436767578125,-0.9027911360114812,-0.0022445640563964844,-1.6381363321110605
1780626356947466500,7.150466552734375,-0.9067869276493787,0.15208090525865553,-1.5698697283536194
1780626356957496600,7.16049658203125,-0.8118027050971984,0.3300450243145227,-1.390757608306408
1780626356967526700,7.170526611328125,-0.8195441130042076,0.49510173100233074,-1.1445929364666343
1780626356977557800,7.180557861328125,-0.8050333570927382,0.539626516905427,-0.8991597937718033
1780626356987586800,7.1905869140625,-0.8700771994113922,0.3480103045940399,-0.7247866849452257
1780626356997616600,7.20061669921875,-1.0526122796446085,-0.00048632221221923825,-0.5807251277521253
1780626357007647700,7.210647705078125,-0.9111012837171554,-0.47818332942724223,-0.4239107642307877
1780626357017676500,7.220676513671875,-0.37062604102790353,-0.7966121502280235,-0.1700704431965947
1780626357027707600,7.230707763671875,0.018178046247363088,-0.942411783260107,-0.00031388825476169586
1780626357037737700,7.24073779296875,-0.05505524000674486,-0.8364894025862216,-0.019644319407641886
1780626357047767600,7.250767578125,-0.25878157682865854,-0.519751019090414,-0.11457768855541944
1780626357057797600,7.260797607421875,-0.24521891542226074,-0.15712182203531264,-0.20317717850655317
1780626357067827700,7.27082763671875,-0.17499883950948714,0.08457213413119316,-0.31419805136322976
1780626357077857800,7.28085791015625,-0.13626286614090202,0.10070260019898414,-0.42400604129880665
1780626357087888000,7.290887939453125,-0.42942309791147704,-0.04374094204902649,-0.5735924993932247
1780626357097917400,7.30091748046875,-0.7801277561560273,-0.16148469341993332,-0.6765656748726964
1780626357107947500,7.310947509765625,-0.913037804737687,-0.3389823640078306,-0.7302049106016755
1780626357117977600,7.3209775390625,-0.5300315900862217,-0.37475218104720115,-0.6177154264971614
1780626357128007700,7.331007568359375,-0.3430214102655649,-0.16076865410506724,-0.4171306025713682
1780626357138037800,7.341037841796875,-0.48257981082051987,0.26318916413784027,-0.2284305699676275
1780626357148067800,7.35106787109375,-0.3670429218441248,0.8107435514330863,-0.014725567705929279
1780626357158097700,7.36109765625,-0.09160860863924027,1.1939344750016927,0.13024053711146116
1780626357168127700,7.371127685546875,-0.09499357490241526,1.1379226649224758,0.2091445624783635
1780626357178157600,7.381157470703125,-0.21972236285507676,0.5517185212373733,0.10123130024820566
1780626357188187600,7.391187744140625,-0.137499422198534,0.012445640075206757,-0.14787790061086414
1780626357198217700,7.4012177734375,-0.0340501536399126,-0.18097732939720151,-0.3451034772366285
1780626357208247600,7.41124755859375,-0.07139584169387816,-0.1653629961580038,-0.4482783127680421
1780626357218277600,7.421277587890625,0.02874415618628263,-0.1963327194392681,-0.478258440490067
1780626357228307700,7.4313076171875,0.32780805904269217,-0.23048574893176554,-0.411285968196392
1780626357238337800,7.441337890625,0.5494909083157777,-0.3139782711327076,-0.28118308598995206
1780626357248367600,7.45136767578125,0.4394032246559858,-0.31889468474686145,-0.13119330779165028
1780626357258397700,7.461397705078125,0.24998598369359967,-0.23144319578707218,0.08200608303546905
1780626357268427500,7.471427490234375,0.1457867735505104,-0.12410510309636592,0.2564724231034517
1780626357278457600,7.48145751953125,0.14367021978795527,-0.22344927442371845,0.30079496443271636
1780626357288487700,7.49148779296875,0.2200505718961358,-0.3565110064357519,0.3942012701436877
1780626357298517800,7.501517822265625,0.33158699305951594,-0.5672498523682356,0.4191092091679573
1780626357308547800,7.5115478515625,0.41952071257829665,-0.8922808479130268,0.27518267653137446
1780626357318577700,7.52157763671875,0.5314432104498148,-1.0475433058172463,0.0565980855345726
1780626357328607500,7.531607421875,0.43185880062580106,-1.0842489424020052,-0.07623188354820012
1780626357338637600,7.541637451171875,0.45004239983111616,-0.8702034561395645,-0.04726034834682941
1780626357348667600,7.551667724609375,0.4748527236998081,-0.6484183155357838,0.14071400033086537
1780626357358697700,7.56169775390625,0.262564894759655,-0.5529021780639887,0.4955722711235285
1780626357368727800,7.571727783203125,0.47611558324247594,-0.7570423563838005,0.9195242441475391
1780626357378757600,7.581757568359375,0.7814467298001051,-1.0449924522906542,1.162547695352137
1780626357388787700,7.59178759765625,0.7961521315008402,-1.3934984314471481,1.053530563533306
1780626357398817800,7.60181787109375,0.7017007006511092,-1.4955068535476923,0.5925333467066287
1780626357408847600,7.61184765625,0.5745899859979748,-1.4263257652938366,0.06006839199364185
1780626357418877700,7.621877685546875,0.5357523058205843,-1.5057728114962576,-0.19596184030026195
1780626357428907500,7.631907470703125,0.4730176172271371,-1.60825060467422,-0.1781558422356844
1780626357438937600,7.6419375,0.44497722539603707,-1.387581316357851,-0.16120236934721469
1780626357448967700,7.6519677734375,0.4156102611362934,-0.6246329508006573,-0.017812135544419287
1780626357458997800,7.661997802734375,0.2954033345222473,0.30808453691899773,0.4140969339638948
1780626357469027800,7.67202783203125,0.16824585811793802,0.8530985920816659,0.8729019014433026
1780626357479057700,7.6820576171875,0.1759592089742422,0.8456897771298885,1.0825804246678947
1780626357489087500,7.69208740234375,0.27300679379701615,0.33085108000040053,0.8377852876156568
1780626357499117600,7.70211767578125,0.35094343543648715,-0.308140066498518,0.2581020701318979
1780626357509147600,7.712147705078125,0.5684253258883952,-0.4960451493322849,-0.1760597467392683
1780626357519177700,7.722177734375,0.6480681869238615,-0.4217746289849281,-0.36398382653445005
1780626357529207800,7.732207763671875,0.5723191184565425,-0.2876876455783844,-0.32124884665757414
1780626357539237600,7.742237548828125,0.35175884347259995,-0.052205403533577915,-0.14000614432245492
1780626357549267700,7.752267822265625,-0.018107319098711012,0.24607377868592736,0.08164601755142212
1780626357559297500,7.762297607421875,-0.0907704042494297,0.5765297218888997,0.34884178698211904
1780626357569327600,7.77232763671875,-0.08048164994716644,0.8395739245980978,0.5305006689026951
1780626357579357700,7.782357666015625,0.03917114991545677,0.9403671256899833,0.5338134467124939
1780626357589387800,7.7923876953125,-0.031437048532068725,0.7951783180326223,0.34188773006051776
1780626357599417600,7.80241748046875,-0.19414310044050215,0.46572775247991083,0.1666936602398753
1780626357609447700,7.81244775390625,-0.06095774204879999,0.14065525588095187,0.13254706048816442
1780626357619477800,7.822477783203125,0.021769348737597463,-0.100512630584836,0.11558218942284583
1780626357629507800,7.8325078125,-0.007109247483313083,-0.20746201621890067,0.11371698007285594
1780626357639537700,7.84253759765625,-0.14493044898211954,-0.1368061792373657,0.151751819434762
1780626357649567500,7.8525673828125,-0.24324703082740307,0.017034136909246444,0.23660277050733564
1780626357659597600,7.86259765625,-0.12159925775527954,0.25666706889271734,0.2619838800013065
1780626357669627400,7.87262744140625,0.01776245118379593,0.5821890628248453,0.21314678385704755
1780626357679657500,7.882657470703125,0.057171209247410294,0.6532032117247581,0.0014604279413819312
1780626357689687600,7.8926875,0.14535422735214232,0.5849415764033794,-0.16941344059258698
1780626357699717400,7.90271728515625,0.1253869596004486,0.46092648967802524,-0.15235183115452527
1780626357709747200,7.912747314453125,-0.05729308206140995,0.28460779974162576,0.0515220974445343
1780626357719777300,7.92277734375,-0.07845715838223695,0.1422656136870384,0.3462105616956949
1780626357729807400,7.932807373046875,-0.14843144284039736,0.022173837885260582,0.5325111319422722
1780626357739837400,7.94283740234375,0.04935732062608003,-0.08907178363800049,0.5710670725688338
1780626357749867500,7.952867431640625,0.43166707744598387,-0.07621697824001311,0.4140273758590221
1780626357759897300,7.9628974609375,0.4610074459597468,-0.16143910071253775,0.07894406511634587
1780626357769927200,7.97292724609375,0.5531996997058392,-0.26393559859097004,-0.2664931741192937
1780626357779957200,7.982957275390625,0.5560901604503393,-0.19152151976525783,-0.5291390251606702
1780626357789987300,7.9929873046875,0.3513181139677763,-0.13870412181317807,-0.6202414378434419
1780626357800017400,8.003017333984374,0.30445524050593376,0.06935702934265137,-0.4657335976988077
1780626357810047500,8.013047607421875,0.3383154245316982,0.36168051802814005,-0.19573621485084294
1780626357820077300,8.023077392578125,0.42349896855950353,0.499442975077033,0.03427081065326929
1780626357830107400,8.033107421875,0.5328144988030195,0.5665823283702135,0.1705930057659745
1780626357840137500,8.043137451171875,0.5349795678824186,0.4636626366436481,0.09601707273125648
1780626357850167300,8.053167236328125,0.38455987383425233,0.18027122695446013,-0.1592190865755081
1780626357860197400,8.063197265625,0.21043898620307444,-0.11214052453637123,-0.40829350838214157
1780626357870227500,8.0732275390625,0.11185264750570058,-0.2097486658513546,-0.46682753041535613
1780626357880257300,8.08325732421875,0.13289105162024498,-0.13243454002439975,-0.4236871846079826
1780626357890287400,8.093287353515626,0.18369477166235446,0.02831774746775627,-0.2700292392909527
1780626357900317400,8.1033173828125,0.2553349435061216,0.2451701078444719,-0.13110183011591434
1780626357910347500,8.113347412109375,0.3680295947939157,0.5027414321005345,-0.028737434184551238
1780626357920377300,8.12337744140625,0.43619156913310286,0.6973883904099464,-0.028451895241439342
1780626357930407200,8.1334072265625,0.36119039642363787,0.7652040355294942,-0.1324579208999872
1780626357940437200,8.143437255859375,0.3092325379103422,0.6465905155867337,-0.32123131100088353
1780626357950467300,8.15346728515625,0.2592410110339522,0.3704325642824173,-0.5105512290686368
1780626357960497400,8.163497314453124,0.22301555918157098,0.05692074161767959,-0.582010491387546
1780626357970527500,8.173527587890625,0.17679945919066667,-0.1429763923048973,-0.613103841048479
1780626357980557600,8.1835576171875,0.19191577977985141,-0.17235855413377285,-0.5770610522866249
1780626357990587400,8.19358740234375,0.24969722988009452,-0.0718780722528696,-0.4221674276947975
1780626358000617200,8.2036171875,0.24930735377967356,-0.005465279668569564,-0.2333019753962755
1780626358010647300,8.213647216796875,0.13718787203133107,0.08579144679307937,-0.06590630436688662
1780626358020677400,8.223677490234374,0.08974573737680912,0.11229659188091755,0.0688780136540532
1780626358030707500,8.23370751953125,0.17569968125522137,0.10087503415644168,0.09114362147599459
1780626358040737300,8.2437373046875,0.28740590602755545,0.18693769910633562,0.05372253009825945
1780626358050767400,8.253767333984374,0.30789398278295993,0.25963644009232517,-0.027125030551850796
1780626358060797400,8.26379736328125,0.34723230595886706,0.2578659232884645,-0.0942626302793622
1780626358070827500,8.27382763671875,0.4500067439958453,0.2589753458350897,-0.07075725152939558
1780626358080857300,8.283857421875,0.5507467535957694,0.26835224598944185,-0.14719664034843444
1780626358090887400,8.293887451171875,0.5941603633865714,0.4379565329790115,-0.2503276367381215
1780626358100917200,8.303917236328125,0.5688295227751136,0.8438134618639945,-0.307080620573461
1780626358110947300,8.313947265625,0.5232987746998667,1.3896131144464015,-0.3388067151799798
1780626358120977400,8.323977294921875,0.48386166732460256,1.8844190773725509,-0.3312266353145242
1780626358131007500,8.334007568359375,0.3373088778376579,2.13642107706368,-0.19383856453597545
1780626358141037600,8.34403759765625,0.11472411128878593,2.0652485227316615,0.0453808182105422
1780626358151067100,8.354067138671875,0.032657530237734315,1.8740145877361296,0.34844635792374606
1780626358161097200,8.36409716796875,0.034843349844217296,1.6122925735414027,0.5470657269954681
1780626358171127300,8.374127197265626,-0.12065408585965633,1.6009879201948642,0.627867402677238
1780626358181157400,8.384157470703125,-0.5760971756905316,1.7336866641134023,0.7484773571342229
1780626358191187500,8.3941875,-0.10374123724251985,1.5574451310664414,1.1170926428616046
1780626358201217500,8.404217529296876,0.3329074280083179,0.6340700567096471,1.6313012253940105
1780626358211247400,8.414247314453124,-0.4590378994524479,-1.0257377167224884,1.996132608668506
1780626358221277400,8.42427734375,-1.6192553982913493,-3.0075170981287953,1.8642814214900134
1780626358231307300,8.434307373046876,-2.689852247437835,-4.515153949931264,1.3241270813181996
1780626358241337300,8.44433740234375,-3.0795775412112474,-5.063576936754584,0.11009440566152334
1780626358251367400,8.454367431640625,-2.2114055908992887,-4.413263601252436,-0.910684227348864
1780626358261397200,8.464397216796876,-1.2233303730949758,-3.396817444488406,-1.2154083479240536
1780626358271427300,8.47442724609375,-1.0304507167190313,-2.5260709675133226,-0.9757029352262615
1780626358281457400,8.48445751953125,-0.8522317461192608,-2.1089719291239977,-0.655337008883059
1780626358291487500,8.494487548828126,-0.4514297625362873,-1.882917440637946,-0.47012540291696786
1780626358301517600,8.504517578125,-0.525070168286562,-1.69473120277524,-0.40504415119737386
1780626358311547400,8.51454736328125,-0.6237865631043911,-1.865809653970599,-0.3975812679708004
1780626358321577200,8.5245771484375,-0.81137074342072,-2.2442910846740007,-0.5539502258121967
1780626358331607300,8.534607177734374,-0.6922349531695247,-2.6773089922070503,-0.47734980121254916
1780626358341637400,8.544637451171875,-0.40921237679272887,-2.8061615820914505,-0.2377966564670205
1780626358351667500,8.55466748046875,-0.02762450450658798,-2.8038749324589967,0.22661972115337847
1780626358361697500,8.564697509765624,0.6321966640532016,-2.4116847098767757,1.1146056483514606
1780626358371727400,8.574727294921875,0.6020642683789134,-1.4061638517528772,2.4075113697148858
1780626358381757200,8.584757080078125,-0.43353082549124955,0.1152478429019451,3.723202777251601
1780626358391787300,8.594787353515626,-1.3634420236185192,2.301722698423266,4.123391889633238
1780626358401817300,8.6048173828125,-1.2482535096883773,4.491301949700713,2.8936510649740694
1780626358411847400,8.614847412109375,1.5313865607023238,5.8251411544769995,2.0352980594955383
1780626358421877500,8.62487744140625,6.569457884800434,5.983377659755945,1.4222794125124811
1780626358431907300,8.6349072265625,5.405518150568008,3.566508240717649,-0.0729825263634324
1780626358441937400,8.6449375,-0.04292874888330698,-0.970614379915595,-1.4064336086049676
1780626358451967500,8.654967529296876,-0.37100627251714463,-4.279283585351705,-2.8519921898961065
1780626358461997300,8.664997314453124,0.6303939985454082,-5.611661485403776,-3.385505484618246
1780626358472027400,8.67502734375,-0.44069560255408285,-5.108315657669306,-2.0962755291581154
1780626358482057200,8.68505712890625,-0.8057660552814603,-2.8869162037611007,-0.3991638609871268
1780626358492087300,8.69508740234375,-1.5207038386464118,-0.6375666666537523,0.637708997733891
1780626358502117400,8.705117431640625,-1.8774504074037075,1.041840710261464,1.283216978780925
1780626358512147500,8.7151474609375,-1.4963713614225387,2.3651269568413493,1.3397175952903926
1780626358522177500,8.725177490234374,-1.2991481228843331,3.219091225841641,1.009304906707257
1780626358532207600,8.73520751953125,-1.5705241006091235,3.132197370764613,0.8659579275242983
1780626358542237200,8.7452373046875,-1.42617934256047,2.087082168877125,0.9809266612239181
1780626358552267300,8.755267333984374,-0.6833017051294445,0.9445774368613957,1.0927445296771823
1780626358562297300,8.76529736328125,-0.014518062435090542,0.22347966956198215,1.1066044204644858
1780626358572327400,8.775327392578125,0.4908496265158057,-0.16010989793539046,0.9630009823024273
1780626358582357500,8.785357421875,0.8583993288382887,-0.623186259123683,0.8679825652197003
1780626358592387300,8.79538720703125,0.5576166393652559,-1.095465332943201,1.0689793309472502
1780626358602417400,8.80541748046875,-0.5906561546579003,-1.4479583359092474,1.1407921559441834
1780626358612447200,8.815447265625,-1.4966475480154156,-1.4721160410881042,1.1963375175554305
1780626358622477300,8.825477294921875,-1.6440297740638254,-1.3724714255094528,1.372780637589097
1780626358632507400,8.83550732421875,-1.279051091273129,-1.313739835077524,1.808762947885692
1780626358642537500,8.845537353515626,-0.8257491051241755,-1.1325380492746828,2.205970121847093
1780626358652567300,8.8555673828125,-0.6055564944088458,-0.8377940554440021,2.159494932528585
1780626358662597400,8.865597412109375,-0.7551575655505061,-0.46755672147274013,2.0069787045925853
1780626358672627200,8.875627197265626,-1.2470093548461794,-0.35614977190792557,1.6287217302948236
1780626358682657300,8.8856572265625,-1.5509461244359612,-0.3149047383278608,0.9263674611058086
1780626358692687400,8.895687255859375,-1.7851769051149486,-0.2637257552325725,0.13526863093916325
1780626358702717200,8.90571728515625,-2.006826144379377,-0.3862380361795425,-0.5705470307501033
1780626358712747300,8.915747314453125,-2.2372096019804477,-0.6755261026918887,-1.3661921991094945
1780626358722777000,8.925777099609375,-2.1070754478529095,-0.7260720485806464,-2.0101966437257826
1780626358732807200,8.93580712890625,-1.8239514569282531,-0.726537328004837,-2.4905945804625746
1780626358742837200,8.945837158203124,-1.4025307559475302,-0.9148889855623245,-3.0372280535206198
1780626358752867300,8.955867431640625,-0.60176294734478,-0.762419957768917,-3.474472346577048
1780626358762897200,8.965897216796876,0.530431987580657,0.35195641187131405,-3.773763628448546
1780626358772927200,8.97592724609375,0.9667875151038169,2.1000866118788717,-3.9275077907443046
1780626358782957300,8.985957275390625,0.6696537035271525,3.2604975874632594,-4.019335595092177
1780626358792987400,8.9959873046875,0.6620858986213803,3.5476305217683315,-3.9319744147643445
1780626358803017200,9.006017333984374,0.6805608819887041,2.9789439145952463,-3.4890167124971745
1780626358813047300,9.01604736328125,0.17097995925694703,1.555305196428299,-2.7416227666854858
1780626358823077000,9.0260771484375,-0.3523746372833848,0.21050737526416777,-1.85551271636188
1780626358833107200,9.036107177734374,-0.42853725498765705,-0.4487742795914411,-1.18057668851763
1780626358843137300,9.04613720703125,-0.43073885668516154,-0.7103437335729599,-0.7357165136300027
1780626358853167400,9.05616748046875,-0.4380126470804214,-0.6704986299186945,-0.38058030267879367
1780626358863197400,9.066197509765624,-0.1599076533615589,-0.4978314482271671,-0.0861464525095187
1780626358873227300,9.076227294921875,0.1843432986989617,-0.3781903388023376,0.061674585081264374
1780626358883257000,9.086257080078125,0.3982940924152732,-0.20776947473287583,0.13876456502983345
1780626358893287200,9.096287109375,0.4052735760390758,0.050450084298849104,0.20698986866250632
1780626358903317200,9.106317138671875,0.256984756539762,0.2837912226617336,0.22081260577719658
1780626358913347300,9.116347412109375,-0.17815291962623594,0.34706747078597544,0.15292095454568042
1780626358923377200,9.126377197265626,-0.5450292527318,0.2510363695293665,0.08274461730993353
1780626358933407200,9.1364072265625,-0.7782023410513996,0.089262922295928,0.0733153385143727
1780626358943437300,9.146437255859375,-0.7256655136063694,-0.10006488681733608,0.09803138996204361
1780626358953467100,9.156467041015626,-0.6330111953064799,-0.18067513158023357,0.07848066712198778
1780626358963497200,9.166497314453125,-0.8907914861381053,-0.07135024898648262,-0.08298921232130378
1780626358973527300,9.17652734375,-1.0395677968934178,0.07451309693157672,-0.3485713360102847
1780626358983557000,9.18655712890625,-0.9298644363760947,0.16061492484807968,-0.500670872904174
1780626358993587200,9.196587158203124,-0.7548959920048713,0.1375473529934883,-0.4901070645201951
1780626359003617300,9.2066171875,-0.5106491364851594,0.009524784192442893,-0.41254243453089146
1780626359013647400,9.2166474609375,-0.2126049320653081,-0.14235621457993983,-0.3402623573483899
1780626359023677400,9.226677490234374,-0.05204845940619707,-0.34960078865587707,-0.2943089999468997
1780626359033707300,9.236707275390625,0.10057868155837059,-0.36413375639915463,-0.28094387040659785
1780626359043737000,9.246737060546875,0.09698182611018419,-0.3295043415665626,-0.3162999920785427
1780626359053767200,9.25676708984375,-0.01809124474674463,-0.3620446751654148,-0.4404407510101795
1780626359063797200,9.26679736328125,-0.030772739404439923,-0.334494404938817,-0.5816384432047605
1780626359073827300,9.276827392578125,0.001812310118973255,-0.33858372007906434,-0.7281604722272604
1780626359083857400,9.286857421875,0.03658434829264879,-0.23421032241284845,-0.8991608166851103
1780626359093887200,9.29688720703125,0.085766020090878,0.014164718952775001,-1.1011947434406726
1780626359103917300,9.306917236328125,-0.012397124758362769,0.3475397644728422,-1.3139032089456915
1780626359113947100,9.316947021484374,-0.337262116086483,0.7842237932980061,-1.4355467442341148
1780626359123977200,9.326977294921875,-0.6138578742861748,1.1059621770381927,-1.4342635725557804
1780626359134007300,9.33700732421875,-0.8665200914517045,1.1438853727191687,-1.3566194841220973
1780626359144037000,9.347037109375,-1.0955790224507451,0.986784008949995,-1.209349705472216
1780626359154067200,9.357067138671875,-1.2058441085040568,0.805578131493926,-0.8731802799932659
1780626359164097300,9.36709716796875,-1.0101964487195014,0.5023679226130247,-0.40690873949285594
1780626359174127400,9.37712744140625,-0.6775596543461084,0.19385668471455572,0.06333429845441133
1780626359184157200,9.3871572265625,-0.3828980781018734,-0.20109832640588282,0.46289914145786315
1780626359194187300,9.397187255859375,-0.15984189464896917,-0.5323036266714334,0.7351259273257106
1780626359204217000,9.407217041015626,0.02539543028026819,-0.5979378360986709,0.7886237818226218
1780626359214247200,9.4172470703125,0.11629589065015315,-0.2872626981645822,0.6390365200106054
1780626359224277200,9.42727734375,0.2175055635884404,0.4312105658501386,0.4238009471807629
1780626359234307300,9.437307373046876,0.14355536123663187,1.3245990827441214,0.21708185828365384
1780626359244337400,9.44733740234375,-0.03499152614325285,2.241355031222105,0.20396547934003173
1780626359254367200,9.4573671875,-0.02167904010564089,2.7927561570733785,0.4510202318873256
1780626359264397000,9.46739697265625,0.23602087896615265,2.9372265873283148,0.7724824290346354
1780626359274427100,9.47742724609375,0.5839373677968979,2.7407237720191477,1.1059029211316258
1780626359284457200,9.487457275390625,0.8166586206957698,2.3818548042804,1.364100049135834
1780626359294487300,9.4974873046875,0.335579862087965,1.1691723741889,1.2785467950128018
1780626359304517400,9.507517333984374,0.14120119932591915,1.2586971622914076,1.248836278012395
1780626359314547200,9.517547119140625,0.6908499285519123,-0.15184475841522216,1.3828782532334327
1780626359324577300,9.527577392578126,0.6327747562021017,-2.0053654241770507,1.358747582191974
1780626359334607400,9.537607421875,-0.3197095082610845,-3.638065410453081,1.2668297614730895
1780626359344637200,9.54763720703125,-1.2887328195929526,-5.166077526286244,1.0696293192885815
1780626359354667300,9.557667236328125,-1.753193036355078,-6.175078627741336,0.6961117946028709
1780626359364697300,9.567697265625,-1.339285195222497,-6.410227692309022,0.39201559666767716
1780626359374727200,9.57772705078125,-0.575899022769928,-5.885529279944301,0.13972206668406725
1780626359384757200,9.58775732421875,0.23351970980018377,-4.977997086885571,-0.2032052355572581
1780626359394787300,9.597787353515624,0.606253829023242,-4.004090095165371,-0.44970133130848405
1780626359404817400,9.6078173828125,0.4637479768395424,-3.1775439944446084,-0.4929978905908763
1780626359414847200,9.61784716796875,0.37151363751739264,-2.685852948668599,-0.38243747485280033
1780626359424877000,9.627876953125,0.6507791994482278,-2.2675047870010134,-0.2885194202274084
1780626359434907100,9.6379072265625,0.8244283779144287,-1.734968520617485,-0.35358883537873625
1780626359444937200,9.647937255859375,1.0405825268939137,-0.7149924361616372,-0.42253962200805545
1780626359454967300,9.65796728515625,1.3178104455173014,0.6529039365172385,-0.346479880156368
1780626359464997400,9.667997314453125,1.9731141366526483,1.7953911328762768,-0.17126038363352417
1780626359475027200,9.678027099609375,2.854156089931726,2.6352006197959184,0.041324528557062146
1780626359485057300,9.688057373046876,3.460824344974756,3.2667660002082584,0.2203016240477562
1780626359495087000,9.698087158203125,3.123840461307764,3.2656811275810003,0.3384815748788416
1780626359505117200,9.7081171875,0.5766060019955038,2.1005402008652685,0.41721871924623843
1780626359515147300,9.718147216796876,-0.43515813443213697,0.6709978116124868,0.5742579775646328
1780626359525177300,9.72817724609375,-0.16031711094528436,0.5316425324141979,0.9807678174003958
1780626359535208200,9.738208251953125,0.267236685962975,1.2173317172020672,1.6186922114506364
1780626359545237200,9.7482373046875,1.4460250297591088,1.7076520591467619,2.0677216348469254
1780626359555268400,9.758268310546875,1.9177005847275257,1.3543027316123246,2.205129287108779
1780626359565298400,9.76829833984375,0.9468316455289721,0.01542787075638771,2.233472753539681
1780626359575327200,9.7783271484375,-0.37109891923666,-1.8432219745874403,1.7750383729383348
1780626359585358000,9.788358154296875,-0.5185328754723072,-2.976012537318468,0.763998897523433
1780626359595388200,9.79838818359375,-0.20598463714271784,-3.004452449861169,-0.03944192968085408
1780626359605418200,9.808418212890626,-0.024356150360405445,-2.404031564775109,-0.5846642207667231
1780626359615448300,9.8184482421875,0.12975976785719395,-1.1982798107296229,-0.8712934433333576
1780626359625478100,9.82847802734375,0.5207198641225695,0.3945815016329288,-0.8764294910475611
1780626359635508200,9.83850830078125,0.9156021022677421,1.7348089461416005,-0.7341941263683139
1780626359645538300,9.848538330078124,0.8682344941541552,2.3592951819479464,-0.6047488312877715
1780626359655568400,9.858568359375,0.5431330637216568,2.3449936848729847,-0.48838002153187987
1780626359665599000,9.868598876953126,0.14346066869050264,1.6416507699728011,-0.412670846683532
1780626359675628800,9.87862890625,-0.12108721657991409,0.5499900900095701,-0.29092998850047586
1780626359685659000,9.888658935546875,-0.28464696270823475,-0.446432100379467,-0.259647107616812
1780626359695689000,9.89868896484375,-0.247407949899137,-1.07209848588109,-0.4310724725537002
1780626359705718800,9.90871875,-0.10372487062960863,-1.3108949670404195,-0.6203657948754727
1780626359715748900,9.918748779296875,0.04465221167504787,-1.2827788796246051,-0.6750104082547128
1780626359725779000,9.928779052734376,0.13159428980797527,-0.95587156881392,-0.6689828185282647
1780626359735808800,9.938808837890624,0.16244360157996415,-0.3300222279608249,-0.5716033714026212
1780626359745838800,9.9488388671875,0.27522943828254937,0.348767260441184,-0.425921665661782
1780626359755869000,9.958868896484375,0.5218912459895014,0.7734586536556481,-0.2891115409016609
1780626359765899000,9.96889892578125,0.5013005856424569,1.0323024820655584,-0.24270780938416717
1780626359775929000,9.97892919921875,0.1762824495792389,0.9011936376869678,-0.22213775343373415
1780626359785958700,9.988958740234375,-0.08439794660806656,0.47799277529120443,-0.10093699347674846
1780626359795988700,9.99898876953125,-0.20854893467277288,0.032494156369566915,0.045817017670720814
1780626359806018800,10.009018798828125,-0.25852964789420363,-0.3211602915912866,0.15187968359813092
1780626359816049000,10.019048828125,-0.23487843093276023,-0.4457482097685337,0.16046061106920242
1780626359826079000,10.029078857421876,-0.19761253011673688,-0.30413667607605455,0.14930851793587208
1780626359836108800,10.03910888671875,-0.1645414506420493,-0.017446809363365172,0.17118541870117188
1780626359846139000,10.049138916015625,-0.21518442716449498,0.23777882854938506,0.1937640379950404
1780626359856169000,10.0591689453125,-0.28166707011461256,0.29456454561054707,0.22554536992013452
1780626359866198800,10.06919873046875,-0.4298831166386604,0.14390344402194022,0.19292510295286774
1780626359876228900,10.079228759765625,-0.5777329601988196,-0.0883306098818779,0.14601342191323638
1780626359886259000,10.089259033203126,-0.7175728080436586,-0.2871843722313642,0.13476312910243868
1780626359896288800,10.099288818359375,-0.7716438593186438,-0.426280708232522,0.14010098299905657
1780626359906318800,10.10931884765625,-0.6483563562154769,-0.48457916794419287,0.14889394578561185
1780626359916349000,10.119348876953126,-0.4873005557321012,-0.43585050061047076,0.22801694766543804
1780626359926379000,10.12937890625,-0.4082210276678204,-0.33349428798556324,0.2378337736070156
1780626359936408800,10.139408935546875,-0.40448315631374715,-0.21499650337696075,0.14787592784948647
1780626359946439000,10.14943896484375,-0.4115292754329741,-0.12517419363260268,0.1518645590942353
1780626359956468700,10.15946875,-0.41002354704514143,-0.06084346801936626,0.14109430488534272
1780626359966498800,10.169498779296875,-0.33778584769964215,-0.04610533309280872,0.17367723551690578
1780626359976529000,10.17952880859375,-0.23638898162618277,-0.09093348585665226,0.19885325089283287
1780626359986559000,10.18955908203125,-0.07517404505833983,-0.0729804805368185,0.27675781689360734
1780626359996589000,10.199589111328125,0.08434782385602593,0.0470563502073288,0.3546377599097788
1780626360006619000,10.209618896484375,0.13568988855853675,0.05910042374432087,0.41909949149154124
1780626360016648700,10.219648681640624,0.07161445288062095,-0.0067465516507625575,0.4271375442575663
1780626360026678800,10.2296787109375,0.10644611228704452,-0.027086159846186637,0.3962016501806676
1780626360036708900,10.239708984375,0.09687507780008017,-0.025262451550364492,0.27249051483795045
1780626360046739000,10.249739013671874,-0.07886040542088449,0.0314314955741167,0.09472966326922178
1780626360056768800,10.259768798828125,-0.27452187453508375,0.10780863281190395,-0.012048603581637143
1780626360066798800,10.269798828125,-0.3768261377770453,0.10547872855961322,-0.03712561556249857
1780626360076829000,10.279828857421874,-0.3975182126719504,0.003970657196640968,-0.02894618156440556
1780626360086859000,10.28985888671875,-0.374976710518077,-0.0875935277789831,0.032711013990640636
1780626360096888800,10.299888916015625,-0.22280586195364593,-0.17942659282386303,0.03231792301982641
1780626360106919000,10.3099189453125,-0.022644451071694494,-0.3727192139148712,0.05623875070288777
1780626360116948700,10.31994873046875,0.06048281801342964,-0.5591571468055248,0.1627976026494056
1780626360126978800,10.329978759765625,0.07061711240634322,-0.6630494829565287,0.08193930140957235
1780626360137009000,10.3400087890625,0.02507116676196456,-0.7459855403184891,-0.15161087659411132
1780626360147039000,10.3500390625,-0.3308090674895793,-0.6910662016510963,-0.32869777442403136
1780626360157069000,10.360069091796875,-0.783769108333066,-0.46551674007773397,-0.3939784942384809
1780626360167099000,10.370098876953126,-1.082811603075266,-0.1977963622510433,-0.43737003832794724
1780626360177128700,10.380128662109374,-1.3046996195316314,0.03633680327236652,-0.4574085446849465
1780626360187158800,10.39015869140625,-1.2736860571086406,0.21027005937695503,-0.39182716142348945
1780626360197188900,10.40018896484375,-0.7560428239524364,0.1776239273160696,-0.2426478958904743
1780626360207219000,10.410218994140624,-0.10024901121258735,0.061651861792802805,-0.07471914089769124
1780626360217249000,10.4202490234375,0.4140601090848446,-0.043138884502649306,0.0055599722146987916
1780626360227278800,10.43027880859375,0.5911363393902779,0.025161329263448714,-0.03435921958908438
1780626360237309000,10.440308837890624,0.27825229323506356,0.15190964034497736,-0.1390102651529014
1780626360247338800,10.4503388671875,-0.2483691961467266,0.17867431315183638,-0.20814444552510974
1780626360257368800,10.460368896484376,-0.5105506080141291,0.13336509887278078,-0.1091591706380248
1780626360267399000,10.47039892578125,-0.4029390321442857,0.11339490851163864,0.1528766587462276
1780626360277429000,10.480428955078125,-0.10132109742350875,0.1213432371675968,0.43959991627186534
1780626360287458800,10.490458740234375,0.15282204248216003,0.012014847442507743,0.562662086186558
1780626360297489000,10.500489013671874,0.2961702637741342,-0.27695348559617994,0.6779875974345951
1780626360307519000,10.51051904296875,0.23839138922346753,-0.4528390448123216,0.7938153591163456
1780626360317549000,10.520549072265625,0.21381463664863257,-0.44574002646207805,0.5761328315258025
1780626360327579000,10.530578857421874,0.07812949733044952,-0.5530763655871153,0.16292765876986084
1780626360337608700,10.540608642578125,-0.212713379142154,-0.5367027384132147,-0.16914660634994505
1780626360347638800,10.550638671875,-0.4368588008701801,-0.5892401503801346,-0.2356187279060483
1780626360357668900,10.5606689453125,-0.27828151932954787,-0.6475988158464432,-0.08625811445675789
1780626360367699000,10.570698974609375,0.03070142773389816,-0.6407616633027792,0.17072276962548494
1780626360377729000,10.58072900390625,0.2436240474462509,-0.5931804124385118,0.4163546497628092
1780626360387758800,10.5907587890625,0.4762929856359958,-0.62203533552289,0.5767889573469758
1780626360397788700,10.60078857421875,0.4797451719164848,-0.6158849961996078,0.5700847104679793
1780626360407818800,10.61081884765625,0.37557168073654174,-0.49025604453682897,0.3954029010184109
1780626360417848800,10.620848876953126,0.34437282487452026,-0.22835516664385794,0.03291610810868442
1780626360427879000,10.63087890625,0.3811772456586361,0.0667804568529129,-0.3727973206523806
1780626360437909000,10.640908935546875,0.5641776053160429,0.323724004599452,-0.7310817665014415
1780626360447938800,10.650938720703126,0.7507903102517127,0.46318566678166384,-0.9361357717305421
1780626360457969000,10.660968994140624,0.8219634491056204,0.48729368759989733,-1.0053181020934134
1780626360467999000,10.6709990234375,0.6454997977405786,0.3254167799919844,-0.9671920773167163
1780626360478028800,10.68102880859375,0.39023558138310904,0.19761749855279923,-0.8627885767731815
1780626360488059000,10.691058837890624,0.07998013929896987,0.13721417551636694,-0.7476155526731163
1780626360498089000,10.7010888671875,-0.16349018802344797,0.11557634420394897,-0.5872155126847326
1780626360508118800,10.711118896484376,-0.27815467807948585,0.15084697954952717,-0.3618672727718949
1780626360518148900,10.72114892578125,-0.29170858992384746,0.15603753392994402,-0.18367153691723942
1780626360528179000,10.731178955078125,-0.31444417161140586,0.17244447885155678,-0.09151179720126092
1780626360538209000,10.741208984375,-0.3959796779930591,0.1853787792265415,-0.028701851414516567
1780626360548238800,10.75123876953125,-0.2247188559681177,0.14877660301625728,0.05310206011235714
1780626360558268700,10.7612685546875,-0.004650492686964571,0.057009004423022265,0.07120945227630436
1780626360568298800,10.771298828125,-0.04680621137116104,-0.015360066217184066,0.08335157936029136
1780626360578328800,10.781328857421874,-0.010432546687126159,0.10197510435283183,0.14256978426538408
1780626360588359000,10.79135888671875,-0.03273264130055904,0.3502186282932758,0.22270627403669058
1780626360598389000,10.801388916015625,-0.12647420684788374,0.6011433541417122,0.26410532913468776
1780626360608418800,10.811418701171876,-0.025205204937793314,0.6720639795392751,0.2647028566364199
1780626360618449000,10.821448974609375,0.14817746807932852,0.5219079048633575,0.2328380111463368
1780626360628478700,10.831478759765625,-0.0022118308305740355,0.21328911493718622,0.13141235736981033
1780626360638508800,10.8415087890625,-0.30956918598618355,-0.13987725724577904,-0.009176847537606954
1780626360648539000,10.851538818359375,-0.5958779444267973,-0.3576426408141851,-0.19523053035102783
1780626360658569000,10.86156884765625,-0.7693658313840627,-0.45743923208415505,-0.367718117691949
1780626360668598800,10.871598876953126,-0.7647124526202678,-0.396698055395484,-0.5038370453175157
1780626360678628900,10.88162890625,-0.6819482446938753,-0.32028000162541864,-0.6314128201991319
1780626360688659000,10.891658935546875,-0.7122492749333381,-0.20883096648454666,-0.7608694403912871
1780626360698689000,10.90168896484375,-0.6832780319929123,-0.14381050504148005,-0.7705832443498074
1780626360708718800,10.91171875,-0.6549445024341345,-0.0725754068672657,-0.6719085697818548
1780626360718749000,10.9217490234375,-0.5923638353586197,0.06942600292563438,-0.4566442823141813
1780626360728778800,10.93177880859375,-0.45616212482042606,0.2629553553819656,-0.21185791309028862
1780626360738808800,10.941808837890624,-0.42099663034975526,0.29700375545620916,0.03374349884353578
1780626360748839000,10.9518388671875,-0.26519816587269307,0.09714344641268252,0.32369543609209356
1780626360758869000,10.961868896484376,0.008690123466588557,-0.26334990765750405,0.534883340966329
1780626360768899000,10.971899169921874,-0.21130641668736933,-0.746795103135705,0.5720807065907866
1780626360778928600,10.9819287109375,-0.6596387977302074,-1.1168109033107756,0.45366789685189723
1780626360788958700,10.991958740234375,-0.8207663482755422,-1.221360826587677,0.33310075862333177
1780626360798988800,11.00198876953125,-0.7427315069586038,-1.2172007842987775,0.2560106508105993
1780626360809019000,11.012018798828125,-0.5084475347876548,-0.9968757793754338,0.19173954643011093
1780626360819049000,11.022049072265625,-0.2574579270094633,-0.7435580209106206,0.06972235552370548
1780626360829079000,11.0320791015625,-0.27677927980674427,-0.5867816513121128,-0.19534137031435966
1780626360839108900,11.04210888671875,-0.4893535427391529,-0.5880038865834474,-0.5153642553735525
1780626360849139000,11.052138916015625,-0.6770803463965654,-0.6280512348115443,-0.788903548612073
1780626360859168800,11.062168701171874,-0.8534832074850797,-0.5798007063835859,-0.9302323929056525
1780626360869198800,11.07219873046875,-1.045164301726222,-0.33219957199990746,-0.9413217230010777
1780626360879229000,11.08222900390625,-1.1800076564580202,0.1892266868263483,-0.8119702436838299
1780626360889258800,11.0922587890625,-1.1215373473107815,0.8369616962730884,-0.5877628443691879
1780626360899288800,11.102288818359375,-0.820925338229537,1.4532435828357935,-0.3022995237767696
1780626360909319000,11.11231884765625,-0.6570727466344833,1.7094208223849534,-0.02283244792446494
1780626360919349000,11.122348876953126,-0.7865829236447811,1.1905518468260765,0.20659297829940915
1780626360929379000,11.132379150390625,-1.0963356860369444,0.056896191698312754,0.44733518669903277
1780626360939409000,11.142408935546875,-1.4847323615550994,-1.1497925509363411,0.590016979971528
1780626360949438700,11.152438720703126,-1.555797363859415,-1.9268565356075762,0.7067403022535145
1780626360959468800,11.16246875,-1.2087573656022548,-2.1678695237725973,0.8444351008936762
1780626360969499000,11.172498779296875,-0.8813789301484822,-1.596075598233938,0.8595328629128635
1780626360979529000,11.182529052734376,-0.7169961771994828,-0.406550756368041,0.6876799202136695
1780626360989559000,11.19255908203125,-0.641920185688138,0.5779015947639942,0.3222692757464945
1780626360999588900,11.2025888671875,-0.7346037300825119,1.162316516944766,-0.20667349618971348
1780626361009618700,11.21261865234375,-0.7812590982735157,1.3273498427569865,-0.7678554268211126
1780626361019648800,11.222648681640624,-0.5834264956653118,1.1300672752469778,-1.1835448906734585
1780626361029678800,11.232678955078125,-0.28445525779472663,0.5966723462074994,-1.340410838251561
1780626361039709000,11.242708984375,-0.050700277933944014,-0.030044425129890442,-1.2518065259948372
1780626361049739000,11.252739013671874,-0.061865833337046205,-0.505086533921957,-0.9822953192286192
1780626361059768800,11.262768798828125,-0.1416086110830307,-0.8211690838575363,-0.7354480719521641
1780626361069800000,11.272800048828126,-0.1725905727913603,-0.7776192804664372,-0.5925568737126886
1780626361079830000,11.282830078125,-0.2928617602806538,-0.3334656464129686,-0.5619955851018429
1780626361089859800,11.29285986328125,-0.46758711661100383,0.1500526143014431,-0.5771168741270899
1780626361099889700,11.3028896484375,-0.43535307248234745,0.44247722527384753,-0.5948543370001018
1780626361109919700,11.312919677734374,-0.24286416898965835,0.5232277552902698,-0.5782708664678037
1780626361119949800,11.32294970703125,-0.15420629991479218,0.437825015553832,-0.6241729320734739
1780626361129980000,11.33297998046875,-0.4162942248124629,0.28146307197511194,-0.7807616701453923
1780626361140010000,11.343010009765624,-0.8971464811880141,0.13506255044043064,-0.993566070305556
1780626361150039800,11.353039794921875,-1.0370505533754826,0.04889116441905498,-1.0722029691688715
1780626361160070000,11.36306982421875,-0.7795629618801176,-0.04194704436957836,-0.9857054199330508
1780626361170100000,11.373099853515624,-0.3912976576566696,0.049554596763849254,-0.9132580233596265
1780626361180129800,11.3831298828125,-0.16203867404088376,0.22087854715287683,-0.8818364646576344
1780626361190160000,11.393159912109375,-0.21916297540664673,0.3056727996021509,-0.9308965559028088
1780626361200190000,11.40318994140625,-0.8524106098175048,0.27701836752593517,-0.8833765337064862
1780626361210219800,11.4132197265625,-1.142592118038237,-0.0647889907747507,-0.6420291990205645
1780626361220249900,11.423249755859375,-1.0491865429796279,-0.23207214134037493,-0.33470191020965573
1780626361230280000,11.433280029296874,-0.9799345814466476,0.11656009454429149,-0.010341069011390208
1780626361240310000,11.44331005859375,-1.1113768955633043,0.908959010991454,0.3276630976140499
1780626361250340000,11.453340087890625,-0.9915469855681062,1.9631413164317606,0.6310442791476846
1780626361260369700,11.46336962890625,-0.5031996972620487,2.8071862489640713,0.9163748402059078
1780626361270399700,11.473399658203125,0.44170682542324063,3.0891262908011674,1.2770736537203191
1780626361280429800,11.483429931640625,1.2675167208239435,2.7624107031702994,1.59578304502815
1780626361290460000,11.4934599609375,1.2062418756499886,1.5982739850610495,1.686025041489303
1780626361300490000,11.503489990234375,1.0660568676292896,-0.25184476330280303,1.465954595848918
1780626361310519800,11.513519775390625,0.9184449244782328,-1.8644599929273127,0.9955120898067951
1780626361320550000,11.5235498046875,0.6849503491193055,-3.028928134948015,0.5527855659469961
1780626361330579700,11.533579833984374,0.12723989399075508,-3.34548531665802,0.25092618715316056
1780626361340609800,11.54360986328125,-0.2503238373458385,-3.240917857724428,0.21877982130795717
1780626361350639900,11.553639892578126,0.22558687097430227,-2.8180063336640595,0.3972074662223458
1780626361360670000,11.563669921875,0.985036288499832,-1.9921318485945463,0.6032300972878932
1780626361370699800,11.57369970703125,1.5666767775312065,-1.3203788347005843,0.6491013293638825
1780626361380729900,11.583729736328126,1.6679881572782993,-1.0277671767234802,0.47123687129020686
1780626361390760000,11.593760009765624,1.127220653644204,-1.022700540983677,0.10023819755762815
1780626361400790000,11.6037900390625,0.43883916103243825,-1.1646487592846155,-0.30217034443914886
1780626361410819800,11.61381982421875,-0.011866671143472195,-1.390945824354887,-0.49548780771046874
1780626361420850000,11.623849853515624,-0.1325543670117855,-1.4722481430351733,-0.36725744137763977
1780626361430879700,11.633879638671875,0.0968394950300455,-1.2288017902433872,-0.08044862446039915
1780626361440909800,11.643909912109375,0.408516503483057,-0.765530783265829,0.18984540324658156
1780626361450940000,11.65393994140625,0.7535802332311868,-0.049527124235033984,0.37924423176944255
1780626361460970000,11.663969970703125,1.0118091446131467,0.5826777231246233,0.4870756609350443
1780626361471000000,11.674,0.9073334556162357,0.9036281713575124,0.5024675835952163
1780626361481030000,11.68402978515625,0.517636218893528,0.8148141618728637,0.50476387783885
1780626361491059700,11.694059814453125,-0.13543605992794036,0.5405547376662493,0.5759557213932276
1780626361501089800,11.70408984375,-0.7873410485357045,0.3109142073869705,0.5863844686880707
1780626361511120000,11.714119873046876,-1.1951268996566533,0.032978140494227405,0.5564449652373791
1780626361521150000,11.72414990234375,-1.0430822347551583,-0.15491642094552516,0.5672869695082307
1780626361531180000,11.734179931640625,-0.41389819652140136,-0.16707389172911644,0.5051271581932902
1780626361541209900,11.7442099609375,0.28476562065184113,-0.036436756515502926,0.40635172666460273
1780626361551240000,11.754239990234375,0.7331915251970291,0.13373393218517302,0.32995530020445585
1780626361561269800,11.764269775390625,0.9197346720278262,0.10904314304292201,0.3227931534901261
1780626361571299800,11.7742998046875,0.9042647156953811,0.039344168394804,0.34934885972142216
1780626361581330000,11.784329833984375,0.5754086089044809,-0.0792155755341053,0.3973062504217028
1780626361591359700,11.79435986328125,-0.12356500487029552,-0.2538677935630083,0.3461038864508271
1780626361601389800,11.804389892578126,-0.7223971594601869,-0.585067248609662,0.1685465946301818
1780626361611420000,11.814419921875,-0.9530360531270503,-0.8941291061282157,-0.08046265298575163
1780626361621450000,11.824449951171875,-0.9070558077186346,-1.1440145520567893,-0.2742334129825234
1780626361631480000,11.83447998046875,-0.6999854211658239,-1.4671376681536434,-0.4219660599038005
1780626361641510000,11.844510009765624,-0.5024193605393171,-1.8233523219913244,-0.5887254788562655
1780626361651539700,11.854539794921875,-0.42504152182638644,-2.135572351279855,-0.7636652816548943
1780626361661569800,11.86456982421875,-0.5279378326773643,-2.2118086187422272,-0.9889996391728519
1780626361671600000,11.87460009765625,-0.7422884393662214,-2.162165174651146,-1.1055085880517959
1780626361681630000,11.8846298828125,-1.0040876104503869,-1.9636136101186275,-0.9997069111481308
1780626361691660000,11.894659912109375,-1.244250119265914,-1.6922826405793427,-0.5979343289673328
1780626361701689900,11.90468994140625,-1.2485785038590431,-1.4412965399324893,0.07334346863031387
1780626361711720000,11.914719970703125,-1.1052239258915186,-1.179880815207958,0.6662108695968986
1780626361721750000,11.92475,-1.1102858854562043,-1.1015969675660133,1.0408569599211215
1780626361731780000,11.934780029296874,-1.272409461301565,-1.297947222661972,1.1456073742061852
1780626361741810200,11.94481005859375,-1.4534136787056922,-1.549463484662771,0.9894669644236564
1780626361751840000,11.954840087890625,-1.4985639030307532,-1.6682593754351138,0.5806619993880391
1780626361761869800,11.964869873046876,-1.2526210572481156,-1.6071265690803527,0.03882598973959684
1780626361771900000,11.97489990234375,-0.7300742699593306,-1.1683896993786096,-0.5272416671067476
1780626361781930000,11.984929931640625,-0.05283727169632911,-0.3801186765164137,-0.8492264268234372
1780626361791960000,11.9949599609375,0.4344499861627817,0.3438929324030876,-0.7056675584554671
1780626361801990100,12.004990234375,0.6592398615404963,0.5478215137988328,-0.06781885998994111
1780626361812020000,12.01502001953125,0.7043225735872983,-0.15945815602838992,0.606477408646047
1780626361822050000,12.025050048828126,0.7277583942323923,-1.1733692413568495,0.8410460429772734
1780626361832080000,12.035079833984375,0.28121552695482965,-1.5563748714864254,0.6598261369958519
1780626361842110000,12.04510986328125,0.03669453066885471,-0.8212503324002027,0.4441957196295261
1780626361852140000,12.05514013671875,0.09892536139339209,0.3245522721171379,0.3806277950823307
1780626361862169900,12.065169921875,0.7824477235361933,1.3411357915252446,0.5827516651436686
1780626361872200000,12.075199951171875,2.0697434960633516,2.3831816689699887,0.9096309189036488
1780626361882230000,12.08522998046875,3.0833664121001956,3.3081530726075172,1.1326353721693156
1780626361892260000,12.095260009765624,3.4876591604083775,3.384073698249459,0.8721002296715974
1780626361902290200,12.105290283203125,3.535234566053748,2.7925457291930913,0.18401713548451662
1780626361912320000,12.115320068359376,3.0959874087423085,1.7088275326669216,-0.7747910713031888
1780626361922349800,12.125349853515624,2.190503964906931,0.5765858359903097,-1.51158705073297
1780626361932380000,12.1353798828125,1.2887766587346792,-0.6361755045562982,-1.5852467457056045
1780626361942410000,12.145409912109375,0.846418091404438,-1.2895979119896888,-1.1748556805223225
1780626361952440000,12.155440185546874,0.17697276993095873,-1.6018232019752263,-0.32187399281859397
1780626361962470100,12.16547021484375,-0.4565700480341911,-1.6024077238649128,0.5421154111117125
1780626361972500000,12.1755,-0.45326574579179285,-0.9596785598814487,1.0345634127348662
1780626361982529800,12.18552978515625,-0.06308627851009369,0.3581272094607353,1.5124036278128623
1780626361992559900,12.195559814453125,0.3944406318575144,1.5590940673172473,1.8831775528788566
1780626362002590000,12.20558984375,0.047432782304286956,1.7423124536395072,2.060871038299799
1780626362012620000,12.2156201171875,0.2608031457841396,1.9803297671198843,1.9149597615867853
1780626362022650000,12.225650146484375,0.5169312854945659,2.224050845199823,1.3917226539462804
1780626362032680000,12.235679931640625,0.9653130586370825,2.457517071247101,0.630114597082138
1780626362042710000,12.2457099609375,1.6661504204571247,2.649395733886957,0.05134966348707676
1780626362052740000,12.255739990234375,1.969472273018956,2.1801386382371186,-0.17753741807639598
1780626362062771200,12.265771240234375,1.80646373103261,1.1386761136382817,-0.0908919848024845
1780626362072801000,12.275801025390624,1.4471657242268323,0.4788099368929863,-0.05293956302702427
1780626362082830800,12.285830810546875,0.943868411809206,0.505526678904891,-0.367840794223547
1780626362092861000,12.29586083984375,0.8384855448395013,0.39451077448427674,-0.36902152844071384
1780626362102891000,12.30589111328125,0.48081952314972876,0.09502338551878929,-0.12374036143720149
1780626362112921000,12.315921142578125,-0.008871873241662978,-0.08667992006540298,-0.1437958919942379
1780626362122951000,12.325950927734375,-0.2597363933354616,-0.08798106579184532,-0.14648177007734775
1780626362132981000,12.33598095703125,-0.46791444886922834,0.1628004521936178,-0.377790525829792
1780626362143011000,12.346010986328125,-0.5703527868196367,0.4969949974030256,-0.8115583749473094
1780626362153041000,12.356041015625,-1.0353221221476792,0.4283101682335138,-1.2097568980336189
1780626362163071000,12.366071044921876,-0.735293465912342,0.30393209341466426,-1.468720553430915
1780626362173101000,12.37610107421875,-0.45879532286822794,-0.12092647306025027,-1.8088345518171787
1780626362183131000,12.386130859375,-0.3655883391216397,-0.5819809730321168,-1.9984663123130797
1780626362193161000,12.396160888671876,-0.8613912041306495,-1.4598644622802734,-1.9125065232157705
1780626362203191000,12.40619091796875,-1.1222378967955708,-1.9668144519865511,-1.5750117674171924
1780626362213221000,12.41622119140625,-1.010346378584206,-2.1605828738957644,-1.1572001968443393
1780626362223251200,12.426251220703126,-1.2779349467247725,-2.1864742709994314,-0.6781734023302793
1780626362233281000,12.436281005859374,-1.2539841622948646,-1.8702339001536368,-0.27394845856130123
1780626362243310800,12.446310791015625,-1.0141127453804015,-1.306582364538312,-0.061601592910289764
1780626362253341000,12.4563408203125,-0.7160346386909484,-0.5409709172517061,-0.1839326720714569
1780626362263371000,12.46637109375,-0.7033972754359245,0.2098755071014166,-0.7223375382274388
1780626362273401000,12.476401123046875,-0.7076178157404065,0.6167430743336677,-1.2838976545214653
1780626362283431200,12.48643115234375,-0.6112567518770694,0.7279220603615045,-1.7002590262860058
1780626362293461000,12.4964609375,-0.614510200715065,0.5514613316059113,-1.8400474362045525
1780626362303491000,12.506490966796875,-1.0500409678518772,0.13501695773303507,-1.7677590295851229
1780626362313521000,12.51652099609375,-1.2772297210648655,-0.14038754485547542,-1.2085235568463801
1780626362323551000,12.526551025390624,-1.2752812173455952,-0.18780337602496147,-0.26348551673591136
1780626362333581000,12.5365810546875,-1.416345054027438,-0.11302958233058452,0.5451835665106773
1780626362343611000,12.54661083984375,-1.258300564189255,0.13964870918691158,1.178251168179512
1780626362353641000,12.556640869140624,-1.2535849338442087,0.4424392313510179,1.3797551527768372
1780626362363671000,12.566671142578125,-1.1825152553647755,0.6488228046834469,1.133690141919255
