time,seconds_elapsed,z,y,x
1780626349866288400,0.069288330078125,0.3499227464199066,-0.6050732135772705,0.1715073436498642
1780626349876318500,0.079318359375,0.654170036315918,-0.22763550281524658,-0.21188828349113464
1780626349886348500,0.0893486328125,0.9159941673278809,0.2832312285900116,-0.47619688510894775
1780626349896378600,0.099378662109375,1.0424386262893677,0.7330913543701172,-0.5834859609603882
1780626349906408400,0.109408447265625,0.9827428460121155,0.9132670164108276,-0.6231385469436646
1780626349916438500,0.1194384765625,0.7549728155136108,0.901806116104126,-0.6032203435897827
1780626349926468600,0.129468505859375,0.4834502637386322,0.7225095629692078,-0.5528975129127502
1780626349936498400,0.13949853515625,0.2704557180404663,0.36769717931747437,-0.4638264775276184
1780626349946528500,0.149528564453125,0.1618727743625641,-0.06387367844581604,-0.33072543144226074
1780626349956558600,0.15955859375,0.1592569649219513,-0.44801899790763855,-0.18523617088794708
1780626349966588400,0.16958837890625,0.2429896742105484,-0.7179543375968933,-0.04168832302093506
1780626349976618500,0.179618408203125,0.3735520541667938,-0.8431023359298706,0.08233800530433655
1780626349986648600,0.189648681640625,0.5121727585792542,-0.8467516899108887,0.14360934495925903
1780626349996678700,0.1996787109375,0.636410653591156,-0.6709288358688354,0.13891854882240295
1780626350006708500,0.20970849609375,0.7313150763511658,-0.2910100519657135,0.1309186816215515
1780626350016738300,0.21973828125,0.7718589901924133,0.09892905503511429,0.14219853281974792
1780626350026768400,0.229768310546875,0.7445301413536072,0.33303102850914,0.12100135535001755
1780626350036798500,0.239798583984375,0.6457880139350891,0.4967295229434967,0.1171548143029213
1780626350046828500,0.24982861328125,0.5086855292320251,0.5288296341896057,0.12900908291339874
1780626350056858600,0.259858642578125,0.40260782837867737,0.3633458912372589,0.16773144900798798
1780626350066888400,0.269888427734375,0.3603663742542267,0.035562679171562195,0.24689018726348877
1780626350076918500,0.27991845703125,0.34224432706832886,-0.3477877080440521,0.3592037558555603
1780626350086948400,0.2899482421875,0.35032087564468384,-0.669404923915863,0.48612335324287415
1780626350096978400,0.299978515625,0.3787299394607544,-0.8931161761283875,0.6186181902885437
1780626350107008500,0.310008544921875,0.4321042001247406,-1.0068614482879639,0.7654007077217102
1780626350117038600,0.32003857421875,0.47588565945625305,-1.080958366394043,0.9294743537902832
1780626350127068400,0.330068359375,0.47391465306282043,-1.2199697494506836,1.077625036239624
1780626350137098500,0.340098388671875,0.41715291142463684,-1.372586965560913,1.1956822872161865
1780626350147128600,0.350128662109375,0.3289783000946045,-1.562919020652771,1.246841311454773
1780626350157158700,0.36015869140625,0.23575058579444885,-1.7439862489700317,1.219940423965454
1780626350167188500,0.3701884765625,0.16774597764015198,-1.8150172233581543,1.1286011934280396
1780626350177218600,0.380218505859375,0.1188683956861496,-1.7555344104766846,0.9527662992477417
1780626350187248400,0.390248291015625,0.07613078504800797,-1.6123096942901611,0.7026810646057129
1780626350197278500,0.400278564453125,-0.0029858360067009926,-1.4002776145935059,0.3898395895957947
1780626350207308500,0.41030859375,-0.08523676544427872,-0.9782371520996094,0.06118636578321457
1780626350217338600,0.420338623046875,-0.016637302935123444,-0.8239603638648987,-0.09997332841157913
1780626350227368700,0.43036865234375,0.1202840656042099,-0.9282729625701904,-0.14750781655311584
1780626350237398300,0.440398193359375,0.22049294412136078,-1.0103760957717896,-0.16949190199375153
1780626350247428400,0.450428466796875,0.29520097374916077,-1.0357859134674072,-0.18299493193626404
1780626350257458400,0.46045849609375,0.4113832712173462,-1.0856313705444336,-0.12085996568202972
1780626350267488500,0.470488525390625,0.5632758736610413,-1.149932861328125,0.0082428939640522
1780626350277518600,0.4805185546875,0.7258425951004028,-1.1742022037506104,0.11726994812488556
1780626350287548400,0.49054833984375,0.8612667322158813,-1.0575330257415771,0.1303681582212448
1780626350297577500,0.500577392578125,0.8497902750968933,-1.025459885597229,0.036281172186136246
1780626350307607300,0.510607177734375,0.6634768843650818,-1.038761019706726,-0.14457222819328308
1780626350317638400,0.520638427734375,0.39047613739967346,-0.9783928990364075,-0.33723923563957214
1780626350327667500,0.53066748046875,0.15866313874721527,-0.9095113277435303,-0.48492562770843506
1780626350337697500,0.540697509765625,0.02591678872704506,-0.86698317527771,-0.5764864087104797
1780626350347727600,0.5507275390625,-0.014835435897111893,-0.8363032937049866,-0.6186529994010925
1780626350357757700,0.5607578125,-0.029111575335264206,-0.7591919898986816,-0.6591687202453613
1780626350367787500,0.57078759765625,-0.045955270528793335,-0.7445842623710632,-0.6955826878547668
1780626350377817300,0.5808173828125,-0.06466557830572128,-0.7676456570625305,-0.6933072805404663
1780626350387847400,0.590847412109375,-0.06317567825317383,-0.7944743037223816,-0.6493363380432129
1780626350397877500,0.60087744140625,-0.01890242099761963,-0.858482301235199,-0.5932942032814026
1780626350407907600,0.610907470703125,0.05594678595662117,-0.986170768737793,-0.5708349347114563
1780626350417937400,0.6209375,0.16923826932907104,-1.143926978111267,-0.5814142227172852
1780626350427967500,0.630967529296875,0.31078580021858215,-1.2172520160675049,-0.5860462188720703
1780626350437997600,0.64099755859375,0.4121846556663513,-1.109141230583191,-0.6262457966804504
1780626350448027600,0.651027587890625,0.4401819407939911,-0.9237793684005737,-0.7075390815734863
1780626350458057500,0.661057373046875,0.42219820618629456,-0.7409694194793701,-0.8169224858283997
1780626350468087600,0.671087646484375,0.4206370711326599,-0.5545440912246704,-0.9276601672172546
1780626350478117400,0.681117431640625,0.46519893407821655,-0.3749493658542633,-1.0173803567886353
1780626350488147500,0.6911474609375,0.5757230520248413,-0.26359114050865173,-1.0721194744110107
1780626350498177500,0.701177490234375,0.7390750050544739,-0.2961832284927368,-1.0610909461975098
1780626350508207600,0.71120751953125,0.8121074438095093,-0.4839225113391876,-0.9875347018241882
1780626350518237700,0.72123779296875,0.7189691662788391,-0.6835047006607056,-0.8925148844718933
1780626350528267300,0.731267333984375,0.5825191736221313,-0.8785969614982605,-0.8137961030006409
1780626350538297300,0.74129736328125,0.5147777199745178,-0.9663465023040771,-0.7595803141593933
1780626350548327400,0.751327392578125,0.4929632246494293,-0.8821197748184204,-0.7808622121810913
1780626350558357500,0.761357421875,0.5184752941131592,-0.7806357741355896,-0.9003795385360718
1780626350568387600,0.7713876953125,0.6276395916938782,-0.7864012122154236,-1.030071496963501
1780626350578417700,0.781417724609375,0.8713573813438416,-0.935897707939148,-1.0258290767669678
1780626350588447500,0.791447509765625,1.2454588413238525,-1.1592075824737549,-0.809258222579956
1780626350598477600,0.8014775390625,1.6244767904281616,-1.3582240343093872,-0.44452276825904846
1780626350608507400,0.81150732421875,1.9302266836166382,-1.5596580505371094,-0.019248947501182556
1780626350618537500,0.821537353515625,2.1506028175354004,-1.8213118314743042,0.35508081316947937
1780626350628567600,0.831567626953125,2.328691244125366,-2.2143149375915527,0.6421163082122803
1780626350638597400,0.841597412109375,2.5828945636749268,-2.7734482288360596,0.8718630075454712
1780626350648627500,0.85162744140625,2.9318714141845703,-3.2977356910705566,1.041183590888977
1780626350658657500,0.861657470703125,3.2652459144592285,-3.745201826095581,1.0802644491195679
1780626350668688100,0.871688232421875,3.591254949569702,-4.288775444030762,1.0358258485794067
1780626350678718200,0.88171826171875,3.9752204418182373,-4.799107074737549,1.0700080394744873
1780626350688747800,0.891747802734375,4.480260372161865,-5.129678726196289,1.2292940616607666
1780626350698777900,0.90177783203125,5.0679450035095215,-5.258113384246826,1.4705654382705688
1780626350708808000,0.911807861328125,5.662909984588623,-5.2677788734436035,1.7063339948654175
1780626350718838000,0.921838134765625,6.295557498931885,-5.2714409828186035,1.887328863143921
1780626350728868000,0.9318681640625,6.946788787841797,-5.264570713043213,2.0917418003082275
1780626350738898000,0.94189794921875,7.528281211853027,-5.184957981109619,2.315863609313965
1780626350748928000,0.951927978515625,8.011625289916992,-5.052244663238525,2.433398485183716
1780626350758958000,0.9619580078125,8.374070167541504,-4.905438423156738,2.428858995437622
1780626350768988000,0.97198779296875,8.582952499389648,-4.652811050415039,2.4608163833618164
1780626350779018000,0.98201806640625,8.727001190185547,-4.301502227783203,2.6102962493896484
1780626350789048000,0.992048095703125,8.79773998260498,-4.008449554443359,2.893850088119507
1780626350799078000,1.002077880859375,8.715450286865234,-3.8662562370300293,3.4424095153808594
1780626350809108000,1.01210791015625,8.388649940490723,-3.5635077953338623,4.378623962402344
1780626350819138000,1.022137939453125,7.683102607727051,-2.8800206184387207,5.593808650970459
1780626350829168000,1.032168212890625,6.432164669036865,-1.9709837436676025,6.714869976043701
1780626350839198200,1.0421982421875,4.804492950439453,-1.0338784456253052,7.414215564727783
1780626350849228000,1.05222802734375,3.0085935592651367,0.047958020120859146,7.562100887298584
1780626350859257900,1.0622578125,1.4633302688598633,1.1564171314239502,6.966998100280762
1780626350869288000,1.072287841796875,0.20328064262866974,2.1625540256500244,5.737674236297607
1780626350879318000,1.082318115234375,-0.8499072790145874,2.939455509185791,4.239456653594971
1780626350889348000,1.09234814453125,-1.6620986461639404,3.358778476715088,2.855964422225952
1780626350899378200,1.102378173828125,-2.31392502784729,3.394585132598877,2.0019357204437256
1780626350909408000,1.112407958984375,-2.8643341064453125,3.143345594406128,1.6156995296478271
1780626350919437800,1.122437744140625,-3.176541805267334,2.9393460750579834,1.2259894609451294
1780626350929468000,1.132468017578125,-3.288337230682373,2.5647315979003906,0.9309612512588501
1780626350939498000,1.142498046875,-3.417059898376465,1.8968745470046997,0.7449563145637512
1780626350949528000,1.152528076171875,-3.5383355617523193,0.99224853515625,0.6052178144454956
1780626350959558000,1.162557861328125,-3.46401047706604,0.032781798392534256,0.29782402515411377
1780626350969588000,1.172587890625,-3.4746885299682617,-0.7810751795768738,-0.04572081193327904
1780626350979618000,1.1826181640625,-3.4351277351379395,-1.4452714920043945,-0.37513938546180725
1780626350989648100,1.192648193359375,-3.3480961322784424,-1.7737572193145752,-0.6663707494735718
1780626350999678000,1.202677978515625,-2.980597734451294,-1.7847508192062378,-1.058111310005188
1780626351009708000,1.2127080078125,-1.986126184463501,-1.8484076261520386,-1.5993250608444214
1780626351019737900,1.22273779296875,-1.1515223979949951,-2.0795865058898926,-1.716686487197876
1780626351029768000,1.232767822265625,-0.51381915807724,-2.592057704925537,-1.526651382446289
1780626351039798000,1.242798095703125,-0.2612011432647705,-2.9923086166381836,-1.1675398349761963
1780626351049828000,1.252828125,-0.3158566653728485,-3.128873348236084,-0.8802054524421692
1780626351059858200,1.262858154296875,-0.4961465001106262,-2.987639904022217,-0.7705032825469971
1780626351069888000,1.272887939453125,-0.7084566354751587,-2.455620050430298,-0.985170841217041
1780626351079917800,1.282917724609375,-0.8641059994697571,-1.465314507484436,-1.2701306343078613
1780626351089948000,1.292947998046875,-0.9382084012031555,-0.5226485133171082,-1.4788316488265991
1780626351099978000,1.30297802734375,-0.9548414349555969,0.025451727211475372,-1.6966626644134521
1780626351110008000,1.313008056640625,-0.9358823895454407,0.007710548117756844,-1.7677903175354004
1780626351120038100,1.3230380859375,-0.9489575028419495,-0.2996113896369934,-1.6152604818344116
1780626351130068000,1.33306787109375,-0.955434262752533,-0.6957904696464539,-1.47324800491333
1780626351140098000,1.34309814453125,-0.8061503171920776,-1.040952205657959,-1.3826743364334106
1780626351150127900,1.3531279296875,-0.4615463614463806,-0.4887392818927765,-1.803545355796814
1780626351160158000,1.363157958984375,-0.11363401263952255,1.3764182329177856,-3.531550407409668
1780626351170188000,1.37318798828125,-0.11972173303365707,2.0678083896636963,-3.7496261596679688
1780626351180217900,1.3832177734375,-0.17164000868797302,2.8524436950683594,-5.169337272644043
1780626351190248000,1.393248046875,-0.5078340172767639,2.0260534286499023,-6.28450870513916
1780626351200278000,1.403278076171875,-0.5166723728179932,1.8352516889572144,-6.353191375732422
1780626351210308000,1.41330810546875,-0.43355754017829895,1.5616705417633057,-5.977781295776367
1780626351220338200,1.423338134765625,-0.0026907199062407017,1.5535017251968384,-4.500339031219482
1780626351230368000,1.433367919921875,0.2916998863220215,0.766534686088562,-3.4951446056365967
1780626351240397800,1.443397705078125,0.32481634616851807,-0.5303128361701965,-3.286959648132324
1780626351250428000,1.453427978515625,0.38530898094177246,-1.2717053890228271,-3.151506185531616
1780626351260458000,1.4634580078125,0.6250119805335999,-1.4723215103149414,-3.0904576778411865
1780626351270488000,1.473488037109375,1.187846064567566,-1.1606955528259277,-3.2027974128723145
1780626351280518100,1.48351806640625,1.6428005695343018,-0.638545036315918,-3.416121006011963
1780626351290548000,1.4935478515625,1.8202067613601685,0.06843126565217972,-3.5823073387145996
1780626351300577800,1.503577880859375,1.7361323833465576,0.5127527713775635,-3.4319591522216797
1780626351310608000,1.51360791015625,1.429457426071167,0.4326574206352234,-2.877810478210449
1780626351320638000,1.523637939453125,1.0773898363113403,-0.014379020780324936,-1.961182713508606
1780626351330668000,1.53366796875,0.8780456185340881,-1.0392965078353882,-1.1303446292877197
1780626351340698000,1.543697998046875,0.6723734736442566,-2.6513922214508057,-0.7152388691902161
1780626351350728000,1.55372802734375,0.5456501245498657,-3.922459602355957,-0.4198027551174164
1780626351360758000,1.563758056640625,0.998693585395813,-4.365597724914551,-0.1154123842716217
1780626351370788000,1.5737880859375,1.7216625213623047,-5.094998359680176,0.225412055850029
1780626351380818000,1.58381787109375,2.4360594749450684,-5.700450897216797,0.5043609142303467
1780626351390848000,1.593847900390625,2.9219894409179688,-5.6714301109313965,0.5591687560081482
1780626351400878000,1.603878173828125,3.469965696334839,-4.700991630554199,0.16794654726982117
1780626351410908000,1.613907958984375,4.446183204650879,-3.3229174613952637,-0.46240371465682983
1780626351420938000,1.62393798828125,4.835733890533447,-1.1565256118774414,-0.48486557602882385
1780626351430968000,1.633968017578125,4.7220587730407715,0.2641107439994812,0.004768039099872112
1780626351440998100,1.643998046875,4.394377708435059,1.1065348386764526,0.5034685730934143
1780626351451028200,1.6540283203125,3.9933667182922363,1.1360807418823242,0.8144410848617554
1780626351461057800,1.664057861328125,3.6248068809509277,0.4167446792125702,1.2735072374343872
1780626351471087900,1.674087890625,3.3852224349975586,-0.5414955019950867,1.848230004310608
1780626351481118000,1.684117919921875,3.457292318344116,-1.684267282485962,2.3035714626312256
1780626351491148000,1.69414794921875,3.630263328552246,-2.488746166229248,2.70479416847229
1780626351501178000,1.70417822265625,3.7970633506774902,-2.806835651397705,3.0470023155212402
1780626351511208000,1.7142080078125,3.79950213432312,-2.784994125366211,3.292656421661377
1780626351521238000,1.724238037109375,3.5597774982452393,-2.4939463138580322,3.4281792640686035
1780626351531267800,1.734267822265625,3.122540235519409,-1.9450976848602295,3.5068297386169434
1780626351541298000,1.7442978515625,2.520179510116577,-1.2590447664260864,3.5429279804229736
1780626351551328000,1.754327880859375,1.7878689765930176,-0.7698068618774414,3.396395444869995
1780626351561358000,1.764358154296875,1.011263370513916,-0.5244672298431396,3.1259307861328125
1780626351571388000,1.774387939453125,0.3182832598686218,-0.5413913130760193,2.6194567680358887
1780626351581418000,1.78441796875,-0.3555111289024353,-0.7344359159469604,1.7920526266098022
1780626351591448000,1.794447998046875,-0.9717809557914734,-1.073846459388733,0.7945784330368042
1780626351601478100,1.80447802734375,-1.434183955192566,-1.3206024169921875,-0.2293739765882492
1780626351611508000,1.814508056640625,-1.6638994216918945,-1.3886831998825073,-1.195591688156128
1780626351621538000,1.8245380859375,-1.6211047172546387,-1.257246732711792,-1.9871474504470825
1780626351631568000,1.83456787109375,-1.2554092407226562,-0.49388569593429565,-2.2680351734161377
1780626351641598000,1.844597900390625,-1.0331809520721436,0.3114953935146332,-2.416872024536133
1780626351651628000,1.8546279296875,-0.775888204574585,1.0635966062545776,-2.334890365600586
1780626351661658000,1.864658203125,-0.5201689004898071,1.628990888595581,-2.0073812007904053
1780626351671688200,1.874688232421875,-0.2469698190689087,2.0422067642211914,-1.5096536874771118
1780626351681718000,1.884718017578125,0.020948901772499084,2.3705482482910156,-0.8858648538589478
1780626351691747800,1.894747802734375,0.296609491109848,2.5880351066589355,-0.26172879338264465
1780626351701778000,1.90477783203125,0.5012136101722717,2.8074724674224854,0.25467392802238464
1780626351711808000,1.91480810546875,0.6198734045028687,3.6002771854400635,0.40625840425491333
1780626351721838000,1.924838134765625,0.6320260167121887,4.598302364349365,0.2690812945365906
1780626351731868000,1.934867919921875,0.5807324647903442,4.829758644104004,0.058923784643411636
1780626351741898000,1.94489794921875,0.6242531538009644,3.7537317276000977,-0.08417323976755142
1780626351751928000,1.954927978515625,0.5767122507095337,2.020664930343628,-0.20677505433559418
1780626351761958000,1.9649580078125,0.42679470777511597,0.2985050678253174,-0.45411378145217896
1780626351771988000,1.974988037109375,0.19058804214000702,-1.0671242475509644,-0.7833811640739441
1780626351782018000,1.98501806640625,-0.1014324277639389,-1.5397250652313232,-1.130570888519287
1780626351792047900,1.9950478515625,-0.3237491250038147,-1.147038221359253,-1.3621021509170532
1780626351802078000,2.005077880859375,-0.40438592433929443,-0.8606353402137756,-1.191755771636963
1780626351812107000,2.01510693359375,-0.4190945625305176,-0.4995748996734619,-0.9316930770874023
1780626351822136800,2.02513671875,-0.4274177849292755,-0.2612117826938629,-0.6629302501678467
1780626351832167000,2.0351669921875,-0.44377145171165466,-0.28220680356025696,-0.5120664238929749
1780626351842197000,2.045197021484375,-0.45916908979415894,-0.5322083234786987,-0.49457865953445435
1780626351852227800,2.055227783203125,-0.4507409632205963,-0.799368679523468,-0.5337409973144531
1780626351862257000,2.0652568359375,-0.44631654024124146,-0.7729853987693787,-0.6127539873123169
1780626351872287000,2.075286865234375,-0.47725367546081543,-0.5996394157409668,-0.6452935934066772
1780626351882317000,2.085317138671875,-0.530389666557312,-0.3407500982284546,-0.6405555009841919
1780626351892347100,2.09534716796875,-0.5582144260406494,-0.05590267851948738,-0.5899069905281067
1780626351902377000,2.105376953125,-0.5437084436416626,0.18326303362846375,-0.5041438937187195
1780626351912407000,2.115406982421875,-0.5071224570274353,0.3889186978340149,-0.3887677490711212
1780626351922436900,2.125436767578125,-0.4418082535266876,0.7215623259544373,-0.3341151773929596
1780626351932467000,2.135467041015625,-0.41644322872161865,1.2629443407058716,-0.3784776031970978
1780626351942497000,2.1454970703125,-0.4545801877975464,1.8998842239379883,-0.43489521741867065
1780626351952527000,2.155527099609375,-0.48738980293273926,2.6528429985046387,-0.4684624969959259
1780626351962557200,2.16555712890625,-0.449448823928833,3.532461404800415,-0.5134723782539368
1780626351972587000,2.1755869140625,-0.30734068155288696,4.2007365226745605,-0.5226792097091675
1780626351982616800,2.185616943359375,-0.028551176190376282,4.009167194366455,-0.44464394450187683
1780626351992647000,2.19564697265625,0.14898578822612762,3.2770252227783203,-0.36808711290359497
1780626352002677000,2.205677001953125,0.27772435545921326,2.1201465129852295,-0.3690811097621918
1780626352012707000,2.21570703125,0.3306341767311096,0.5657818913459778,-0.5176876187324524
1780626352022737200,2.225737060546875,0.23688773810863495,-1.1116870641708374,-0.7852018475532532
1780626352032767000,2.23576708984375,0.1103028953075409,-2.32477068901062,-1.043513298034668
1780626352042797000,2.245797119140625,0.051831476390361786,-2.62636137008667,-1.0822995901107788
1780626352052827000,2.255826904296875,0.07404516637325287,-2.4336788654327393,-0.9053549766540527
1780626352062857000,2.26585693359375,0.12883836030960083,-2.190647840499878,-0.671144962310791
1780626352072887000,2.275886962890625,0.1922982931137085,-2.048344373703003,-0.5497085452079773
1780626352082916900,2.285916748046875,0.2493099570274353,-2.00815486907959,-0.6173850297927856
1780626352092947000,2.295947021484375,0.25598064064979553,-1.8773587942123413,-0.8242146372795105
1780626352102977000,2.30597705078125,0.1879817098379135,-1.4052380323410034,-1.0369423627853394
1780626352113007000,2.316007080078125,0.05800427123904228,-0.7413448095321655,-1.1910288333892822
1780626352123037200,2.326037109375,-0.09863487631082535,-0.25606152415275574,-1.2413320541381836
1780626352133067000,2.33606689453125,-0.15644598007202148,-0.005166739225387573,-1.1516059637069702
1780626352143096800,2.346096923828125,-0.12506327033042908,0.15001310408115387,-0.9566671252250671
1780626352153127000,2.356126953125,-0.05242128297686577,0.19640669226646423,-0.7189133763313293
1780626352163157000,2.366156982421875,-0.01150462031364441,0.14558717608451843,-0.46880042552948
1780626352173187000,2.37618701171875,-0.03682702034711838,0.08001429587602615,-0.2555725574493408
1780626352183217200,2.386217041015625,-0.10495354235172272,0.0107941385358572,-0.09825456887483597
1780626352193247000,2.3962470703125,-0.15499193966388702,-0.04316443204879761,0.006746154278516769
1780626352203277000,2.406277099609375,-0.17096033692359924,-0.04931355267763138,0.06212622672319412
1780626352213307000,2.416306884765625,-0.11276495456695557,-0.013927601277828217,0.09335285425186157
1780626352223337000,2.4263369140625,-0.009964562952518463,0.07030647993087769,0.12124152481555939
1780626352233367000,2.436366943359375,0.06386625021696091,0.17571359872817993,0.13688625395298004
1780626352243397000,2.446397216796875,0.11418905109167099,0.2744210362434387,0.1557197868824005
1780626352253427000,2.456427001953125,0.11870231479406357,0.357148677110672,0.21053297817707062
1780626352263457000,2.46645703125,0.04866044968366623,0.38206735253334045,0.27664631605148315
1780626352273487000,2.476487060546875,-0.037648338824510574,0.3095247149467468,0.32744479179382324
1780626352283517000,2.486516845703125,-0.13129562139511108,0.17754076421260834,0.37847357988357544
1780626352293547000,2.496547119140625,-0.1680416464805603,-0.021744918078184128,0.4242511987686157
1780626352303576800,2.506576904296875,-0.12369754165410995,-0.28830239176750183,0.46258291602134705
1780626352313607000,2.51660693359375,0.005396791733801365,-0.6279230117797852,0.47869157791137695
1780626352323637000,2.526636962890625,0.18005461990833282,-0.9588157534599304,0.5115395784378052
1780626352333667000,2.5366669921875,0.3220793902873993,-1.1506248712539673,0.5589339733123779
1780626352343697200,2.546697265625,0.3735505938529968,-1.1851465702056885,0.6061346530914307
1780626352353727000,2.55672705078125,0.34069812297821045,-1.067702293395996,0.645857572555542
1780626352363756800,2.5667568359375,0.2777971923351288,-0.8667141199111938,0.6638445258140564
1780626352373787000,2.576786865234375,0.24610958993434906,-0.679537296295166,0.6396859288215637
1780626352383817000,2.58681689453125,0.2779710590839386,-0.5176461338996887,0.586590051651001
1780626352393847000,2.596846923828125,0.3468678295612335,-0.2947043776512146,0.5119370818138123
1780626352403877000,2.606877197265625,0.4241207242012024,-0.05415371060371399,0.45615148544311523
1780626352413907000,2.616906982421875,0.44638583064079285,0.22294314205646515,0.435244083404541
1780626352423937000,2.62693701171875,0.47964584827423096,0.5105687379837036,0.4359288215637207
1780626352433967000,2.636967041015625,0.5767025947570801,0.818610429763794,0.4552449882030487
1780626352443997000,2.646996826171875,0.7788970470428467,1.1403523683547974,0.49958568811416626
1780626352454027000,2.657027099609375,1.0454577207565308,1.4069308042526245,0.5802685618400574
1780626352464057000,2.66705712890625,1.2844104766845703,1.50265634059906,0.6939453482627869
1780626352474087000,2.6770869140625,1.3552201986312866,1.5939077138900757,0.7943705320358276
1780626352484117000,2.687116943359375,1.2264398336410522,2.006289005279541,0.7981005907058716
1780626352494147000,2.69714697265625,1.0747534036636353,2.154726505279541,0.8108015060424805
1780626352504177200,2.70717724609375,0.9105609655380249,1.85380220413208,0.74595046043396
1780626352514207000,2.71720703125,0.7335741519927979,1.0312527418136597,0.5494986772537231
1780626352524236800,2.72723681640625,0.48239898681640625,-0.1664854884147644,0.2088051587343216
1780626352534267000,2.737266845703125,0.34426188468933105,-1.3851603269577026,-0.18332214653491974
1780626352544297000,2.747296875,0.2961050868034363,-1.955593228340149,-0.37553873658180237
1780626352554327000,2.7573271484375,0.2735294699668884,-1.6635390520095825,-0.31507885456085205
1780626352564357000,2.767357177734375,0.21500352025032043,-0.9436178803443909,-0.1476307511329651
1780626352574387200,2.77738720703125,0.1495896279811859,-0.14405198395252228,0.010191891342401505
1780626352584417000,2.7874169921875,0.059412356466054916,0.5552636981010437,0.06769520044326782
1780626352594446800,2.79744677734375,-0.03015507571399212,1.1274358034133911,0.007912829518318176
1780626352604477000,2.807476806640625,-0.09769514203071594,1.3441702127456665,-0.13302390277385712
1780626352614507000,2.817507080078125,-0.028459878638386726,1.5332285165786743,-0.30513817071914673
1780626352624537000,2.827537109375,0.2725999355316162,1.631365180015564,-0.47247299551963806
1780626352634567000,2.83756689453125,0.5799521803855896,1.5863982439041138,-0.6608993411064148
1780626352644597000,2.847596923828125,0.8056409358978271,1.441007375717163,-0.807869553565979
1780626352654627000,2.857626953125,0.9138065576553345,1.0262075662612915,-0.8209065198898315
1780626352664657000,2.867656982421875,1.0479618310928345,0.6268943548202515,-0.7586778402328491
1780626352674687000,2.87768701171875,1.1356050968170166,0.35787779092788696,-0.7159727215766907
1780626352684717000,2.887717041015625,1.185381293296814,0.12617260217666626,-0.6122510433197021
1780626352694747000,2.897746826171875,1.1960760354995728,-0.28106918931007385,-0.45738551020622253
1780626352704777000,2.90777685546875,1.3677058219909668,-0.7717675566673279,-0.29490649700164795
1780626352714807000,2.91780712890625,1.553890585899353,-1.1391948461532593,-0.16000165045261383
1780626352724837000,2.927837158203125,1.6692967414855957,-1.415007472038269,-0.0616508424282074
1780626352734867200,2.9378671875,1.6754653453826904,-1.5991824865341187,-0.09245216846466064
1780626352744896800,2.947896728515625,1.5093168020248413,-1.6367799043655396,-0.1768859624862671
1780626352754926800,2.9579267578125,1.2324719429016113,-1.6301298141479492,-0.21056056022644043
1780626352764957000,2.96795703125,0.9830194115638733,-1.6473668813705444,-0.018270783126354218
1780626352774987000,2.977987060546875,0.6467183828353882,-1.442238211631775,0.20771920680999756
1780626352785017000,2.98801708984375,0.25776997208595276,-0.9062362313270569,0.3435280919075012
1780626352795047200,2.998047119140625,-0.13198764622211456,-0.19916243851184845,0.3881043493747711
1780626352805077000,3.008076904296875,-0.4266718626022339,0.4780042767524719,0.47580718994140625
1780626352815107000,3.018107177734375,-0.6081175208091736,1.022142767906189,0.6640939712524414
1780626352825137000,3.028136962890625,-0.8250719904899597,1.4185599088668823,0.8725107908248901
1780626352835167000,3.0381669921875,-1.088367223739624,1.679502248764038,1.040477991104126
1780626352845197000,3.048197021484375,-1.366327166557312,1.8651869297027588,1.0784729719161987
1780626352855227000,3.058226806640625,-1.5894430875778198,1.9647382497787476,1.0255115032196045
1780626352865257000,3.068257080078125,-1.5780879259109497,2.04280424118042,0.9129157066345215
1780626352875287000,3.078287109375,-1.3647316694259644,2.2934670448303223,0.6521559953689575
1780626352885317000,3.088317138671875,-0.8714361190795898,2.370185136795044,0.36723440885543823
1780626352895347000,3.098346923828125,-0.04575686529278755,2.030597686767578,0.16163305938243866
1780626352905377000,3.108376953125,0.8873332738876343,1.3132613897323608,0.1051170602440834
1780626352915406800,3.11840673828125,1.5233770608901978,0.4534930884838104,-0.021894685924053192
1780626352925437000,3.12843701171875,1.6087440252304077,-0.2888731360435486,-0.35462480783462524
1780626352935467000,3.138467041015625,1.3643654584884644,-0.6990864872932434,-0.8394570350646973
1780626352945497000,3.1484970703125,0.837107241153717,-0.9638537764549255,-1.2023308277130127
1780626352955527200,3.158527099609375,0.20342671871185303,-1.1114168167114258,-1.344114065170288
1780626352965557000,3.168556884765625,-0.43814629316329956,-1.2013499736785889,-1.351007103919983
1780626352975586800,3.1785869140625,-0.7420752644538879,-0.9854028224945068,-1.3531230688095093
1780626352985617000,3.188616943359375,-0.8447281718254089,-0.6807749271392822,-1.2970123291015625
1780626352995647000,3.19864697265625,-0.8212382793426514,-0.4696592092514038,-1.1604875326156616
1780626353005677000,3.208677001953125,-0.7873061895370483,-0.6564604043960571,-0.8114446997642517
1780626353015707100,3.21870703125,-0.8052971363067627,-1.0007400512695312,-0.37046995759010315
1780626353025737000,3.228737060546875,-0.7802889347076416,-1.0639554262161255,-0.05853133276104927
1780626353035767000,3.23876708984375,-0.7702975273132324,-0.7650839686393738,0.14644311368465424
1780626353045797000,3.248797119140625,-0.6616217494010925,-0.27249062061309814,0.22347354888916016
1780626353055827000,3.258826904296875,-0.47657066583633423,0.10543747991323471,0.2222255915403366
1780626353065857000,3.26885693359375,-0.19344975054264069,0.5105627179145813,0.186264768242836
1780626353075886800,3.278886962890625,0.020664671435952187,0.8694697618484497,0.19710808992385864
1780626353085917000,3.2889169921875,0.22620241343975067,1.1207178831100464,0.14584596455097198
1780626353095947000,3.298947021484375,0.31677863001823425,1.068162441253662,0.18263354897499084
1780626353105977000,3.30897705078125,0.25277626514434814,0.8918144702911377,0.11896701902151108
1780626353116007200,3.319007080078125,0.18475061655044556,0.6848021149635315,0.05158212408423424
1780626353126037000,3.329037109375,0.14759951829910278,0.5365338325500488,0.03456718847155571
1780626353136066800,3.33906689453125,0.15521696209907532,0.5077757239341736,0.02468819171190262
1780626353146097000,3.349096923828125,0.22724728286266327,0.5646934509277344,0.0006480901502072811
1780626353156127000,3.359126953125,0.3109389841556549,0.6058997511863708,0.007028757594525814
1780626353166157000,3.369156982421875,0.35180291533470154,0.5771318078041077,-0.012289604172110558
1780626353176187100,3.379187255859375,0.34342941641807556,0.5160104036331177,-0.06365346163511276
1780626353186217000,3.389217041015625,0.3872079849243164,0.3886929452419281,-0.012975928373634815
1780626353196247000,3.3992470703125,0.4053718149662018,0.25326722860336304,0.09237019717693329
1780626353206276900,3.40927685546875,0.34718868136405945,0.17464430630207062,0.21840031445026398
1780626353216307000,3.419306884765625,0.27799761295318604,0.10128752887248993,0.29199540615081787
1780626353226337000,3.4293369140625,0.21560697257518768,-0.07154965400695801,0.37267637252807617
1780626353236367000,3.4393671875,0.14735601842403412,-0.3039852976799011,0.39701393246650696
1780626353246397000,3.44939697265625,0.13015860319137573,-0.5075063109397888,0.40239426493644714
1780626353256427000,3.459427001953125,0.11875440925359726,-0.6433083415031433,0.3737460970878601
1780626353266457000,3.46945703125,0.09073229134082794,-0.7468940019607544,0.35650157928466797
1780626353276487200,3.479487060546875,-0.069253109395504,-0.8579776287078857,0.33515527844429016
1780626353286517000,3.48951708984375,-0.20656223595142365,-1.2066885232925415,0.49970322847366333
1780626353296546800,3.499546875,-0.3192688226699829,-1.590760350227356,0.6068980693817139
1780626353306577000,3.509576904296875,-0.3672289252281189,-1.8954256772994995,0.7077237367630005
1780626353316607000,3.51960693359375,-0.4470316171646118,-2.001408815383911,0.8030670285224915
1780626353326637000,3.529636962890625,-0.46315228939056396,-1.9012917280197144,0.828043520450592
1780626353336667100,3.539667236328125,-0.40646877884864807,-1.7398793697357178,0.8292563557624817
1780626353346697200,3.549697265625,-0.3902249038219452,-1.5304508209228516,0.7418942451477051
1780626353356726800,3.559726806640625,-0.31288909912109375,-1.4308059215545654,0.6591311693191528
1780626353366756900,3.5697568359375,-0.2360278069972992,-1.5604562759399414,0.6116265058517456
1780626353376787000,3.579786865234375,-0.12259818613529205,-1.7385653257369995,0.5213165283203125
1780626353386817000,3.589817138671875,-0.046665340662002563,-1.7889611721038818,0.3621034026145935
1780626353396847000,3.59984716796875,-0.24994602799415588,-1.6185591220855713,0.26396724581718445
1780626353406877000,3.609876953125,-0.22212988138198853,-1.281686544418335,0.05159487947821617
1780626353416907000,3.619906982421875,-0.18111693859100342,-0.6801103353500366,-0.0973847433924675
1780626353426937000,3.62993701171875,-0.18609699606895447,0.041865795850753784,-0.13462792336940765
1780626353436967000,3.639966796875,-0.29995378851890564,0.6969163417816162,-0.19424811005592346
1780626353446997000,3.6499970703125,-0.39978739619255066,1.1609715223312378,-0.2745559811592102
1780626353457027000,3.660027099609375,-0.3658616542816162,1.6026008129119873,-0.24248191714286804
1780626353467057000,3.670056884765625,-0.43257567286491394,1.9456638097763062,-0.08754803985357285
1780626353477087000,3.6800869140625,-0.37740907073020935,2.2986321449279785,-0.0010498999617993832
1780626353487117000,3.690116943359375,-0.1799178421497345,2.381577730178833,0.10823488980531693
1780626353497147100,3.700147216796875,0.2163730412721634,2.1685433387756348,0.21397171914577484
1780626353507177200,3.71017724609375,0.9377875328063965,1.6614246368408203,0.5390613675117493
1780626353517206800,3.720206787109375,1.9092447757720947,0.9955690503120422,1.1263642311096191
1780626353527236900,3.73023681640625,2.923499345779419,0.13191816210746765,1.6508681774139404
1780626353537267000,3.740266845703125,3.2686634063720703,-0.9890428185462952,1.6812896728515625
1780626353547297000,3.750297119140625,2.6519103050231934,-1.8324300050735474,1.2362622022628784
1780626353557327000,3.7603271484375,1.494584560394287,-1.8200156688690186,0.5703204274177551
1780626353567357200,3.770357177734375,0.4581371247768402,-1.0888620615005493,-0.13594047725200653
1780626353577387000,3.780386962890625,0.038585394620895386,-0.22922910749912262,-0.5150811672210693
1780626353587416800,3.790416748046875,0.04228878766298294,0.2816475033760071,-0.534151017665863
1780626353597447000,3.800447021484375,0.1319056898355484,0.476283997297287,-0.40561315417289734
1780626353607477000,3.81047705078125,0.18929414451122284,0.33535176515579224,-0.273421972990036
1780626353617507000,3.820507080078125,0.2573666572570801,-0.05927172303199768,-0.20313876867294312
1780626353627537000,3.830536865234375,0.33569321036338806,-0.49649497866630554,-0.15722176432609558
1780626353637567000,3.84056689453125,0.44710469245910645,-0.871123194694519,-0.10940523445606232
1780626353647597000,3.85059716796875,0.5862558484077454,-1.1898568868637085,-0.08429720252752304
1780626353657627100,3.860627197265625,0.7144774198532104,-1.5037412643432617,-0.120052270591259
1780626353667657200,3.8706572265625,0.7871254682540894,-1.7903894186019897,-0.19879649579524994
1780626353677687300,3.880687255859375,0.7887976169586182,-1.9926636219024658,-0.25473088026046753
1780626353687717000,3.890717041015625,0.7514165043830872,-2.0837979316711426,-0.2868519425392151
1780626353697747200,3.900747314453125,0.6823210120201111,-2.113607883453369,-0.3014255464076996
1780626353707777000,3.910777099609375,0.5573104023933411,-2.1039741039276123,-0.2852972149848938
1780626353717807000,3.92080712890625,0.3773593008518219,-2.0240042209625244,-0.20639948546886444
1780626353727837200,3.930837158203125,0.24481402337551117,-1.8732246160507202,-0.07647812366485596
1780626353737867000,3.940866943359375,0.21474985778331757,-1.6980259418487549,0.05984269827604294
1780626353747897000,3.95089697265625,0.2664945721626282,-1.6239807605743408,0.14293599128723145
1780626353757927200,3.96092724609375,0.3346081078052521,-1.665937900543213,0.1187686026096344
1780626353767957200,3.970957275390625,0.35811278223991394,-1.7998744249343872,-0.003343666438013315
1780626353777987000,3.980987060546875,0.3390251100063324,-1.8550684452056885,-0.1528996080160141
1780626353788017200,3.99101708984375,0.2802431583404541,-1.7053745985031128,-0.2211834043264389
1780626353798047000,4.001046875,0.16438178718090057,-1.3897130489349365,-0.16156242787837982
1780626353808077000,4.0110771484375,0.054236188530921936,-1.0107393264770508,0.01868661679327488
1780626353818107100,4.021107177734375,-0.0001522192033007741,-0.7074701189994812,0.2531534433364868
1780626353828137200,4.03113720703125,0.056091368198394775,-0.5575615167617798,0.4681653082370758
1780626353838167300,4.041167236328125,0.16900433599948883,-0.5528192520141602,0.6042041182518005
1780626353848197000,4.051197021484375,0.2537335455417633,-0.5779512524604797,0.6153979897499084
1780626353858227000,4.06122705078125,0.2568790018558502,-0.48920702934265137,0.46433475613594055
1780626353868257000,4.071257080078125,0.19806672632694244,-0.34255775809288025,0.2122195065021515
1780626353878287000,4.081287109375,0.11303680390119553,-0.2976909279823303,-0.10358772426843643
1780626353888317200,4.091317138671875,0.05638444051146507,-0.40518608689308167,-0.3716656267642975
1780626353898347300,4.10134716796875,0.0169462189078331,-0.596844494342804,-0.5478246808052063
1780626353908377000,4.111377197265625,-0.038073454052209854,-0.8154261112213135,-0.6355222463607788
1780626353918407200,4.1214072265625,-0.14797252416610718,-1.0743290185928345,-0.7370265126228333
1780626353928437200,4.131437255859375,-0.44876161217689514,-2.07193922996521,-1.153788447380066
1780626353938467000,4.141467041015625,-0.6794557571411133,-3.282820701599121,-1.8356393575668335
1780626353948497200,4.1514970703125,0.09400401264429092,-8.265328407287598,-0.5113471150398254
1780626353958527000,4.16152685546875,0.27008530497550964,-10.915750503540039,1.087510585784912
1780626353968557000,4.17155712890625,-0.4564926028251648,-5.294277667999268,-1.0145593881607056
1780626353978587100,4.181587158203125,-0.24291612207889557,-1.5470260381698608,-3.391073226928711
1780626353988617200,4.1916171875,-0.5410261750221252,0.2087942361831665,-4.703420162200928
1780626353998647300,4.201647216796875,-0.7429254651069641,0.5916463136672974,-5.572101593017578
1780626354008677000,4.211677001953125,-0.7351341247558594,0.35960623621940613,-5.581799507141113
1780626354018707000,4.22170703125,-0.545891284942627,-0.3311852514743805,-4.620541095733643
1780626354028737000,4.231737060546875,-0.28520891070365906,-1.1723051071166992,-2.937546968460083
1780626354038767000,4.24176708984375,-0.015566498041152954,-2.11208438873291,-1.0578829050064087
1780626354048797200,4.251797119140625,-0.09842460602521896,-2.199402332305908,-0.024705007672309875
1780626354058827300,4.2618271484375,-0.07957635074853897,-1.3598130941390991,0.45969921350479126
1780626354068857000,4.271857177734375,0.06038247048854828,0.20681874454021454,0.9096871614456177
1780626354078887200,4.28188720703125,0.14174364507198334,1.6990573406219482,1.313978672027588
1780626354088917000,4.2919169921875,0.13602079451084137,2.538419485092163,1.4786155223846436
1780626354098947000,4.301947021484375,0.19083824753761292,2.314694881439209,1.433072805404663
1780626354108977200,4.31197705078125,0.273355633020401,0.5354593396186829,1.1819061040878296
1780626354119007200,4.32200732421875,0.2924438416957855,-0.7546176910400391,0.27425089478492737
1780626354129037000,4.332037109375,0.29615718126296997,-0.4715022146701813,-0.6875772476196289
1780626354139067100,4.342067138671875,0.3072740137577057,-0.09401325136423111,-1.340131402015686
1780626354149097200,4.35209716796875,0.25519755482673645,-0.05822975933551788,-1.306689977645874
1780626354159127300,4.362127197265625,0.09392505884170532,0.16999487578868866,-0.9405482411384583
1780626354169157000,4.3721572265625,0.10222799330949783,0.13178503513336182,-0.7597724795341492
1780626354179187000,4.38218701171875,0.10062343627214432,0.4862520396709442,-0.4618627727031708
1780626354189217000,4.392217041015625,0.10292257368564606,1.1527332067489624,-0.04858506843447685
1780626354199247000,4.4022470703125,0.4653489589691162,0.9946731328964233,0.024928830564022064
1780626354209277200,4.412277099609375,0.64142906665802,0.8759979009628296,0.0018138247542083263
1780626354219307300,4.422307373046875,0.627922534942627,0.8907994627952576,-0.01625625602900982
1780626354229337000,4.432337158203125,0.522037923336029,0.7195643782615662,0.030789745971560478
1780626354239367000,4.442366943359375,0.5147597789764404,0.4559684693813324,0.023785896599292755
1780626354249397000,4.45239697265625,0.4601958692073822,0.4910600781440735,-0.04300222545862198
1780626354259427000,4.462427001953125,0.3767337203025818,0.6906011700630188,-0.10023222863674164
1780626354269457200,4.47245703125,0.37147578597068787,0.6335640549659729,-0.19217145442962646
1780626354279487200,4.4824873046875,0.34300899505615234,0.585443913936615,-0.2830779254436493
1780626354289517000,4.49251708984375,0.26548153162002563,0.6113616228103638,-0.26907476782798767
1780626354299547100,4.502547119140625,0.23057228326797485,0.3297576308250427,-0.32594791054725647
1780626354309577200,4.5125771484375,0.17259815335273743,0.11296515166759491,-0.4195297658443451
1780626354319607000,4.52260693359375,0.0885181650519371,0.024963118135929108,-0.4201979339122772
1780626354329637000,4.53263720703125,0.06883261352777481,-0.0106056435033679,-0.3474982976913452
1780626354339667200,4.542667236328125,0.08608696609735489,0.019365038722753525,-0.28085827827453613
1780626354349697000,4.552697021484375,0.1375926434993744,0.04617650434374809,-0.19261494278907776
1780626354359727000,4.56272705078125,0.1891075074672699,0.017668962478637695,-0.09676671028137207
1780626354369757200,4.572757080078125,0.2133968472480774,0.023216487839818,0.009747256524860859
1780626354379787300,4.582787353515625,0.2249048948287964,0.08045501261949539,0.013866100460290909
1780626354389817300,4.5928173828125,0.18971818685531616,0.06685593724250793,-0.03282037377357483
1780626354399847000,4.602846923828125,0.13752423226833344,0.011268576607108116,-0.0058713145554065704
1780626354409877000,4.612876953125,0.06808596104383469,-0.06662136316299438,0.04249512404203415
1780626354419907000,4.622906982421875,0.028311647474765778,-0.11273133009672165,0.056908417493104935
1780626354429937200,4.632937255859375,-0.0059422459453344345,-0.07519987970590591,0.0555281862616539
1780626354439967200,4.64296728515625,-0.0043656546622514725,0.058745674788951874,0.037910573184490204
1780626354449997300,4.652997314453125,0.007511583622545004,0.20378322899341583,0.013582628220319748
1780626354460027100,4.663027099609375,0.019737357273697853,0.329054594039917,-0.02023312635719776
1780626354470057000,4.673056884765625,0.036416735500097275,0.3495093584060669,-0.035500116646289825
1780626354480087000,4.683087158203125,0.025213351473212242,0.2339566946029663,-0.03962881863117218
1780626354490117000,4.6931171875,0.03438587859272957,0.08893699944019318,-0.03997085243463516
1780626354500147200,4.703147216796875,0.009959900751709938,-0.050626493990421295,-0.028786372393369675
1780626354510177000,4.713177001953125,0.005832412280142307,-0.12672273814678192,-0.0017821299843490124
1780626354520207000,4.72320703125,0.0005202047759667039,-0.09147286415100098,0.012433825060725212
1780626354530237200,4.7332373046875,-0.033144306391477585,-0.07180902361869812,0.07785837352275848
1780626354540267300,4.743267333984375,-0.06183214485645294,-0.07262368500232697,0.15070833265781403
1780626354550297000,4.753297119140625,-0.0913861095905304,-0.10525475442409515,0.23306606709957123
1780626354560327200,4.7633271484375,-0.09398828446865082,-0.11406715214252472,0.3007226288318634
1780626354570357000,4.77335693359375,-0.09377705305814743,-0.09326393902301788,0.3191406726837158
1780626354580387000,4.783386962890625,-0.07803218066692352,-0.04085958003997803,0.30649787187576294
1780626354590417200,4.793417236328125,-0.034451067447662354,0.046326763927936554,0.2639090120792389
1780626354600447200,4.803447265625,0.23110496997833252,-0.06801579147577286,0.28667426109313965
1780626354610477300,4.813477294921875,0.33309224247932434,0.1050652414560318,0.20528241991996765
1780626354620507100,4.823507080078125,0.07392379641532898,0.2881522476673126,0.17332661151885986
1780626354630537000,4.833536865234375,-0.08084277808666229,0.07719811797142029,0.2947109639644623
1780626354640567000,4.843567138671875,-0.08079830557107925,-0.10335595160722733,0.360371470451355
1780626354650597000,4.85359716796875,-0.09906156361103058,-0.11559922248125076,0.3439529538154602
1780626354660626400,4.86362646484375,-0.09393444657325745,-0.046938665211200714,0.29628103971481323
1780626354670656500,4.873656494140625,-0.07889905571937561,0.0273318849503994,0.23691217601299286
1780626354680686600,4.8836865234375,-0.05945904925465584,0.0558527410030365,0.1878785938024521
1780626354690716200,4.893716064453125,-0.03902245685458183,0.014334279112517834,0.16942721605300903
1780626354700746200,4.903746337890625,-0.02582329884171486,-0.06056099757552147,0.18417100608348846
1780626354710776300,4.9137763671875,-0.025436803698539734,-0.12981070578098297,0.23232443630695343
1780626354720806400,4.923806396484375,-0.02089265175163746,-0.19284772872924805,0.2858462631702423
1780626354730836500,4.93383642578125,-0.01181282103061676,-0.24398338794708252,0.3208145797252655
1780626354740866300,4.9438662109375,-0.006987173575907946,-0.28310656547546387,0.33251383900642395
1780626354750896400,4.953896484375,-0.00016676908126100898,-0.28228726983070374,0.304060697555542
1780626354760926500,4.963926513671875,-0.003601181786507368,-0.260412335395813,0.25324466824531555
1780626354770956300,4.973956298828125,-0.010377278551459312,-0.2572624385356903,0.20096909999847412
1780626354780986400,4.983986328125,-0.007854466326534748,-0.260015070438385,0.16349202394485474
1780626354791016400,4.994016357421875,0.009073503315448761,-0.23387198150157928,0.15236692130565643
1780626354801046300,5.00404638671875,0.04842144250869751,-0.1959959715604782,0.1622626930475235
1780626354811076400,5.014076416015625,0.10523226112127304,-0.17482984066009521,0.18234756588935852
1780626354821106400,5.0241064453125,0.1532013863325119,-0.1678481101989746,0.20338892936706543
1780626354831136500,5.034136474609375,0.20370130240917206,-0.15368260443210602,0.23106811940670013
1780626354841166300,5.044166259765625,0.25199002027511597,-0.11940638720989227,0.25994983315467834
1780626354851196400,5.054196533203125,0.2810418903827667,-0.10912232846021652,0.27838823199272156
1780626354861226200,5.064226318359375,0.2847612798213959,-0.1760699301958084,0.26839205622673035
1780626354871256300,5.07425634765625,0.24942201375961304,-0.2923547029495239,0.23208026587963104
1780626354881286400,5.084286376953125,0.1917019784450531,-0.39377161860466003,0.18861454725265503
1780626354891316500,5.09431640625,0.1370747834444046,-0.4036701023578644,0.17783686518669128
1780626354901346600,5.1043466796875,0.12416192144155502,-0.3557702302932739,0.19567765295505524
1780626354911376400,5.11437646484375,0.1601455807685852,-0.33623605966567993,0.2084212452173233
1780626354921406200,5.12440625,0.23884251713752747,-0.362869530916214,0.19993054866790771
1780626354931436300,5.134436279296875,0.3139306604862213,-0.3614959120750427,0.16621887683868408
1780626354941466400,5.14446630859375,0.4083045423030853,-0.2935522794723511,0.1285513937473297
1780626354951496400,5.154496337890625,0.6043647527694702,-0.1990605592727661,0.0783378928899765
1780626354961526300,5.1645263671875,0.8209980130195618,-0.23411042988300323,-0.023503515869379044
1780626354971556400,5.174556396484375,0.9192913770675659,-0.42672058939933777,-0.19625267386436462
1780626354981586400,5.18458642578125,0.8520902395248413,-0.592384397983551,-0.39506322145462036
1780626354991616500,5.194616455078125,0.6949185729026794,-0.5025471448898315,-0.5387983918190002
1780626355001646300,5.204646240234375,0.5121708512306213,-0.1891324818134308,-0.5955048203468323
1780626355011676400,5.214676513671875,0.3874950706958771,0.07925307750701904,-0.5942394137382507
1780626355021706200,5.224706298828125,0.3745798170566559,0.21356774866580963,-0.551186740398407
1780626355031736300,5.234736328125,0.49552515149116516,0.2735263705253601,-0.5506910681724548
1780626355041766400,5.244766357421875,0.6599615216255188,0.19365043938159943,-0.5902347564697266
1780626355051796500,5.25479638671875,0.8485798239707947,0.041245847940444946,-0.7319542169570923
1780626355061826600,5.26482666015625,0.9991568326950073,-0.11312775313854218,-0.9640297889709473
1780626355071856400,5.2748564453125,1.0438761711120605,-0.2577063739299774,-1.1877278089523315
1780626355081886200,5.28488623046875,0.9512971043586731,-0.2680487632751465,-1.3906902074813843
1780626355091916300,5.294916259765625,0.7249058485031128,-0.10631309449672699,-1.5440073013305664
1780626355101946400,5.3049462890625,0.5037024021148682,0.14907285571098328,-1.6319113969802856
1780626355111976400,5.3149765625,0.3522641658782959,0.2773565351963043,-1.6675726175308228
1780626355122006500,5.325006591796875,0.2544068396091461,0.25042611360549927,-1.6868443489074707
1780626355132036400,5.335036376953125,0.19929401576519012,0.09770291298627853,-1.7447893619537354
1780626355142066400,5.34506640625,0.18241997063159943,-0.1391088217496872,-1.8741103410720825
1780626355152096300,5.35509619140625,0.16740643978118896,-0.36738476157188416,-2.038966417312622
1780626355162126300,5.365126220703125,0.14257699251174927,-0.47067999839782715,-2.193112850189209
1780626355172156400,5.375156494140625,0.10470011085271835,-0.49245500564575195,-2.304677963256836
1780626355182186200,5.385186279296875,0.04998200759291649,-0.49341881275177,-2.3909997940063477
1780626355192216300,5.39521630859375,0.003207264468073845,-0.4029005169868469,-2.37480092048645
1780626355202246400,5.405246337890625,-0.037774525582790375,-0.2074846476316452,-2.1848645210266113
1780626355212276500,5.4152763671875,-0.05766915902495384,-0.045079074800014496,-1.8756922483444214
1780626355222306600,5.425306640625,-0.05544009432196617,-0.03769918903708458,-1.5694489479064941
1780626355232336400,5.43533642578125,-0.06000209227204323,-0.06869834661483765,-1.3516818284988403
1780626355242366200,5.4453662109375,-0.08612184226512909,-0.020002977922558784,-1.1843353509902954
1780626355252396300,5.455396240234375,-0.1355910301208496,0.03333256393671036,-1.0291774272918701
1780626355262426400,5.46542626953125,-0.18050549924373627,0.03345347195863724,-0.9221590757369995
1780626355272456400,5.47545654296875,-0.20180250704288483,0.0907573476433754,-0.8322364091873169
1780626355282486500,5.485486572265625,-0.2048235982656479,0.22379502654075623,-0.7158043384552002
1780626355292516400,5.495516357421875,-0.18994875252246857,0.38466209173202515,-0.5701496005058289
1780626355302546200,5.505546142578125,-0.17348963022232056,0.4972440302371979,-0.43486613035202026
1780626355312576300,5.515576171875,-0.1568608433008194,0.545758843421936,-0.36414268612861633
1780626355322606300,5.5256064453125,-0.16596701741218567,0.5719411969184875,-0.39650338888168335
1780626355332636400,5.535636474609375,-0.16412919759750366,0.5351059436798096,-0.5310664176940918
1780626355342666500,5.54566650390625,-0.17631208896636963,0.4859796464443207,-0.6896634697914124
1780626355352696300,5.5556962890625,-0.2082708775997162,0.4685569703578949,-0.7731778621673584
1780626355362726400,5.565726318359375,-0.23922133445739746,0.4545932114124298,-0.7179180383682251
1780626355372756500,5.575756591796875,-0.2350214570760727,0.37964123487472534,-0.5758137702941895
1780626355382786300,5.585786376953125,-0.19058208167552948,0.2528231143951416,-0.45580241084098816
1780626355392816400,5.59581640625,-0.15316206216812134,0.15272144973278046,-0.4040910601615906
1780626355402846500,5.605846435546875,-0.15058624744415283,0.10204014927148819,-0.392921507358551
1780626355412876300,5.615876220703125,-0.1588371992111206,0.09057027846574783,-0.41680359840393066
1780626355422906400,5.62590625,-0.16083431243896484,0.11262337863445282,-0.4332022964954376
1780626355432936400,5.6359365234375,-0.16200138628482819,0.13739405572414398,-0.4274352490901947
1780626355442966500,5.645966552734375,-0.1349007934331894,0.0776902288198471,-0.4212641716003418
1780626355452996400,5.655996337890625,-0.1094534620642662,0.006801517214626074,-0.41156843304634094
1780626355463026200,5.666026123046875,-0.09476479142904282,-0.037951573729515076,-0.32004037499427795
1780626355473056300,5.67605615234375,-0.08095376193523407,-0.07824081182479858,-0.17552974820137024
1780626355483086300,5.68608642578125,-0.05724656954407692,-0.0918322503566742,-0.059166647493839264
1780626355493116400,5.696116455078125,-0.0548844188451767,-0.06913832575082779,-0.007636907044798136
1780626355503146500,5.706146484375,-0.07410870492458344,-0.03536970540881157,-0.0016455934382975101
1780626355513176300,5.71617626953125,-0.09735818207263947,-0.011592783965170383,-0.0070665981620550156
1780626355523206400,5.726206298828125,-0.112513966858387,0.020429596304893494,-0.03162733465433121
1780626355533236200,5.736236328125,-0.12317106127738953,0.06681898236274719,-0.04580027237534523
1780626355543266300,5.746266357421875,-0.12335934489965439,0.08115184307098389,-0.04801974818110466
1780626355553296400,5.75629638671875,-0.10849516093730927,0.0662415623664856,-0.030290216207504272
1780626355563326500,5.766326416015625,-0.10026705265045166,0.04547981917858124,0.01401013694703579
1780626355573356300,5.776356201171875,-0.0883103609085083,-0.008113897405564785,0.059127338230609894
1780626355583386400,5.786386474609375,-0.07952805608510971,-0.08033189922571182,0.0682811513543129
1780626355593416400,5.79641650390625,-0.08687202632427216,-0.13838650286197662,0.058839112520217896
1780626355603446500,5.806446533203125,-0.10225258022546768,-0.1606300175189972,0.06542271375656128
1780626355613476400,5.816476318359375,-0.11586719751358032,-0.14962808787822723,0.07958182692527771
1780626355623506400,5.82650634765625,-0.11940174549818039,-0.12314775586128235,0.10021121054887772
1780626355633536300,5.836536376953125,-0.1096358597278595,-0.11197227984666824,0.1251680999994278
1780626355643566300,5.84656640625,-0.09917736053466797,-0.08047773689031601,0.15528711676597595
1780626355653596400,5.856596435546875,-0.07658126205205917,-0.05962198227643967,0.19562430679798126
1780626355663627000,5.866626953125,-0.05313932150602341,-0.05658464878797531,0.2210172861814499
1780626355673656800,5.87665673828125,-0.039227474480867386,-0.06763479858636856,0.2154083549976349
1780626355683687000,5.88668701171875,-0.031402572989463806,-0.07680273056030273,0.19901154935359955
1780626355693716700,5.896716796875,-0.026581743732094765,-0.11639589816331863,0.18022659420967102
1780626355703746800,5.906746826171875,-0.015023890882730484,-0.1579531878232956,0.14715173840522766
1780626355713777000,5.91677685546875,-0.015612304210662842,-0.1652064472436905,0.11970418691635132
1780626355723807000,5.926806884765625,-0.029012531042099,-0.14952735602855682,0.11922667920589447
1780626355733836800,5.9368369140625,-0.0392930842936039,-0.1434498131275177,0.14190766215324402
1780626355743867000,5.946866943359375,-0.03726775199174881,-0.14849330484867096,0.17186743021011353
1780626355753897000,5.95689697265625,-0.03118688240647316,-0.1598694771528244,0.1965380311012268
1780626355763927000,5.966927001953125,-0.02371831238269806,-0.15552373230457306,0.21793226897716522
1780626355773956900,5.976956787109375,-0.0184909887611866,-0.12874679267406464,0.2393220216035843
1780626355783986700,5.986986572265625,-0.018939996138215065,-0.10416341572999954,0.2656005024909973
1780626355794016800,5.997016845703125,-0.015346086584031582,-0.07808345556259155,0.2799645662307739
1780626355804046800,6.007046875,-0.017313895747065544,-0.023280922323465347,0.2792481780052185
1780626355814077000,6.017076904296875,-0.03142508491873741,0.046518612653017044,0.29656982421875
1780626355824107000,6.02710693359375,-0.03486242517828941,0.06254418939352036,0.30632176995277405
1780626355834137000,6.03713720703125,-0.030323460698127747,0.03666634485125542,0.2902328372001648
1780626355844166700,6.047166748046875,-0.028742341324687004,0.018785616382956505,0.24023517966270447
1780626355854196700,6.05719677734375,-0.029391765594482422,-0.012242086231708527,0.1890929490327835
1780626355864226800,6.067226806640625,-0.030313219875097275,-0.05098309367895126,0.14853566884994507
1780626355874257000,6.0772568359375,-0.04251282289624214,-0.07842665910720825,0.11500661820173264
1780626355884287000,6.087286865234375,-0.06060021370649338,-0.10452297329902649,0.08770868927240372
1780626355894316800,6.09731689453125,-0.07920871675014496,-0.11307456344366074,0.06683474779129028
1780626355904347000,6.107346923828125,-0.09836509823799133,-0.10012494027614594,0.060098543763160706
1780626355914377000,6.117376953125,-0.109737329185009,-0.09370075166225433,0.06059720739722252
1780626355924406800,6.12740673828125,-0.10971442610025406,-0.08612565696239471,0.06471364945173264
1780626355934436900,6.137436767578125,-0.1067841500043869,-0.06878699362277985,0.07929221540689468
1780626355944467000,6.147467041015625,-0.1100475862622261,-0.08411668241024017,0.08902979642152786
1780626355954496800,6.157496826171875,-0.1108982190489769,-0.12271382659673691,0.08542540669441223
1780626355964526800,6.16752685546875,-0.09837363660335541,-0.16322849690914154,0.0702962577342987
1780626355974557000,6.177556884765625,-0.08424822986125946,-0.17535200715065002,0.0707993283867836
1780626355984587000,6.1875869140625,-0.08148983120918274,-0.16997888684272766,0.0825347825884819
1780626355994617000,6.1976171875,-0.0735224038362503,-0.13472610712051392,0.12066428363323212
1780626356004646700,6.207646728515625,-0.04672541096806526,-0.08000560849905014,0.14677657186985016
1780626356014676700,6.2176767578125,-0.01584704965353012,-0.02724609524011612,0.15753494203090668
1780626356024706800,6.227706787109375,0.010145401582121849,-0.0020565856248140335,0.15270689129829407
1780626356034737000,6.23773681640625,0.009271691553294659,-0.000988460611552,0.1098574623465538
1780626356044767000,6.24776708984375,-0.00961624551564455,-0.004566151648759842,0.019052719697356224
1780626356054797000,6.257797119140625,-0.03583163022994995,-0.022828616201877594,-0.07726125419139862
1780626356064827000,6.267826904296875,-0.04804302379488945,-0.03490205481648445,-0.12547539174556732
1780626356074856700,6.277856689453125,-0.035307299345731735,-0.05002567172050476,-0.11424673348665237
1780626356084886800,6.28788671875,-0.007397105917334557,-0.070218026638031,-0.07247824966907501
1780626356094916900,6.297916748046875,0.029429279267787933,-0.0978473424911499,-0.040819037705659866
1780626356104947000,6.307947021484375,0.0483451783657074,-0.09622494131326675,-0.025111980736255646
1780626356114976800,6.317976806640625,0.04412813484668732,-0.07760818302631378,-0.02452872134745121
1780626356125006800,6.3280068359375,0.03341769799590111,-0.05273931846022606,-0.041708774864673615
1780626356135037000,6.338036865234375,0.032019201666116714,-0.01462914701551199,-0.07402706146240234
1780626356145067000,6.34806689453125,0.04133493825793266,0.036387696862220764,-0.10450240969657898
1780626356155096800,6.358096923828125,0.04541197046637535,0.053181324154138565,-0.12880882620811462
1780626356165127000,6.368126953125,0.04848235473036766,0.030755747109651566,-0.15478399395942688
1780626356175156700,6.37815673828125,0.03975045680999756,-0.017355922609567642,-0.17765173316001892
1780626356185186800,6.388186767578125,0.03139106184244156,-0.05935051292181015,-0.19934745132923126
1780626356195217000,6.398216796875,0.03214795142412186,-0.06644293665885925,-0.1935548335313797
1780626356205247000,6.4082470703125,0.038328617811203,-0.03699663281440735,-0.16443690657615662
1780626356215277000,6.418277099609375,0.04407325014472008,0.013991138897836208,-0.13982491195201874
1780626356225307000,6.428306884765625,0.04861633852124214,0.07918904721736908,-0.12394607812166214
1780626356235336700,6.438336669921875,0.047005098313093185,0.1086842492222786,-0.11433042585849762
1780626356245366800,6.44836669921875,0.047608572989702225,0.12371513247489929,-0.11474614590406418
1780626356255396900,6.45839697265625,0.05889291688799858,0.11885619908571243,-0.08305373042821884
1780626356265427000,6.468427001953125,0.05997922271490097,0.07749038189649582,-0.06804362684488297
1780626356275457000,6.47845703125,0.05487750098109245,0.04076143354177475,-0.09647262096405029
1780626356285486800,6.48848681640625,0.05956200137734413,0.045179881155490875,-0.12026796489953995
1780626356295517000,6.498516845703125,0.07370682060718536,0.03928487002849579,-0.11964207887649536
1780626356305546800,6.508546630859375,0.08897099643945694,0.03544752299785614,-0.11784763634204865
1780626356315576800,6.518576904296875,0.08983727544546127,0.043777912855148315,-0.14265280961990356
1780626356325607000,6.52860693359375,0.08037825673818588,0.06368371099233627,-0.21894945204257965
1780626356335636700,6.53863671875,0.06481564044952393,0.11187737435102463,-0.31047964096069336
1780626356345666800,6.548666748046875,0.049304328858852386,0.17489628493785858,-0.3700129985809326
1780626356355697000,6.55869677734375,0.058268770575523376,0.22418943047523499,-0.3730907738208771
1780626356365727000,6.56872705078125,0.10054618865251541,0.24245712161064148,-0.3388523757457733
1780626356375757000,6.578757080078125,0.12370564043521881,0.2661879360675812,-0.28028011322021484
1780626356385787000,6.588786865234375,0.135513037443161,0.2812497019767761,-0.21657492220401764
1780626356395816700,6.598816650390625,0.13739043474197388,0.2736254930496216,-0.1734715849161148
1780626356405846800,6.6088466796875,0.12859907746315002,0.263064980506897,-0.1424340456724167
1780626356415876900,6.618876953125,0.1132676973938942,0.28320521116256714,-0.1334468126296997
1780626356425907000,6.628906982421875,0.10560418665409088,0.284635066986084,-0.15919612348079681
1780626356435937000,6.63893701171875,0.10519025474786758,0.2505375146865845,-0.1888846457004547
1780626356445966800,6.648966796875,0.09581699222326279,0.22951051592826843,-0.20397278666496277
1780626356455997000,6.658996826171875,0.08129210770130157,0.21174749732017517,-0.19824300706386566
1780626356466026800,6.66902685546875,0.07037501037120819,0.22229227423667908,-0.17285002768039703
1780626356476056800,6.679056884765625,0.055673979222774506,0.23309724032878876,-0.1571212261915207
1780626356486087000,6.6890869140625,0.030286865308880806,0.24966876208782196,-0.15266630053520203
1780626356496117000,6.699116943359375,0.0011732118437066674,0.2711985409259796,-0.1584114134311676
1780626356506146800,6.709146728515625,-0.033865999430418015,0.28744783997535706,-0.17334136366844177
1780626356516177000,6.719177001953125,-0.03604896739125252,0.2761515974998474,-0.185636967420578
1780626356526207000,6.72920703125,-0.06724337488412857,0.23326431214809418,-0.17087025940418243
1780626356536236800,6.73923681640625,-0.0715474784374237,0.1645398736000061,-0.1559925377368927
1780626356546267000,6.749266845703125,-0.08387045562267303,0.06024543195962906,-0.18852970004081726
1780626356556296700,6.759296630859375,-0.10917636752128601,-0.018858131021261215,-0.22711816430091858
1780626356566326800,6.769326904296875,-0.1421992927789688,-0.06038719788193703,-0.24648547172546387
1780626356576356900,6.77935693359375,-0.18250404298305511,-0.08581984043121338,-0.2501797080039978
1780626356586387000,6.789386962890625,-0.20987628400325775,-0.08850324153900146,-0.22849705815315247
1780626356596417000,6.7994169921875,-0.21274219453334808,-0.06938190013170242,-0.1842348873615265
1780626356606447000,6.809447021484375,-0.21048037707805634,-0.06092103570699692,-0.12009717524051666
1780626356616476700,6.8194765625,-0.19845330715179443,-0.09833969920873642,-0.03675678372383118
1780626356626506800,6.8295068359375,-0.17544704675674438,-0.1569492220878601,0.044607315212488174
1780626356636536800,6.839536865234375,-0.15464475750923157,-0.2044738531112671,0.10266593098640442
1780626356646567000,6.84956689453125,-0.1463756412267685,-0.27467477321624756,0.13140009343624115
1780626356656597000,6.859596923828125,-0.1406073272228241,-0.34245043992996216,0.08859748393297195
1780626356666626800,6.869626708984375,-0.14829321205615997,-0.4083296060562134,-0.04391901195049286
1780626356676656600,6.87965673828125,-0.1915958970785141,-0.4501391053199768,-0.1344846487045288
1780626356686686700,6.889686767578125,-0.24869459867477417,-0.4596034288406372,-0.09194543212652206
1780626356696716500,6.899716552734375,-0.25525006651878357,-0.48409974575042725,0.03258756175637245
1780626356706746600,6.90974658203125,-0.21428237855434418,-0.5038455128669739,0.1324571669101715
1780626356716776700,6.919776611328125,-0.1584947258234024,-0.5556226968765259,0.18147940933704376
1780626356726806500,6.929806640625,-0.12081126123666763,-0.6205010414123535,0.1696144938468933
1780626356736836600,6.939836669921875,-0.11079450696706772,-0.6449764966964722,0.14665712416172028
1780626356746866700,6.94986669921875,-0.12357635051012039,-0.6448583006858826,0.14028498530387878
1780626356756896800,6.959896728515625,-0.1338265836238861,-0.651009202003479,0.14046171307563782
1780626356766926800,6.9699267578125,-0.13289500772953033,-0.6656584739685059,0.13967101275920868
1780626356776956700,6.979956787109375,-0.13201187551021576,-0.6620051264762878,0.15438595414161682
1780626356786986500,6.989986572265625,-0.1404021680355072,-0.5758635401725769,0.1746227741241455
1780626356797016600,7.0000166015625,-0.1389339119195938,-0.4923616349697113,0.21794487535953522
1780626356807046700,7.010046630859375,-0.11801104247570038,-0.439971387386322,0.2511441111564636
1780626356817076700,7.02007666015625,-0.08733221888542175,-0.445427805185318,0.27230677008628845
1780626356827106800,7.03010693359375,-0.05147036537528038,-0.49178677797317505,0.2618519961833954
1780626356837136600,7.04013671875,-0.03307569399476051,-0.5085851550102234,0.2524833381175995
1780626356847166700,7.050166748046875,-0.016125205904245377,-0.4739323556423187,0.24615781009197235
1780626356857196500,7.060196533203125,0.021966448053717613,-0.4367087781429291,0.20657972991466522
1780626356867226600,7.0702265625,0.05322583392262459,-0.41554489731788635,0.19455157220363617
1780626356877256700,7.080256591796875,0.06856559216976166,-0.3767002522945404,0.21300283074378967
1780626356887286800,7.090286865234375,0.06939703226089478,-0.339223176240921,0.22892320156097412
1780626356897316600,7.100316650390625,0.05534118041396141,-0.3082236349582672,0.24718350172042847
1780626356907346700,7.1103466796875,0.022149140015244484,-0.2546442747116089,0.26272305846214294
1780626356917376800,7.120376708984375,-0.022415131330490112,-0.1632218360900879,0.26020941138267517
1780626356927406600,7.130406494140625,-0.05303695797920227,-0.09516023099422455,0.29587846994400024
1780626356937436700,7.140436767578125,-0.06079256907105446,-0.09553804248571396,0.33132681250572205
1780626356947466500,7.150466552734375,-0.04643626511096954,-0.17463259398937225,0.31136268377304077
1780626356957496600,7.16049658203125,-0.02059118077158928,-0.2828492522239685,0.24811111390590668
1780626356967526700,7.170526611328125,0.013123373501002789,-0.39306363463401794,0.16567590832710266
1780626356977557800,7.180557861328125,0.04290998354554176,-0.47056302428245544,0.08772329241037369
1780626356987586800,7.1905869140625,0.06706804782152176,-0.46994251012802124,0.030592363327741623
1780626356997616600,7.20061669921875,0.08549554646015167,-0.413982093334198,0.004344851244240999
1780626357007647700,7.210647705078125,0.12152785062789917,-0.40956389904022217,-0.03289439529180527
1780626357017676500,7.220676513671875,0.16022789478302002,-0.4765961170196533,-0.09428738057613373
1780626357027707600,7.230707763671875,0.18711037933826447,-0.5330085158348083,-0.1281374841928482
1780626357037737700,7.24073779296875,0.208182692527771,-0.476426362991333,-0.1247195154428482
1780626357047767600,7.250767578125,0.23017160594463348,-0.3467503786087036,-0.1092420220375061
1780626357057797600,7.260797607421875,0.2466631531715393,-0.22778986394405365,-0.08596975356340408
1780626357067827700,7.27082763671875,0.2530350387096405,-0.16083265841007233,-0.05730961263179779
1780626357077857800,7.28085791015625,0.2370225191116333,-0.10972701758146286,-0.058986760675907135
1780626357087888000,7.290887939453125,0.2121906727552414,-0.008810790255665779,-0.05739738419651985
1780626357097917400,7.30091748046875,0.1783706694841385,0.09153102338314056,-0.025317858904600143
1780626357107947500,7.310947509765625,0.1571846902370453,0.08385179936885834,-0.016985096037387848
1780626357117977600,7.3209775390625,0.1304546445608139,-0.044764772057533264,-0.03813783824443817
1780626357128007700,7.331007568359375,0.0654764473438263,-0.1734684258699417,-0.056922975927591324
1780626357138037800,7.341037841796875,-0.021932978183031082,-0.250449001789093,-0.0976148322224617
1780626357148067800,7.35106787109375,-0.1204954981803894,-0.3493577539920807,-0.14851157367229462
1780626357158097700,7.36109765625,-0.17868387699127197,-0.44978296756744385,-0.21035589277744293
1780626357168127700,7.371127685546875,-0.19601918756961823,-0.45541688799858093,-0.28272196650505066
1780626357178157600,7.381157470703125,-0.2132260650396347,-0.452667236328125,-0.2690436840057373
1780626357188187600,7.391187744140625,-0.21406176686286926,-0.4781656861305237,-0.2030007392168045
1780626357198217700,7.4012177734375,-0.2002246081829071,-0.4510608911514282,-0.16592663526535034
1780626357208247600,7.41124755859375,-0.17648838460445404,-0.36593401432037354,-0.13753627240657806
1780626357218277600,7.421277587890625,-0.14273589849472046,-0.33062034845352173,-0.09899768233299255
1780626357228307700,7.4313076171875,-0.11424674093723297,-0.3994244337081909,-0.04721757769584656
1780626357238337800,7.441337890625,-0.09833173453807831,-0.49617844820022583,-0.014074034988880157
1780626357248367600,7.45136767578125,-0.09256492555141449,-0.5491218566894531,0.01575523242354393
1780626357258397700,7.461397705078125,-0.09630589187145233,-0.5558801293373108,0.020393548533320427
1780626357268427500,7.471427490234375,-0.12097741663455963,-0.5252897143363953,-0.006972561590373516
1780626357278457600,7.48145751953125,-0.13476797938346863,-0.49858206510543823,-0.05780448392033577
1780626357288487700,7.49148779296875,-0.12764960527420044,-0.5141463875770569,-0.10473231226205826
1780626357298517800,7.501517822265625,-0.1556941121816635,-0.6013223528862,-0.12250277400016785
1780626357308547800,7.5115478515625,-0.21244661509990692,-0.7214838862419128,-0.15441995859146118
1780626357318577700,7.52157763671875,-0.28114810585975647,-0.7939978241920471,-0.2100033015012741
1780626357328607500,7.531607421875,-0.32152217626571655,-0.7828913927078247,-0.2749801576137543
1780626357338637600,7.541637451171875,-0.30306366086006165,-0.7060586214065552,-0.3280467391014099
1780626357348667600,7.551667724609375,-0.23859652876853943,-0.5129099488258362,-0.3247329592704773
1780626357358697700,7.56169775390625,-0.16057844460010529,-0.2958391010761261,-0.2884341776371002
1780626357368727800,7.571727783203125,-0.08255981653928757,-0.18031145632266998,-0.2332707792520523
1780626357378757600,7.581757568359375,-0.02258511446416378,-0.15052461624145508,-0.18974526226520538
1780626357388787700,7.59178759765625,-0.0003559747710824013,-0.16106274724006653,-0.1723361760377884
1780626357398817800,7.60181787109375,-0.008048176765441895,-0.18496108055114746,-0.16426849365234375
1780626357408847600,7.61184765625,-0.0023713824339210987,-0.19473780691623688,-0.21013717353343964
1780626357418877700,7.621877685546875,0.025222500786185265,-0.1658179610967636,-0.26869142055511475
1780626357428907500,7.631907470703125,0.04084327071905136,-0.10451757907867432,-0.2749019265174866
1780626357438937600,7.6419375,0.04882515221834183,-0.04478339105844498,-0.24274706840515137
1780626357448967700,7.6519677734375,0.0514446385204792,0.04460720717906952,-0.23039746284484863
1780626357458997800,7.661997802734375,0.0298220943659544,0.15298503637313843,-0.21812789142131805
1780626357469027800,7.67202783203125,-0.006357480306178331,0.2115332931280136,-0.18474648892879486
1780626357479057700,7.6820576171875,-0.023513153195381165,0.17635144293308258,-0.15771380066871643
1780626357489087500,7.69208740234375,-0.04077176749706268,0.10305564850568771,-0.14619003236293793
1780626357499117600,7.70211767578125,-0.04104829952120781,0.000720074400305748,-0.13484640419483185
1780626357509147600,7.712147705078125,-0.02547493390738964,-0.10108032077550888,-0.1444508284330368
1780626357519177700,7.722177734375,-0.004142288118600845,-0.12267544865608215,-0.18364927172660828
1780626357529207800,7.732207763671875,-0.0006159962504170835,-0.08029709756374359,-0.20296011865139008
1780626357539237600,7.742237548828125,-0.009710715152323246,-0.0026386240497231483,-0.16116762161254883
1780626357549267700,7.752267822265625,-0.015825066715478897,0.049398742616176605,-0.11835304647684097
1780626357559297500,7.762297607421875,-0.024658480659127235,0.05757410451769829,-0.09487797319889069
1780626357569327600,7.77232763671875,-0.034892477095127106,0.013401584699749947,-0.07140699774026871
1780626357579357700,7.782357666015625,-0.04790625348687172,-0.0559343546628952,-0.0623588003218174
1780626357589387800,7.7923876953125,-0.06308041512966156,-0.0797390267252922,-0.035261936485767365
1780626357599417600,7.80241748046875,-0.06273218989372253,-0.10745707154273987,-0.018629638478159904
1780626357609447700,7.81244775390625,-0.056194134056568146,-0.14165152609348297,-0.022708537057042122
1780626357619477800,7.822477783203125,-0.052572283893823624,-0.15930667519569397,-0.032609060406684875
1780626357629507800,7.8325078125,-0.05159703269600868,-0.14836347103118896,-0.026364747434854507
1780626357639537700,7.84253759765625,-0.051740411669015884,-0.11877419799566269,-0.001688147895038128
1780626357649567500,7.8525673828125,-0.046809569001197815,-0.10417607426643372,0.02004324644804001
1780626357659597600,7.86259765625,-0.04635651409626007,-0.11426270753145218,0.010460728779435158
1780626357669627400,7.87262744140625,-0.059433698654174805,-0.10829509049654007,-0.0028095354791730642
1780626357679657500,7.882657470703125,-0.06439424306154251,-0.1053679883480072,-0.001949237659573555
1780626357689687600,7.8926875,-0.0489356629550457,-0.12415206432342529,0.01222064346075058
1780626357699717400,7.90271728515625,-0.02631019800901413,-0.1257653534412384,0.038498617708683014
1780626357709747200,7.912747314453125,-0.00877061951905489,-0.13045917451381683,0.06771162897348404
1780626357719777300,7.92277734375,-0.011724840849637985,-0.13421902060508728,0.08429045230150223
1780626357729807400,7.932807373046875,-0.019742019474506378,-0.13087862730026245,0.0992446318268776
1780626357739837400,7.94283740234375,-0.024129141122102737,-0.1607833057641983,0.09842758625745773
1780626357749867500,7.952867431640625,-0.020741600543260574,-0.16595517098903656,0.1084703654050827
1780626357759897300,7.9628974609375,-0.009210065007209778,-0.13090252876281738,0.14975875616073608
1780626357769927200,7.97292724609375,0.004786977078765631,-0.13271188735961914,0.18930137157440186
1780626357779957200,7.982957275390625,0.02598341554403305,-0.10320056229829788,0.20999453961849213
1780626357789987300,7.9929873046875,0.043684910982847214,-0.05431929975748062,0.2068120688199997
1780626357800017400,8.003017333984374,0.05281319096684456,-0.0072149550542235374,0.1916254609823227
1780626357810047500,8.013047607421875,0.052675772458314896,0.015828844159841537,0.16287557780742645
1780626357820077300,8.023077392578125,0.04655318334698677,0.011561385355889797,0.12884314358234406
1780626357830107400,8.033107421875,0.029059147462248802,-0.016457466408610344,0.11377470940351486
1780626357840137500,8.043137451171875,0.005692959297448397,-0.03300659358501434,0.12064443528652191
1780626357850167300,8.053167236328125,-0.01693565398454666,-0.028427017852663994,0.14473699033260345
1780626357860197400,8.063197265625,-0.025487354025244713,-0.0001917574554681778,0.18287135660648346
1780626357870227500,8.0732275390625,-0.025060715153813362,0.021973732858896255,0.2237389087677002
1780626357880257300,8.08325732421875,-0.016712842509150505,0.028635814785957336,0.24581527709960938
1780626357890287400,8.093287353515626,-0.0139202531427145,0.015159685164690018,0.24525520205497742
1780626357900317400,8.1033173828125,-0.01675581745803356,-0.01662677340209484,0.2422834038734436
1780626357910347500,8.113347412109375,-0.02703721635043621,-0.06098758056759834,0.23860424757003784
1780626357920377300,8.12337744140625,-0.04104827716946602,-0.08497273921966553,0.2479037493467331
1780626357930407200,8.1334072265625,-0.06030745804309845,-0.09467969089746475,0.26744523644447327
1780626357940437200,8.143437255859375,-0.08468542993068695,-0.09516996890306473,0.2919836938381195
1780626357950467300,8.15346728515625,-0.10086546838283539,-0.09984994679689407,0.32290324568748474
1780626357960497400,8.163497314453124,-0.10244742780923843,-0.10364622622728348,0.35886189341545105
1780626357970527500,8.173527587890625,-0.09767104685306549,-0.1209075078368187,0.3915332853794098
1780626357980557600,8.1835576171875,-0.07371710240840912,-0.15923874080181122,0.4137073755264282
1780626357990587400,8.19358740234375,-0.04377038776874542,-0.19518956542015076,0.4107659161090851
1780626358000617200,8.2036171875,-0.017657345160841942,-0.195871040225029,0.4000701904296875
1780626358010647300,8.213647216796875,0.008804887533187866,-0.1586453765630722,0.3788866102695465
1780626358020677400,8.223677490234374,0.017298387363553047,-0.12864264845848083,0.37245213985443115
1780626358030707500,8.23370751953125,-0.010821397416293621,-0.14418990910053253,0.3761475384235382
1780626358040737300,8.2437373046875,-0.04436974599957466,-0.16028805077075958,0.3721863627433777
1780626358050767400,8.253767333984374,-0.08257465809583664,-0.16964265704154968,0.36601847410202026
1780626358060797400,8.26379736328125,-0.10981284081935883,-0.1738661378622055,0.35412853956222534
1780626358070827500,8.27382763671875,-0.13406118750572205,-0.18052004277706146,0.34139275550842285
1780626358080857300,8.283857421875,-0.14482331275939941,-0.19753561913967133,0.3163769245147705
1780626358090887400,8.293887451171875,-0.13750946521759033,-0.23607608675956726,0.2802703082561493
1780626358100917200,8.303917236328125,-0.11742661893367767,-0.2672962546348572,0.20854002237319946
1780626358110947300,8.313947265625,-0.07813487946987152,-0.2679913341999054,0.084320068359375
1780626358120977400,8.323977294921875,-0.03371679037809372,-0.2426438182592392,-0.08433583378791809
1780626358131007500,8.334007568359375,0.0003242690581828356,-0.17428606748580933,-0.2765319049358368
1780626358141037600,8.34403759765625,0.026069022715091705,-0.0899859294295311,-0.47635602951049805
1780626358151067100,8.354067138671875,0.01065997313708067,-0.007223405875265598,-0.6862554550170898
1780626358161097200,8.36409716796875,-0.07325705885887146,0.1442597508430481,-0.9813014268875122
1780626358171127300,8.374127197265626,-0.16914497315883636,0.44463688135147095,-1.3214470148086548
1780626358181157400,8.384157470703125,-0.14991064369678497,0.5903480052947998,-1.5521830320358276
1780626358191187500,8.3941875,-0.057871270924806595,0.29033997654914856,-1.5959981679916382
1780626358201217500,8.404217529296876,-0.002132205758243799,-0.153130441904068,-1.451066493988037
1780626358211247400,8.414247314453124,-0.06524619460105896,-0.44313937425613403,-1.1803351640701294
1780626358221277400,8.42427734375,-0.2180425226688385,-0.4308784604072571,-0.9039215445518494
1780626358231307300,8.434307373046876,-0.42512246966362,-0.11286880820989609,-0.6948631405830383
1780626358241337300,8.44433740234375,-0.5669299364089966,0.21225644648075104,-0.45752665400505066
1780626358251367400,8.454367431640625,-0.5940423011779785,0.35400694608688354,-0.21400243043899536
1780626358261397200,8.464397216796876,-0.6056089401245117,0.41981297731399536,-0.011978222988545895
1780626358271427300,8.47442724609375,-0.6502088904380798,0.5395697355270386,0.24022260308265686
1780626358281457400,8.48445751953125,-0.7454193234443665,0.6188743114471436,0.5332421660423279
1780626358291487500,8.494487548828126,-0.8698981404304504,0.6137263774871826,0.8284772634506226
1780626358301517600,8.504517578125,-1.02610445022583,0.6023325324058533,1.1575478315353394
1780626358311547400,8.51454736328125,-1.1871529817581177,0.5666829347610474,1.521763563156128
1780626358321577200,8.5245771484375,-1.3277961015701294,0.5226250886917114,1.9045050144195557
1780626358331607300,8.534607177734374,-1.4752413034439087,0.3995542824268341,2.1778576374053955
1780626358341637400,8.544637451171875,-1.6049821376800537,0.2451116293668747,2.268115758895874
1780626358351667500,8.55466748046875,-1.6819086074829102,0.003091283142566681,2.05511474609375
1780626358361697500,8.564697509765624,-1.7705764770507812,-0.42349058389663696,1.6524204015731812
1780626358371727400,8.574727294921875,-1.7490973472595215,-0.8833066821098328,1.2168129682540894
1780626358381757200,8.584757080078125,-1.526680827140808,-1.4500985145568848,0.6205695271492004
1780626358391787300,8.594787353515626,-0.9033363461494446,-1.9492415189743042,-0.05603792518377304
1780626358401817300,8.6048173828125,-0.05375891178846359,-2.122424602508545,-0.5389354825019836
1780626358411847400,8.614847412109375,0.6030285358428955,-2.613206624984741,-1.124254822731018
1780626358421877500,8.62487744140625,0.7133024334907532,-3.004838705062866,-1.8589786291122437
1780626358431907300,8.6349072265625,0.3408673107624054,-1.882500410079956,-1.7108246088027954
1780626358441937400,8.6449375,0.011186189949512482,-0.30885690450668335,-0.7233983278274536
1780626358451967500,8.654967529296876,-0.10589808970689774,0.5378555059432983,0.338163286447525
1780626358461997300,8.664997314453124,-0.2377661019563675,0.8675438165664673,0.864473283290863
1780626358472027400,8.67502734375,-0.43556201457977295,0.9040001034736633,0.9260194897651672
1780626358482057200,8.68505712890625,-0.5383997559547424,0.783505380153656,0.8652580380439758
1780626358492087300,8.69508740234375,-0.575345516204834,0.6501957774162292,0.8639445900917053
1780626358502117400,8.705117431640625,-0.5769641399383545,0.3951028883457184,0.8435388803482056
1780626358512147500,8.7151474609375,-0.6141985654830933,0.08136920630931854,0.6987920999526978
1780626358522177500,8.725177490234374,-0.6323755383491516,-0.06247987598180771,0.4388688802719116
1780626358532207600,8.73520751953125,-0.5949224233627319,0.045858584344387054,0.18615886569023132
1780626358542237200,8.7452373046875,-0.5688817501068115,0.1886109858751297,0.0011484124697744846
1780626358552267300,8.755267333984374,-0.592913031578064,0.2767009139060974,-0.09034501761198044
1780626358562297300,8.76529736328125,-0.6434697508811951,0.34446239471435547,-0.10896755009889603
1780626358572327400,8.775327392578125,-0.7154096961021423,0.4284784495830536,-0.04021857678890228
1780626358582357500,8.785357421875,-0.7713910341262817,0.5864423513412476,0.036288049072027206
1780626358592387300,8.79538720703125,-0.7919871211051941,0.9385793209075928,0.13359728455543518
1780626358602417400,8.80541748046875,-0.842903196811676,1.419771432876587,0.2946716845035553
1780626358612447200,8.815447265625,-0.9702680706977844,1.8692970275878906,0.4880925416946411
1780626358622477300,8.825477294921875,-1.1731613874435425,2.1077301502227783,0.6233182549476624
1780626358632507400,8.83550732421875,-1.4251283407211304,2.0462629795074463,0.6285806894302368
1780626358642537500,8.845537353515626,-1.6360297203063965,1.656774878501892,0.5204667448997498
1780626358652567300,8.8555673828125,-1.7660167217254639,1.1877357959747314,0.29712948203086853
1780626358662597400,8.865597412109375,-1.7722936868667603,0.7972404956817627,0.05787389725446701
1780626358672627200,8.875627197265626,-1.6870514154434204,0.46146994829177856,-0.12055123597383499
1780626358682657300,8.8856572265625,-1.480582594871521,0.1652459353208542,-0.2565130889415741
1780626358692687400,8.895687255859375,-1.1495048999786377,-0.089318186044693,-0.32359492778778076
1780626358702717200,8.90571728515625,-0.7732762098312378,-0.24272708594799042,-0.25445497035980225
1780626358712747300,8.915747314453125,-0.43346107006073,-0.34279322624206543,-0.00037502730265259743
1780626358722777000,8.925777099609375,-0.15487739443778992,-0.3878539204597473,0.40579378604888916
1780626358732807200,8.93580712890625,-0.013108449056744576,-0.36123985052108765,0.8147264122962952
1780626358742837200,8.945837158203124,-0.015251882374286652,-0.28833410143852234,1.0609058141708374
1780626358752867300,8.955867431640625,-0.07901541888713837,-0.16491734981536865,0.9069491028785706
1780626358762897200,8.965897216796876,-0.0713374987244606,0.08010357618331909,0.4058794379234314
1780626358772927200,8.97592724609375,0.004308527335524559,0.40699461102485657,-0.012672819197177887
1780626358782957300,8.985957275390625,0.09872005879878998,0.5728442668914795,-0.11081001162528992
1780626358792987400,8.9959873046875,0.21701101958751678,0.459657222032547,-0.044127121567726135
1780626358803017200,9.006017333984374,0.32660189270973206,0.24195918440818787,-0.007176740560680628
1780626358813047300,9.01604736328125,0.4059031009674072,0.13212242722511292,-0.040111787617206573
1780626358823077000,9.0260771484375,0.46085283160209656,0.16695773601531982,-0.09430471062660217
1780626358833107200,9.036107177734374,0.5340425968170166,0.21952800452709198,-0.15248413383960724
1780626358843137300,9.04613720703125,0.6020432710647583,0.3231900632381439,-0.16929548978805542
1780626358853167400,9.05616748046875,0.644970178604126,0.4367072880268097,-0.14084866642951965
1780626358863197400,9.066197509765624,0.6403988003730774,0.5237758755683899,-0.08538778871297836
1780626358873227300,9.076227294921875,0.5910714864730835,0.5681065917015076,-0.026821408420801163
1780626358883257000,9.086257080078125,0.4985939860343933,0.6010168194770813,0.03855516016483307
1780626358893287200,9.096287109375,0.3976314067840576,0.601039707660675,0.1170041635632515
1780626358903317200,9.106317138671875,0.3148338198661804,0.5786123871803284,0.18230397999286652
1780626358913347300,9.116347412109375,0.262821227312088,0.5702250599861145,0.212360680103302
1780626358923377200,9.126377197265626,0.2343970090150833,0.5676082372665405,0.2100091576576233
1780626358933407200,9.1364072265625,0.22399017214775085,0.5249228477478027,0.19102108478546143
1780626358943437300,9.146437255859375,0.23363417387008667,0.3904435336589813,0.13699328899383545
1780626358953467100,9.156467041015626,0.25150904059410095,0.29662731289863586,0.07019294798374176
1780626358963497200,9.166497314453125,0.27899667620658875,0.2829195559024811,0.014704840257763863
1780626358973527300,9.17652734375,0.31803035736083984,0.29978111386299133,-0.022225746884942055
1780626358983557000,9.18655712890625,0.351986289024353,0.30245253443717957,-0.05631133168935776
1780626358993587200,9.196587158203124,0.3917909562587738,0.3133067786693573,-0.10127534717321396
1780626359003617300,9.2066171875,0.41999825835227966,0.30362963676452637,-0.16591019928455353
1780626359013647400,9.2166474609375,0.4388297498226166,0.30667710304260254,-0.24366359412670135
1780626359023677400,9.226677490234374,0.45071661472320557,0.31720978021621704,-0.2919062674045563
1780626359033707300,9.236707275390625,0.462344229221344,0.33304041624069214,-0.31269997358322144
1780626359043737000,9.246737060546875,0.46133601665496826,0.37718644738197327,-0.3109481632709503
1780626359053767200,9.25676708984375,0.4502016305923462,0.4238263964653015,-0.28766387701034546
1780626359063797200,9.26679736328125,0.44099533557891846,0.43506306409835815,-0.2404622882604599
1780626359073827300,9.276827392578125,0.4288196265697479,0.41975948214530945,-0.18843770027160645
1780626359083857400,9.286857421875,0.41115930676460266,0.36970260739326477,-0.11585607379674911
1780626359093887200,9.29688720703125,0.37805861234664917,0.26989930868148804,-0.036845941096544266
1780626359103917300,9.306917236328125,0.33282801508903503,0.1747807264328003,0.03395788371562958
1780626359113947100,9.316947021484374,0.30253374576568604,0.10452547669410706,0.0801304429769516
1780626359123977200,9.326977294921875,0.2877587676048279,0.041191451251506805,0.10999520868062973
1780626359134007300,9.33700732421875,0.30226820707321167,0.005668876692652702,0.12317945808172226
1780626359144037000,9.347037109375,0.35733914375305176,0.02215375006198883,0.10464431345462799
1780626359154067200,9.357067138671875,0.4612024426460266,0.10371412336826324,0.028356468304991722
1780626359164097300,9.36709716796875,0.5819041132926941,0.1979081928730011,-0.08329547196626663
1780626359174127400,9.37712744140625,0.6927387714385986,0.26454582810401917,-0.18316534161567688
1780626359184157200,9.3871572265625,0.7707364559173584,0.31641194224357605,-0.24402117729187012
1780626359194187300,9.397187255859375,0.8072806596755981,0.3363097310066223,-0.2694229483604431
1780626359204217000,9.407217041015626,0.8087731003761292,0.3287419080734253,-0.2653888165950775
1780626359214247200,9.4172470703125,0.8034377694129944,0.3055111765861511,-0.26341143250465393
1780626359224277200,9.42727734375,0.8215308785438538,0.2972310185432434,-0.30925247073173523
1780626359234307300,9.437307373046876,0.8723469376564026,0.3873888850212097,-0.42766115069389343
1780626359244337400,9.44733740234375,0.9365203976631165,0.558440625667572,-0.6095641851425171
1780626359254367200,9.4573671875,1.0006921291351318,0.7285692095756531,-0.8626753091812134
1780626359264397000,9.46739697265625,1.034989595413208,0.8696901798248291,-1.1983946561813354
1780626359274427100,9.47742724609375,1.0149322748184204,0.9788321256637573,-1.6117209196090698
1780626359284457200,9.487457275390625,0.9446584582328796,1.0939708948135376,-1.9599636793136597
1780626359294487300,9.4974873046875,0.8614645004272461,1.2068582773208618,-2.0739762783050537
1780626359304517400,9.507517333984374,0.8151601552963257,1.0383116006851196,-1.9177731275558472
1780626359314547200,9.517547119140625,0.7751325368881226,0.5690357089042664,-1.611830711364746
1780626359324577300,9.527577392578126,0.7219880223274231,0.13667890429496765,-1.189292073249817
1780626359334607400,9.537607421875,0.6297593116760254,-0.021345872431993484,-0.750251054763794
1780626359344637200,9.54763720703125,0.4782388508319855,0.11314376443624496,-0.42582425475120544
1780626359354667300,9.557667236328125,0.31954002380371094,0.34962502121925354,-0.18187178671360016
1780626359364697300,9.567697265625,0.22823677957057953,0.5107090473175049,0.12976808845996857
1780626359374727200,9.57772705078125,0.2033790946006775,0.598869800567627,0.5222999453544617
1780626359384757200,9.58775732421875,0.19808481633663177,0.6364403963088989,0.9095144867897034
1780626359394787300,9.597787353515624,0.19303520023822784,0.6495660543441772,1.2316023111343384
1780626359404817400,9.6078173828125,0.16762205958366394,0.6610459685325623,1.4796884059906006
1780626359414847200,9.61784716796875,0.11423074454069138,0.60391765832901,1.666844129562378
1780626359424877000,9.627876953125,0.049280598759651184,0.5389226078987122,1.7385081052780151
1780626359434907100,9.6379072265625,0.0018723401008173823,0.5300609469413757,1.6258337497711182
1780626359444937200,9.647937255859375,0.022078251466155052,0.5540603399276733,1.4554795026779175
1780626359454967300,9.65796728515625,0.09437428414821625,0.4776736795902252,1.3141511678695679
1780626359464997400,9.667997314453125,0.13790349662303925,0.3077116906642914,1.0836093425750732
1780626359475027200,9.678027099609375,0.14693480730056763,0.0948721170425415,0.684786319732666
1780626359485057300,9.688057373046876,0.10666400194168091,-0.08210867643356323,0.12450971454381943
1780626359495087000,9.698087158203125,0.010238662362098694,0.1703728437423706,-0.3209439218044281
1780626359505117200,9.7081171875,-0.04550306871533394,0.7197403907775879,-0.4278733730316162
1780626359515147300,9.718147216796876,0.0254904143512249,1.0308555364608765,-0.3177814781665802
1780626359525177300,9.72817724609375,0.24535392224788666,1.0821698904037476,-0.027623314410448074
1780626359535208200,9.738208251953125,0.4910491704940796,0.7882896065711975,0.23567436635494232
1780626359545237200,9.7482373046875,0.599097728729248,0.3069285750389099,0.22391322255134583
1780626359555268400,9.758268310546875,0.48330697417259216,0.012238060124218464,0.014461723156273365
1780626359565298400,9.76829833984375,0.24934671819210052,0.038666076958179474,-0.1270754337310791
1780626359575327200,9.7783271484375,0.06862752139568329,0.17407476902008057,-0.10374242067337036
1780626359585358000,9.788358154296875,0.01554176490753889,0.27752941846847534,0.06742464005947113
1780626359595388200,9.79838818359375,0.04763684794306755,0.40860727429389954,0.32768312096595764
1780626359605418200,9.808418212890626,0.07310909032821655,0.6452378630638123,0.5489087104797363
1780626359615448300,9.8184482421875,0.08080669492483139,0.8886614441871643,0.6828494668006897
1780626359625478100,9.82847802734375,0.10833341628313065,0.9655730128288269,0.7439121007919312
1780626359635508200,9.83850830078125,0.1471812129020691,0.904132068157196,0.7450093626976013
1780626359645538300,9.848538330078124,0.15963435173034668,0.7894296050071716,0.6840576529502869
1780626359655568400,9.858568359375,0.13994133472442627,0.6676322817802429,0.579066812992096
1780626359665599000,9.868598876953126,0.09023285657167435,0.5579865574836731,0.46118393540382385
1780626359675628800,9.87862890625,0.025480221956968307,0.43896377086639404,0.3699778616428375
1780626359685659000,9.888658935546875,-0.04466944932937622,0.3319590389728546,0.31679198145866394
1780626359695689000,9.89868896484375,-0.09754811227321625,0.2358013540506363,0.3136760890483856
1780626359705718800,9.90871875,-0.11228468269109726,0.17055374383926392,0.35689330101013184
1780626359715748900,9.918748779296875,-0.10222725570201874,0.16566285490989685,0.4191585183143616
1780626359725779000,9.928779052734376,-0.07139361649751663,0.2173430174589157,0.4780563414096832
1780626359735808800,9.938808837890624,-0.02961527556180954,0.2793118357658386,0.5285264253616333
1780626359745838800,9.9488388671875,0.010319063439965248,0.26316869258880615,0.5506178736686707
1780626359755869000,9.958868896484375,0.05307052284479141,0.17323613166809082,0.5339576601982117
1780626359765899000,9.96889892578125,0.07484120875597,0.10022144019603729,0.49984318017959595
1780626359775929000,9.97892919921875,0.06061806529760361,0.06635481119155884,0.48100024461746216
1780626359785958700,9.988958740234375,0.011902871541678905,0.044700395315885544,0.48623359203338623
1780626359795988700,9.99898876953125,-0.04364534094929695,0.017638152465224266,0.510108232498169
1780626359806018800,10.009018798828125,-0.09618978202342987,-0.04263877123594284,0.5452686548233032
1780626359816049000,10.019048828125,-0.12285787612199783,-0.11700993776321411,0.5859087705612183
1780626359826079000,10.029078857421876,-0.11817385256290436,-0.19170446693897247,0.6094334125518799
1780626359836108800,10.03910888671875,-0.09230976551771164,-0.24307844042778015,0.6296891570091248
1780626359846139000,10.049138916015625,-0.07974816858768463,-0.265688955783844,0.6694280505180359
1780626359856169000,10.0591689453125,-0.08052927255630493,-0.23836971819400787,0.7100521922111511
1780626359866198800,10.06919873046875,-0.08992442488670349,-0.17382223904132843,0.740404486656189
1780626359876228900,10.079228759765625,-0.09458042681217194,-0.0762978121638298,0.748926043510437
1780626359886259000,10.089259033203126,-0.0913352221250534,0.05835866183042526,0.7501694560050964
1780626359896288800,10.099288818359375,-0.0761522725224495,0.1772562861442566,0.7504493594169617
1780626359906318800,10.10931884765625,-0.05188347026705742,0.24616293609142303,0.7528031468391418
1780626359916349000,10.119348876953126,-0.023411348462104797,0.28351032733917236,0.7377826571464539
1780626359926379000,10.12937890625,0.0063886987045407295,0.32556411623954773,0.7129381895065308
1780626359936408800,10.139408935546875,0.027493717148900032,0.36399805545806885,0.6938638091087341
1780626359946439000,10.14943896484375,0.04415265843272209,0.39163944125175476,0.6974802017211914
1780626359956468700,10.15946875,0.057297490537166595,0.38142383098602295,0.7173804044723511
1780626359966498800,10.169498779296875,0.06764106452465057,0.3385613262653351,0.7454096674919128
1780626359976529000,10.17952880859375,0.06528150290250778,0.27901917695999146,0.7519645094871521
1780626359986559000,10.18955908203125,0.05306505039334297,0.20650330185890198,0.7273080945014954
1780626359996589000,10.199589111328125,0.028045451268553734,0.12907561659812927,0.6793860793113708
1780626360006619000,10.209618896484375,-0.03329367935657501,0.09001509100198746,0.6186680197715759
1780626360016648700,10.219648681640624,-0.10949496924877167,0.05573540925979614,0.5734035968780518
1780626360026678800,10.2296787109375,-0.17693163454532623,0.023407764732837677,0.5505094528198242
1780626360036708900,10.239708984375,-0.21289096772670746,0.006481511518359184,0.5424014925956726
1780626360046739000,10.249739013671874,-0.20944437384605408,0.035005368292331696,0.5568820834159851
1780626360056768800,10.259768798828125,-0.17208954691886902,0.08473750948905945,0.5827459096908569
1780626360066798800,10.269798828125,-0.13075894117355347,0.14035139977931976,0.5938429832458496
1780626360076829000,10.279828857421874,-0.09666355699300766,0.20162060856819153,0.5815120339393616
1780626360086859000,10.28985888671875,-0.05650647357106209,0.24680987000465393,0.5319146513938904
1780626360096888800,10.299888916015625,-0.012456458061933517,0.2500368058681488,0.4359114170074463
1780626360106919000,10.3099189453125,-0.007202210836112499,0.2159731239080429,0.3305599093437195
1780626360116948700,10.31994873046875,-0.01855233684182167,0.13391420245170593,0.25315725803375244
1780626360126978800,10.329978759765625,0.002554182428866625,-0.012074154801666737,0.20611843466758728
1780626360137009000,10.3400087890625,0.044842783361673355,-0.1610732227563858,0.1900036484003067
1780626360147039000,10.3500390625,0.07688799500465393,-0.22182705998420715,0.20014972984790802
1780626360157069000,10.360069091796875,0.08638615906238556,-0.18705283105373383,0.21145965158939362
1780626360167099000,10.370098876953126,0.07897971570491791,-0.07505673170089722,0.2291753888130188
1780626360177128700,10.380128662109374,0.0652143657207489,0.06561888754367828,0.27270904183387756
1780626360187158800,10.39015869140625,0.03302616626024246,0.11482550203800201,0.33532434701919556
1780626360197188900,10.40018896484375,-0.005966770462691784,0.03477620705962181,0.3456379771232605
1780626360207219000,10.410218994140624,-0.04579776152968407,-0.12734298408031464,0.252902090549469
1780626360217249000,10.4202490234375,-0.08528311550617218,-0.31277912855148315,0.08787371963262558
1780626360227278800,10.43027880859375,-0.10141661763191223,-0.4565025568008423,-0.027599487453699112
1780626360237309000,10.440308837890624,-0.09869833290576935,-0.5109907984733582,0.01952807605266571
1780626360247338800,10.4503388671875,-0.07209984213113785,-0.47651636600494385,0.17671675980091095
1780626360257368800,10.460368896484376,-0.03709658235311508,-0.3833496868610382,0.29559335112571716
1780626360267399000,10.47039892578125,-0.00840956624597311,-0.3086429238319397,0.29820504784584045
1780626360277429000,10.480428955078125,0.000022267806343734264,-0.3081481158733368,0.25101757049560547
1780626360287458800,10.490458740234375,-0.0038471128791570663,-0.37335193157196045,0.18484129011631012
1780626360297489000,10.500489013671874,-0.053011197596788406,-0.4273938536643982,0.120754174888134
1780626360307519000,10.51051904296875,-0.09469221532344818,-0.4735768139362335,0.09658315032720566
1780626360317549000,10.520549072265625,-0.11731070280075073,-0.5272530317306519,0.12638099491596222
1780626360327579000,10.530578857421874,-0.12129982560873032,-0.5497816205024719,0.21840900182724
1780626360337608700,10.540608642578125,-0.11352952569723129,-0.491839736700058,0.3496716618537903
1780626360347638800,10.550638671875,-0.08690889924764633,-0.3753211796283722,0.42919617891311646
1780626360357668900,10.5606689453125,-0.05636804178357124,-0.26451823115348816,0.3973061740398407
1780626360367699000,10.570698974609375,-0.024525856599211693,-0.1604030877351761,0.29870277643203735
1780626360377729000,10.58072900390625,-0.0006570079713128507,-0.1101529598236084,0.21154895424842834
1780626360387758800,10.5907587890625,-0.008142231963574886,-0.09539076685905457,0.1746901124715805
1780626360397788700,10.60078857421875,-0.041197653859853745,-0.06216277554631233,0.18863095343112946
1780626360407818800,10.61081884765625,-0.11710009723901749,-0.02238399349153042,0.23037804663181305
1780626360417848800,10.620848876953126,-0.21178585290908813,0.025343313813209534,0.2528088092803955
1780626360427879000,10.63087890625,-0.31369441747665405,0.03955144062638283,0.23712652921676636
1780626360437909000,10.640908935546875,-0.4005885422229767,0.00043413182720541954,0.18490247428417206
1780626360447938800,10.650938720703126,-0.4739367961883545,-0.07804286479949951,0.11467728018760681
1780626360457969000,10.660968994140624,-0.5039010643959045,-0.17314808070659637,0.07508806884288788
1780626360467999000,10.6709990234375,-0.48949846625328064,-0.23587676882743835,0.07868075370788574
1780626360478028800,10.68102880859375,-0.4327473044395447,-0.24025261402130127,0.12003432214260101
1780626360488059000,10.691058837890624,-0.3442385792732239,-0.1926775574684143,0.18633730709552765
1780626360498089000,10.7010888671875,-0.24651627242565155,-0.1176387369632721,0.23972515761852264
1780626360508118800,10.711118896484376,-0.1662449985742569,-0.04570479691028595,0.2799346446990967
1780626360518148900,10.72114892578125,-0.10939663648605347,0.011112410575151443,0.28862640261650085
1780626360528179000,10.731178955078125,-0.059374578297138214,0.07485128939151764,0.2963859736919403
1780626360538209000,10.741208984375,-0.011223826557397842,0.11677344143390656,0.2952384054660797
1780626360548238800,10.75123876953125,0.017932219430804253,0.09630689024925232,0.2627065181732178
1780626360558268700,10.7612685546875,0.029617104679346085,0.07678937911987305,0.20569303631782532
1780626360568298800,10.771298828125,0.032457344233989716,0.05082041025161743,0.17473077774047852
1780626360578328800,10.781328857421874,0.03186878561973572,0.012110032141208649,0.1567041128873825
1780626360588359000,10.79135888671875,0.029448864981532097,-0.0061509618535637856,0.1482541561126709
1780626360598389000,10.801388916015625,0.021751264110207558,-0.04699719324707985,0.15929003059864044
1780626360608418800,10.811418701171876,0.015590623021125793,-0.16547009348869324,0.1570744514465332
1780626360618449000,10.821448974609375,0.008105541579425335,-0.2948824465274811,0.1378895789384842
1780626360628478700,10.831478759765625,-0.01176819670945406,-0.36053407192230225,0.12509125471115112
1780626360638508800,10.8415087890625,-0.025380944833159447,-0.36331626772880554,0.1286790668964386
1780626360648539000,10.851538818359375,-0.03474769741296768,-0.32042208313941956,0.14131927490234375
1780626360658569000,10.86156884765625,-0.026900960132479668,-0.27199941873550415,0.14594891667366028
1780626360668598800,10.871598876953126,0.0049706874415278435,-0.2490869015455246,0.12679573893547058
1780626360678628900,10.88162890625,0.0520431250333786,-0.21729888021945953,0.08569782972335815
1780626360688659000,10.891658935546875,0.12287575006484985,-0.18229110538959503,0.037746816873550415
1780626360698689000,10.90168896484375,0.2064361572265625,-0.15745019912719727,-0.012635130435228348
1780626360708718800,10.91171875,0.2930948734283447,-0.13600030541419983,-0.056175149977207184
1780626360718749000,10.9217490234375,0.37702706456184387,-0.14052927494049072,-0.10840480029582977
1780626360728778800,10.93177880859375,0.4341599941253662,-0.15720334649085999,-0.1804194450378418
1780626360738808800,10.941808837890624,0.46917471289634705,-0.1620260626077652,-0.26643288135528564
1780626360748839000,10.9518388671875,0.4790167808532715,-0.21715635061264038,-0.3907008469104767
1780626360758869000,10.961868896484376,0.45204827189445496,-0.2772814929485321,-0.4901728332042694
1780626360768899000,10.971899169921874,0.38015541434288025,-0.26033830642700195,-0.4918980598449707
1780626360778928600,10.9819287109375,0.28555646538734436,-0.17586630582809448,-0.40121182799339294
1780626360788958700,10.991958740234375,0.20515558123588562,-0.0909230187535286,-0.2904132008552551
1780626360798988800,11.00198876953125,0.15578164160251617,-0.037845149636268616,-0.18862850964069366
1780626360809019000,11.012018798828125,0.13797779381275177,-0.05004885047674179,-0.12050110846757889
1780626360819049000,11.022049072265625,0.13618388772010803,-0.10016847401857376,-0.0770614892244339
1780626360829079000,11.0320791015625,0.1389048844575882,-0.1252850443124771,-0.03450848534703255
1780626360839108900,11.04210888671875,0.14475718140602112,-0.13037487864494324,0.0209028422832489
1780626360849139000,11.052138916015625,0.15588106215000153,-0.11631777137517929,0.07564353197813034
1780626360859168800,11.062168701171874,0.17590881884098053,-0.07117479294538498,0.12247468531131744
1780626360869198800,11.07219873046875,0.22013624012470245,0.0011349250562489033,0.14918562769889832
1780626360879229000,11.08222900390625,0.2876864969730377,0.08343566209077835,0.16106678545475006
1780626360889258800,11.0922587890625,0.36845290660858154,0.11283931881189346,0.11188619583845139
1780626360899288800,11.102288818359375,0.45599260926246643,0.09479480236768723,-0.030987603589892387
1780626360909319000,11.11231884765625,0.5202054977416992,0.06217074766755104,-0.20270952582359314
1780626360919349000,11.122348876953126,0.5508478283882141,0.03563021495938301,-0.31606537103652954
1780626360929379000,11.132379150390625,0.5462728142738342,0.06021804362535477,-0.3387504518032074
1780626360939409000,11.142408935546875,0.5130876898765564,0.14648155868053436,-0.3008699119091034
1780626360949438700,11.152438720703126,0.4672693908214569,0.17808310687541962,-0.23177731037139893
1780626360959468800,11.16246875,0.4322352409362793,0.1783536821603775,-0.21699462831020355
1780626360969499000,11.172498779296875,0.43468430638313293,0.20432472229003906,-0.2885964810848236
1780626360979529000,11.182529052734376,0.44551777839660645,0.26159361004829407,-0.4026713967323303
1780626360989559000,11.19255908203125,0.42166444659233093,0.35311588644981384,-0.4945550858974457
1780626360999588900,11.2025888671875,0.3537844717502594,0.46327728033065796,-0.5434464812278748
1780626361009618700,11.21261865234375,0.26895180344581604,0.5272069573402405,-0.5490355491638184
1780626361019648800,11.222648681640624,0.20116424560546875,0.492484986782074,-0.5281713008880615
1780626361029678800,11.232678955078125,0.18101157248020172,0.374949187040329,-0.5019925236701965
1780626361039709000,11.242708984375,0.22442615032196045,0.2579439878463745,-0.4996505677700043
1780626361049739000,11.252739013671874,0.2807423770427704,0.1999594271183014,-0.5268864035606384
1780626361059768800,11.262768798828125,0.3210386633872986,0.19891172647476196,-0.5872080326080322
1780626361069800000,11.272800048828126,0.3567318022251129,0.24624492228031158,-0.6704033613204956
1780626361079830000,11.282830078125,0.3887736201286316,0.32590433955192566,-0.7192505598068237
1780626361089859800,11.29285986328125,0.4276261329650879,0.39119207859039307,-0.7337169647216797
1780626361099889700,11.3028896484375,0.47847065329551697,0.38983839750289917,-0.7436875700950623
1780626361109919700,11.312919677734374,0.5382237434387207,0.31856539845466614,-0.7622042894363403
1780626361119949800,11.32294970703125,0.5828189253807068,0.22291849553585052,-0.7662948966026306
1780626361129980000,11.33297998046875,0.5956804752349854,0.19864901900291443,-0.7175525426864624
1780626361140010000,11.343010009765624,0.5860528945922852,0.22093674540519714,-0.639347493648529
1780626361150039800,11.353039794921875,0.5834096074104309,0.172636017203331,-0.5565944910049438
1780626361160070000,11.36306982421875,0.5781109929084778,-0.021286575123667717,-0.49726250767707825
1780626361170100000,11.373099853515624,0.5481541752815247,-0.3050794005393982,-0.4946073293685913
1780626361180129800,11.3831298828125,0.48853155970573425,-0.5476827025413513,-0.6360688209533691
1780626361190160000,11.393159912109375,0.44022175669670105,-0.580971896648407,-0.8860267996788025
1780626361200190000,11.40318994140625,0.4402073621749878,-0.4123688042163849,-1.1600769758224487
1780626361210219800,11.4132197265625,0.4864789545536041,-0.22177006304264069,-1.4191951751708984
1780626361220249900,11.423249755859375,0.5517900586128235,-0.06051858514547348,-1.6314795017242432
1780626361230280000,11.433280029296874,0.615827739238739,0.103042833507061,-1.7836284637451172
1780626361240310000,11.44331005859375,0.6800869107246399,0.2955408990383148,-1.897210955619812
1780626361250340000,11.453340087890625,0.7423198819160461,0.41975513100624084,-2.014758825302124
1780626361260369700,11.46336962890625,0.8351616859436035,0.4180126190185547,-2.250170946121216
1780626361270399700,11.473399658203125,0.9098421931266785,0.245064839720726,-2.655773878097534
1780626361280429800,11.483429931640625,0.9134659171104431,0.03191607818007469,-3.0715219974517822
1780626361290460000,11.4934599609375,0.7451630234718323,-0.16171860694885254,-3.2552833557128906
1780626361300490000,11.503489990234375,0.4690547585487366,-0.4863145351409912,-3.144109010696411
1780626361310519800,11.513519775390625,0.17546346783638,-0.816980242729187,-2.87322735786438
1780626361320550000,11.5235498046875,-0.028619619086384773,-0.9860951900482178,-2.5867342948913574
1780626361330579700,11.533579833984374,-0.0676509290933609,-0.9091355204582214,-2.298081636428833
1780626361340609800,11.54360986328125,-0.0031100218184292316,-0.7545294165611267,-1.9849411249160767
1780626361350639900,11.553639892578126,0.0769650787115097,-0.6909505724906921,-1.713161826133728
1780626361360670000,11.563669921875,0.15052852034568787,-0.6978393793106079,-1.477811574935913
1780626361370699800,11.57369970703125,0.20398549735546112,-0.7294073104858398,-1.2839308977127075
1780626361380729900,11.583729736328126,0.23870804905891418,-0.6408500075340271,-1.1123746633529663
1780626361390760000,11.593760009765624,0.2786693274974823,-0.42432940006256104,-0.9382470846176147
1780626361400790000,11.6037900390625,0.33804288506507874,-0.1743730902671814,-0.7612339854240417
1780626361410819800,11.61381982421875,0.39678820967674255,0.037630364298820496,-0.6253288388252258
1780626361420850000,11.623849853515624,0.4326447546482086,0.13375049829483032,-0.5387731790542603
1780626361430879700,11.633879638671875,0.438373327255249,0.10831813514232635,-0.47219032049179077
1780626361440909800,11.643909912109375,0.40845805406570435,0.009033096954226494,-0.43376225233078003
1780626361450940000,11.65393994140625,0.37492188811302185,-0.12081049382686615,-0.42404672503471375
1780626361460970000,11.663969970703125,0.3450106084346771,-0.22999849915504456,-0.4237881302833557
1780626361471000000,11.674,0.32192009687423706,-0.292226105928421,-0.4172309339046478
1780626361481030000,11.68402978515625,0.31943804025650024,-0.2837596535682678,-0.39642098546028137
1780626361491059700,11.694059814453125,0.34592053294181824,-0.2161913812160492,-0.3511897027492523
1780626361501089800,11.70408984375,0.3839834928512573,-0.10425260663032532,-0.2944830060005188
1780626361511120000,11.714119873046876,0.4217626452445984,-0.017459332942962646,-0.2680262327194214
1780626361521150000,11.72414990234375,0.43426084518432617,0.00452399579808116,-0.2998962998390198
1780626361531180000,11.734179931640625,0.4121595323085785,-0.05701617896556854,-0.3432004451751709
1780626361541209900,11.7442099609375,0.37053433060646057,-0.15205614268779755,-0.3864816129207611
1780626361551240000,11.754239990234375,0.3324819505214691,-0.24428513646125793,-0.4216499626636505
1780626361561269800,11.764269775390625,0.2919926047325134,-0.3435669541358948,-0.42477065324783325
1780626361571299800,11.7742998046875,0.28916826844215393,-0.43020498752593994,-0.4017641544342041
1780626361581330000,11.784329833984375,0.3002004027366638,-0.41797229647636414,-0.3493582010269165
1780626361591359700,11.79435986328125,0.3233802020549774,-0.2869245409965515,-0.2888849973678589
1780626361601389800,11.804389892578126,0.32718613743782043,-0.1310015320777893,-0.22057011723518372
1780626361611420000,11.814419921875,0.3083457350730896,-0.040368206799030304,-0.1633414328098297
1780626361621450000,11.824449951171875,0.2695157825946808,-0.025106161832809448,-0.12211224436759949
1780626361631480000,11.83447998046875,0.221194326877594,-0.07285930216312408,-0.09041370451450348
1780626361641510000,11.844510009765624,0.16312196850776672,-0.14402802288532257,-0.0582704097032547
1780626361651539700,11.854539794921875,0.09903808683156967,-0.20040594041347504,-0.007097242400050163
1780626361661569800,11.86456982421875,0.055568378418684006,-0.1969829797744751,0.0628562793135643
1780626361671600000,11.87460009765625,0.040155693888664246,-0.14956337213516235,0.1447046399116516
1780626361681630000,11.8846298828125,0.06253103911876678,-0.07479539513587952,0.21661558747291565
1780626361691660000,11.894659912109375,0.10284381359815598,-0.01670796424150467,0.27908244729042053
1780626361701689900,11.90468994140625,0.1362779438495636,0.002725122729316354,0.3445594608783722
1780626361711720000,11.914719970703125,0.15384279191493988,0.006821759045124054,0.4082018733024597
1780626361721750000,11.92475,0.15866711735725403,0.047672517597675323,0.45738059282302856
1780626361731780000,11.934780029296874,0.1326642781496048,0.12495105713605881,0.501573920249939
1780626361741810200,11.94481005859375,0.08917272835969925,0.2070600390434265,0.5394203662872314
1780626361751840000,11.954840087890625,0.054101116955280304,0.2529473602771759,0.5575377941131592
1780626361761869800,11.964869873046876,0.06920310109853745,0.2489965856075287,0.5222879648208618
1780626361771900000,11.97489990234375,0.13416370749473572,0.19008179008960724,0.41310158371925354
1780626361781930000,11.984929931640625,0.235701784491539,0.13678313791751862,0.2483091652393341
1780626361791960000,11.9949599609375,0.34845849871635437,0.12096843123435974,0.06571941822767258
1780626361801990100,12.004990234375,0.43295714259147644,0.12118521332740784,-0.03622319921851158
1780626361812020000,12.01502001953125,0.46128782629966736,-0.03172348067164421,0.004671546630561352
1780626361822050000,12.025050048828126,0.44046375155448914,-0.1932191550731659,0.12139549851417542
1780626361832080000,12.035079833984375,0.4090145528316498,-0.26909738779067993,0.1924048364162445
1780626361842110000,12.04510986328125,0.3872493505477905,-0.21045775711536407,0.1440380960702896
1780626361852140000,12.05514013671875,0.39024150371551514,-0.08225288987159729,-0.03777245432138443
1780626361862169900,12.065169921875,0.44961267709732056,0.007582728751003742,-0.3805234134197235
1780626361872200000,12.075199951171875,0.5223087072372437,0.024967843666672707,-0.791167140007019
1780626361882230000,12.08522998046875,0.5433780550956726,-0.015127643942832947,-1.0036112070083618
1780626361892260000,12.095260009765624,0.495492160320282,-0.1342756301164627,-0.9575567245483398
1780626361902290200,12.105290283203125,0.3989509642124176,-0.24800725281238556,-0.7725847363471985
1780626361912320000,12.115320068359376,0.30902719497680664,-0.24352116882801056,-0.4566750228404999
1780626361922349800,12.125349853515624,0.3025839626789093,-0.1409228891134262,-0.1315333992242813
1780626361932380000,12.1353798828125,0.3390183448791504,0.010756080970168114,0.11996500194072723
1780626361942410000,12.145409912109375,0.3766466975212097,0.13082043826580048,0.24417591094970703
1780626361952440000,12.155440185546874,0.3807004392147064,0.32782748341560364,0.3010421097278595
1780626361962470100,12.16547021484375,0.36403757333755493,0.4202767014503479,0.39093658328056335
1780626361972500000,12.1755,0.36493438482284546,0.37350016832351685,0.4911293387413025
1780626361982529800,12.18552978515625,0.44993340969085693,0.18358616530895233,0.5783729553222656
1780626361992559900,12.195559814453125,0.46291857957839966,0.11221572756767273,0.5795061588287354
1780626362002590000,12.20558984375,0.41946643590927124,0.11160853505134583,0.5022726058959961
1780626362012620000,12.2156201171875,0.3486810028553009,0.11853432655334473,0.4024757146835327
1780626362022650000,12.225650146484375,0.25052008032798767,0.08265168964862823,0.35556545853614807
1780626362032680000,12.235679931640625,0.17988592386245728,-0.07630249112844467,0.37245509028434753
1780626362042710000,12.2457099609375,0.1351831704378128,-0.30369943380355835,0.3887088894844055
1780626362052740000,12.255739990234375,0.04475749284029007,-0.5057721138000488,0.43655630946159363
1780626362062771200,12.265771240234375,-0.0461825355887413,-0.6391458511352539,0.4899047315120697
1780626362072801000,12.275801025390624,-0.14621217548847198,-0.6721385717391968,0.5529744625091553
1780626362082830800,12.285830810546875,-0.21182021498680115,-0.703436553478241,0.5997145175933838
1780626362092861000,12.29586083984375,-0.2388039380311966,-0.6783585548400879,0.6276628971099854
1780626362102891000,12.30589111328125,-0.2789710760116577,-0.5891887545585632,0.6588010787963867
1780626362112921000,12.315921142578125,-0.3116174042224884,-0.5057635307312012,0.6841862201690674
1780626362122951000,12.325950927734375,-0.3240003287792206,-0.45386946201324463,0.6567370295524597
1780626362132981000,12.33598095703125,-0.33556967973709106,-0.4238741993904114,0.6424593925476074
1780626362143011000,12.346010986328125,-0.3537406921386719,-0.3361552655696869,0.5901857614517212
1780626362153041000,12.356041015625,-0.3552834987640381,-0.27266788482666016,0.5564039945602417
1780626362163071000,12.366071044921876,-0.2889374792575836,-0.26407039165496826,0.5124724507331848
1780626362173101000,12.37610107421875,-0.18389850854873657,-0.2693185806274414,0.4868408143520355
1780626362183131000,12.386130859375,-0.09426982700824738,-0.1898738294839859,0.45045003294944763
1780626362193161000,12.396160888671876,-0.02685350738465786,0.001235258299857378,0.35582855343818665
1780626362203191000,12.40619091796875,0.04036281257867813,0.15101702511310577,0.26461875438690186
1780626362213221000,12.41622119140625,0.09580259770154953,0.2890739142894745,0.19727271795272827
1780626362223251200,12.426251220703126,0.15890033543109894,0.4362974464893341,0.14456821978092194
1780626362233281000,12.436281005859374,0.22834214568138123,0.558214008808136,0.0968669131398201
