time,seconds_elapsed,z,y,x
1780626349852496400,0.055496337890625,0.046550191938877106,-0.6189287304878235,0.5059723854064941
1780626349862526500,0.0655263671875,0.24927613139152527,-0.6703000664710999,0.299471914768219
1780626349872556500,0.075556640625,0.5386070013046265,-0.398208349943161,-0.06331026554107666
1780626349882586400,0.08558642578125,0.8327896595001221,0.07808627933263779,-0.39384928345680237
1780626349892616400,0.095616455078125,1.0174007415771484,0.5864829421043396,-0.5509270429611206
1780626349902646500,0.105646484375,1.0290409326553345,0.872620701789856,-0.6078787446022034
1780626349912676600,0.115676513671875,0.8541580438613892,0.917164146900177,-0.6088492274284363
1780626349922706700,0.125706787109375,0.5835622549057007,0.8060429692268372,-0.5705649256706238
1780626349932736500,0.135736572265625,0.3400624990463257,0.5111815333366394,-0.49691441655158997
1780626349942766300,0.145766357421875,0.19179074466228485,0.09219250828027725,-0.37892627716064453
1780626349952796400,0.15579638671875,0.1492568552494049,-0.31737929582595825,-0.23308464884757996
1780626349962826500,0.165826416015625,0.2065339982509613,-0.6427480578422546,-0.09097225219011307
1780626349972856600,0.175856689453125,0.3231210708618164,-0.8154415488243103,0.04812544956803322
1780626349982886700,0.18588671875,0.46125391125679016,-0.8698152899742126,0.13543878495693207
1780626349992916500,0.19591650390625,0.5925200581550598,-0.7666178345680237,0.15049496293067932
1780626350002946600,0.205946533203125,0.7026116847991943,-0.45927757024765015,0.13384941220283508
1780626350012976400,0.215976318359375,0.7648313641548157,-0.03310229256749153,0.14624908566474915
1780626350023006500,0.22600634765625,0.7644497156143188,0.25158217549324036,0.13732829689979553
1780626350033036500,0.23603662109375,0.6918277144432068,0.4354313611984253,0.12043293565511703
1780626350043066600,0.246066650390625,0.5624375343322754,0.5341414213180542,0.12954813241958618
1780626350053096400,0.256096435546875,0.4351024627685547,0.4417891204357147,0.15310299396514893
1780626350063126500,0.26612646484375,0.372763454914093,0.16346003115177155,0.21744389832019806
1780626350073156600,0.276156494140625,0.34684982895851135,-0.21199321746826172,0.31944403052330017
1780626350083186400,0.2861865234375,0.34445059299468994,-0.5682573318481445,0.44443976879119873
1780626350093216500,0.296216552734375,0.3663654625415802,-0.8281461596488953,0.5753879547119141
1780626350103246300,0.306246337890625,0.4109366834163666,-0.9817714095115662,0.7137343287467957
1780626350113276400,0.3162763671875,0.4631839096546173,-1.05293607711792,0.8738566637039185
1780626350123306500,0.326306396484375,0.48122841119766235,-1.1671862602233887,1.030720829963684
1780626350133336600,0.336336669921875,0.44417399168014526,-1.3239647150039673,1.1616008281707764
1780626350143366700,0.34636669921875,0.36619770526885986,-1.4949628114700317,1.2428011894226074
1780626350153396500,0.356396484375,0.2682753801345825,-1.6884286403656006,1.244570016860962
1780626350163426300,0.36642626953125,0.1914096474647522,-1.810468316078186,1.1771986484527588
1780626350173456400,0.376456298828125,0.1368715614080429,-1.7986379861831665,1.0332268476486206
1780626350183486500,0.386486572265625,0.0950881689786911,-1.675257682800293,0.807776689529419
1780626350193516500,0.3965166015625,0.03340056538581848,-1.508373737335205,0.5236523151397705
1780626350203546600,0.406546630859375,-0.06427299231290817,-1.1480754613876343,0.17795641720294952
1780626350213576400,0.416576416015625,-0.058644406497478485,-0.8349789977073669,-0.054792407900094986
1780626350223606500,0.4266064453125,0.07076285034418106,-0.8918361663818359,-0.13014015555381775
1780626350233636400,0.43663623046875,0.18783807754516602,-0.9951175451278687,-0.15406812727451324
1780626350243666400,0.44666650390625,0.2651400566101074,-1.033504843711853,-0.1756754219532013
1780626350253696500,0.456696533203125,0.3626714050769806,-1.071759581565857,-0.15119270980358124
1780626350263726600,0.4667265625,0.5067710280418396,-1.131877064704895,-0.03638197481632233
1780626350273756400,0.47675634765625,0.6636626720428467,-1.1837012767791748,0.08831334859132767
1780626350283786500,0.486786376953125,0.8221710920333862,-1.1161696910858154,0.1449579894542694
1780626350293815600,0.496815673828125,0.8774428367614746,-1.02555513381958,0.08875357359647751
1780626350303845400,0.506845458984375,0.7524111866950989,-1.0459498167037964,-0.06408524513244629
1780626350313876500,0.51687646484375,0.49454155564308167,-1.0142979621887207,-0.2631581425666809
1780626350323905500,0.526905517578125,0.23797181248664856,-0.9366174936294556,-0.429548978805542
1780626350333935600,0.536935546875,0.06345700472593307,-0.8864600658416748,-0.5439061522483826
1780626350343965400,0.54696533203125,-0.005605155136436224,-0.8575884699821472,-0.59908127784729
1780626350353995500,0.55699560546875,-0.022790798917412758,-0.7905651926994324,-0.6374390721321106
1780626350364025600,0.567025634765625,-0.03765843063592911,-0.7474755644798279,-0.6769664883613586
1780626350374055400,0.577055419921875,-0.057203635573387146,-0.7651799917221069,-0.694118320941925
1780626350384085500,0.58708544921875,-0.06794070452451706,-0.7879925966262817,-0.6634426712989807
1780626350394115300,0.597115234375,-0.0385575108230114,-0.8310495615005493,-0.607073962688446
1780626350404145400,0.6071455078125,0.026703249663114548,-0.9394825100898743,-0.5678983330726624
1780626350414175500,0.617175537109375,0.1221432164311409,-1.0911601781845093,-0.5697292685508728
1780626350424205600,0.62720556640625,0.2610422372817993,-1.215575933456421,-0.5760798454284668
1780626350434235600,0.637235595703125,0.38557857275009155,-1.17426335811615,-0.6010024547576904
1780626350444265700,0.647265625,0.44035422801971436,-1.0023850202560425,-0.6662416458129883
1780626350454295300,0.65729541015625,0.4320603311061859,-0.8145666718482971,-0.7677336931228638
1780626350464325400,0.667325439453125,0.41913866996765137,-0.6309257745742798,-0.8816261291503906
1780626350474355500,0.67735546875,0.4440842270851135,-0.44329914450645447,-0.9795665740966797
1780626350484385500,0.687385498046875,0.5243814587593079,-0.30021148920059204,-1.0527113676071167
1780626350494415600,0.69741552734375,0.6780306696891785,-0.26519250869750977,-1.0660343170166016
1780626350504445400,0.707445556640625,0.8059548139572144,-0.4123627841472626,-1.0147836208343506
1780626350514475500,0.7174755859375,0.770865261554718,-0.615227997303009,-0.9211826324462891
1780626350524505600,0.727505615234375,0.6287164092063904,-0.815841555595398,-0.8357627987861633
1780626350534535400,0.737535400390625,0.5349624752998352,-0.9617968797683716,-0.7681858539581299
1780626350544565500,0.7475654296875,0.49826863408088684,-0.9336829781532288,-0.7547763586044312
1780626350554595600,0.757595703125,0.5033427476882935,-0.8177284002304077,-0.8408629894256592
1780626350564625400,0.76762548828125,0.5772446990013123,-0.7756472826004028,-0.9832292199134827
1780626350574655500,0.777655517578125,0.7635570168495178,-0.8682951927185059,-1.046474814414978
1780626350584685600,0.787685546875,1.0963126420974731,-1.082579255104065,-0.9061536192893982
1780626350594715600,0.797715576171875,1.4916449785232544,-1.2943639755249023,-0.586533784866333
1780626350604745500,0.807745361328125,1.824005365371704,-1.4850305318832397,-0.17218801379203796
1780626350614775300,0.817775390625,2.079035520553589,-1.7183154821395874,0.23101697862148285
1780626350624805400,0.827805419921875,2.2581121921539307,-2.051488161087036,0.550208568572998
1780626350634835500,0.83783544921875,2.472851037979126,-2.5608816146850586,0.7960937023162842
1780626350644865500,0.847865478515625,2.7995476722717285,-3.1231279373168945,0.9955969452857971
1780626350654895600,0.8578955078125,3.1464197635650635,-3.5774424076080322,1.0891215801239014
1780626350664926000,0.867926025390625,3.464442253112793,-4.0833420753479,1.0579886436462402
1780626350674956000,0.8779560546875,3.820878028869629,-4.6293535232543945,1.0467616319656372
1780626350684986000,0.887986083984375,4.279188632965088,-5.036294460296631,1.1606966257095337
1780626350695016000,0.898015869140625,4.843413352966309,-5.236880302429199,1.3824434280395508
1780626350705046000,0.9080458984375,5.438294410705566,-5.273365497589111,1.6284830570220947
1780626350715076000,0.918076171875,6.054431438446045,-5.27817440032959,1.8280783891677856
1780626350725106000,0.92810595703125,6.707964897155762,-5.281035423278809,2.014125108718872
1780626350735136000,0.938135986328125,7.3233723640441895,-5.228443622589111,2.244109630584717
1780626350745166000,0.948166015625,7.8452982902526855,-5.111408233642578,2.4128336906433105
1780626350755196200,0.958196044921875,8.25987434387207,-4.97154426574707,2.443160057067871
1780626350765226000,0.96822607421875,8.52106761932373,-4.774144649505615,2.4409937858581543
1780626350775255800,0.978255859375,8.678999900817871,-4.442983150482178,2.5452394485473633
1780626350785286000,0.988285888671875,8.786164283752441,-4.101747989654541,2.7703654766082764
1780626350795316000,0.99831591796875,8.77500057220459,-3.9230148792266846,3.204878091812134
1780626350805346000,1.008345947265625,8.544269561767578,-3.7227351665496826,3.9831087589263916
1780626350815376100,1.018376220703125,8.01258373260498,-3.1870434284210205,5.133121490478516
1780626350825406000,1.028406005859375,6.959288120269775,-2.3248398303985596,6.33513069152832
1780626350835436000,1.03843603515625,5.442875862121582,-1.3859468698501587,7.221702575683594
1780626350845465900,1.0484658203125,3.699359178543091,-0.4414173364639282,7.572210788726807
1780626350855496000,1.058495849609375,1.9843710660934448,0.8045092821121216,7.303343296051025
1780626350865526000,1.068526123046875,0.6569429636001587,1.8081351518630981,6.253463268280029
1780626350875556000,1.07855615234375,-0.47981399297714233,2.66117525100708,4.816318988800049
1780626350885586000,1.0885859375,-1.3826045989990234,3.248284101486206,3.337000846862793
1780626350895616000,1.098615966796875,-2.0784003734588623,3.4145236015319824,2.2555668354034424
1780626350905646000,1.10864599609375,-2.674278497695923,3.2512214183807373,1.735998272895813
1780626350915676000,1.118676025390625,-3.1046128273010254,3.0060243606567383,1.3989571332931519
1780626350925706000,1.1287060546875,-3.263784646987915,2.706768274307251,1.0472028255462646
1780626350935736000,1.138736083984375,-3.3567512035369873,2.184682846069336,0.7992718815803528
1780626350945766000,1.148765869140625,-3.5047545433044434,1.3385313749313354,0.6765467524528503
1780626350955796000,1.1587958984375,-3.5204529762268066,0.3856568932533264,0.4254748821258545
1780626350965826000,1.168825927734375,-3.450113534927368,-0.5034578442573547,0.08941163867712021
1780626350975856000,1.178856201171875,-3.456727981567383,-1.2177234888076782,-0.2515888214111328
1780626350985886200,1.18888623046875,-3.3974292278289795,-1.7235832214355469,-0.5472458004951477
1780626350995915800,1.198915771484375,-3.1792757511138916,-1.7898048162460327,-0.8775730729103088
1780626351005945900,1.20894580078125,-2.374833822250366,-1.815627932548523,-1.417090892791748
1780626351015976000,1.218975830078125,-1.4472863674163818,-1.9642910957336426,-1.7280250787734985
1780626351026006000,1.229006103515625,-0.7099382877349854,-2.38437819480896,-1.6150654554367065
1780626351036036000,1.2390361328125,-0.32085898518562317,-2.8926100730895996,-1.3075932264328003
1780626351046066000,1.24906591796875,-0.2640089988708496,-3.0955371856689453,-0.9559520483016968
1780626351056096000,1.259095947265625,-0.4200497567653656,-3.0934062004089355,-0.7763572335243225
1780626351066126000,1.2691259765625,-0.627993643283844,-2.729774236679077,-0.8672269582748413
1780626351076156000,1.279156005859375,-0.8121016621589661,-1.8726850748062134,-1.1693098545074463
1780626351086186000,1.28918603515625,-0.9146629571914673,-0.8400017619132996,-1.3987255096435547
1780626351096216000,1.299216064453125,-0.9549900889396667,-0.13272076845169067,-1.6106473207473755
1780626351106246000,1.309245849609375,-0.9391621351242065,0.07587932050228119,-1.7688603401184082
1780626351116276000,1.31927587890625,-0.9373810291290283,-0.18226568400859833,-1.6740891933441162
1780626351126306000,1.32930615234375,-0.9587177634239197,-0.5370250940322876,-1.5144946575164795
1780626351136336100,1.339336181640625,-0.8994967937469482,-0.9813284873962402,-1.3916842937469482
1780626351146366000,1.349365966796875,-0.6020123362541199,-0.8478847146034241,-1.5299890041351318
1780626351156396000,1.35939599609375,-0.21190772950649261,0.6845370531082153,-2.777498722076416
1780626351166425900,1.36942578125,-0.126666858792305,1.9186171293258667,-3.953197717666626
1780626351176456000,1.3794560546875,-0.14494387805461884,2.8883047103881836,-4.7653326988220215
1780626351186486000,1.389486083984375,-0.565386950969696,2.095583915710449,-6.0785088539123535
1780626351196516000,1.39951611328125,-0.3590281903743744,2.0971133708953857,-6.20701265335083
1780626351206546200,1.409546142578125,-0.4307346045970917,1.547711730003357,-6.225558757781982
1780626351216576000,1.419575927734375,-0.23395657539367676,1.5560275316238403,-5.134798049926758
1780626351226605800,1.429605712890625,0.23071444034576416,1.1858999729156494,-3.7482376098632812
1780626351236636000,1.439635986328125,0.3316895067691803,-0.08824624121189117,-3.293485164642334
1780626351246666000,1.449666015625,0.33887365460395813,-1.0921677350997925,-3.2231719493865967
1780626351256696000,1.459696044921875,0.5013541579246521,-1.4369947910308838,-3.085951805114746
1780626351266726100,1.46972607421875,0.9580050706863403,-1.3216767311096191,-3.129124402999878
1780626351276756000,1.479755859375,1.5093986988067627,-0.8790175914764404,-3.331085443496704
1780626351286786000,1.4897861328125,1.7822920083999634,-0.18077164888381958,-3.5382394790649414
1780626351296816000,1.499816162109375,1.8082616329193115,0.3681918680667877,-3.5280299186706543
1780626351306846000,1.509845947265625,1.5494132041931152,0.5327456593513489,-3.131622791290283
1780626351316876000,1.5198759765625,1.2041757106781006,0.19618895649909973,-2.3195531368255615
1780626351326905900,1.52990576171875,0.934411883354187,-0.5682149529457092,-1.392196536064148
1780626351336936000,1.53993603515625,0.7598304748535156,-2.0358526706695557,-0.8303312659263611
1780626351346966000,1.549966064453125,0.5408981442451477,-3.5459437370300293,-0.527802050113678
1780626351356996000,1.55999609375,0.7724602818489075,-4.188912868499756,-0.2221614271402359
1780626351367026200,1.570026123046875,1.4654358625411987,-4.814236640930176,0.09861712157726288
1780626351377056000,1.580055908203125,2.15665864944458,-5.518074989318848,0.4248223900794983
1780626351387085800,1.5900859375,2.821225166320801,-5.805319309234619,0.5821565985679626
1780626351397116000,1.600115966796875,3.2091410160064697,-5.175609588623047,0.3801848888397217
1780626351407146000,1.61014599609375,4.083024978637695,-3.8902201652526855,-0.24551334977149963
1780626351417176000,1.620176025390625,4.772834777832031,-1.919771671295166,-0.5567431449890137
1780626351427206100,1.6302060546875,4.806295394897461,-0.1897321194410324,-0.20141594111919403
1780626351437236000,1.640236083984375,4.5358476638793945,0.817337691783905,0.34744319319725037
1780626351447266000,1.65026611328125,4.1343584060668945,1.2527421712875366,0.7048250436782837
1780626351457296000,1.6602958984375,3.7658298015594482,0.7121188640594482,1.082058072090149
1780626351467326000,1.670325927734375,3.439817190170288,-0.11905288696289062,1.6521800756454468
1780626351477356000,1.68035595703125,3.403416633605957,-1.2826972007751465,2.1474311351776123
1780626351487386000,1.69038623046875,3.56298828125,-2.258756637573242,2.567601203918457
1780626351497416000,1.700416015625,3.7506771087646484,-2.7395873069763184,2.9356091022491455
1780626351507446000,1.710446044921875,3.827683687210083,-2.839614152908325,3.2171809673309326
1780626351517476000,1.72047607421875,3.675048828125,-2.636866569519043,3.3980445861816406
1780626351527506200,1.730506103515625,3.31072998046875,-2.184539556503296,3.4821054935455322
1780626351537536000,1.740535888671875,2.762085437774658,-1.5245475769042969,3.5509841442108154
1780626351547565800,1.75056591796875,2.0748865604400635,-0.9284043312072754,3.477558135986328
1780626351557596000,1.760595947265625,1.3022149801254272,-0.5871458053588867,3.2639167308807373
1780626351567626000,1.7706259765625,0.5679649114608765,-0.5179675221443176,2.840794801712036
1780626351577656000,1.780656005859375,-0.09339173138141632,-0.6459089517593384,2.148164749145508
1780626351587686100,1.79068603515625,-0.7554402351379395,-0.9511842131614685,1.1807998418807983
1780626351597716000,1.800716064453125,-1.2857550382614136,-1.25539231300354,0.15871454775333405
1780626351607745800,1.810745849609375,-1.607015609741211,-1.3845207691192627,-0.8374629616737366
1780626351617775900,1.82077587890625,-1.6808221340179443,-1.3654202222824097,-1.7355890274047852
1780626351627806000,1.830805908203125,-1.387261152267456,-0.8153744339942932,-2.190169095993042
1780626351637836000,1.8408359375,-1.1141477823257446,0.005421929527074099,-2.367657423019409
1780626351647866000,1.8508662109375,-0.8720398545265198,0.7961256504058838,-2.392474889755249
1780626351657896000,1.86089599609375,-0.6164714694023132,1.4351316690444946,-2.1457884311676025
1780626351667926000,1.870926025390625,-0.3471939265727997,1.8946853876113892,-1.7096521854400635
1780626351677956000,1.8809560546875,-0.0794367715716362,2.252509832382202,-1.121746301651001
1780626351687986000,1.89098583984375,0.19560597836971283,2.5151710510253906,-0.4832446873188019
1780626351698016000,1.90101611328125,0.43533840775489807,2.6969566345214844,0.08651918172836304
1780626351708046000,1.911046142578125,0.5851705074310303,3.1997201442718506,0.41301608085632324
1780626351718076000,1.921075927734375,0.6442974805831909,4.264338493347168,0.3405274748802185
1780626351728106000,1.93110595703125,0.5912199020385742,4.869045257568359,0.14663684368133545
1780626351738136000,1.941135986328125,0.603488564491272,4.2973809242248535,-0.035295139998197556
1780626351748166100,1.951166259765625,0.6189212799072266,2.6703009605407715,-0.14478781819343567
1780626351758196200,1.9611962890625,0.4927481710910797,0.921411395072937,-0.34333473443984985
1780626351768225800,1.971225830078125,0.29243025183677673,-0.6403802633285522,-0.6476176381111145
1780626351778256000,1.981255859375,0.009430252946913242,-1.4975881576538086,-0.996726393699646
1780626351788286000,1.991285888671875,-0.25429487228393555,-1.3381398916244507,-1.3062077760696411
1780626351798316000,2.00131591796875,-0.38119450211524963,-0.9738852381706238,-1.2747939825057983
1780626351808345000,2.011344970703125,-0.4199908971786499,-0.6425331234931946,-1.0278898477554321
1780626351818375200,2.021375244140625,-0.4183652997016907,-0.330964595079422,-0.749862790107727
1780626351828405000,2.031405029296875,-0.4408298432826996,-0.2475232481956482,-0.5454023480415344
1780626351838434800,2.041434814453125,-0.4552343487739563,-0.4239315688610077,-0.4865795075893402
1780626351848466000,2.0514658203125,-0.4578770101070404,-0.7239366769790649,-0.5097658038139343
1780626351858495000,2.061494873046875,-0.44570955634117126,-0.8099093437194824,-0.5803403258323669
1780626351868525000,2.071525146484375,-0.4579491913318634,-0.6821633577346802,-0.6315212249755859
1780626351878555100,2.08155517578125,-0.5099668502807617,-0.4497525095939636,-0.6433318257331848
1780626351888585200,2.091585205078125,-0.5508607625961304,-0.17174752056598663,-0.6077157855033875
1780626351898614800,2.10161474609375,-0.5491600632667542,0.0960138812661171,-0.5333957672119141
1780626351908644900,2.111644775390625,-0.5270488858222961,0.3106670677661896,-0.4269161820411682
1780626351918675000,2.121675048828125,-0.460857629776001,0.5684202909469604,-0.33283042907714844
1780626351928705000,2.131705078125,-0.4161607325077057,1.0351331233978271,-0.34925413131713867
1780626351938735000,2.141735107421875,-0.43350696563720703,1.6448476314544678,-0.4080932140350342
1780626351948765000,2.151764892578125,-0.48071467876434326,2.3487284183502197,-0.4533195495605469
1780626351958795000,2.161794921875,-0.4725286662578583,3.1951212882995605,-0.4899364113807678
1780626351968825000,2.1718251953125,-0.38140514492988586,4.025904178619385,-0.5269815325737
1780626351978855000,2.18185498046875,-0.13116680085659027,4.158958435058594,-0.47317633032798767
1780626351988885000,2.191885009765625,0.09263139963150024,3.594550848007202,-0.3852914869785309
1780626351998915000,2.2019150390625,0.23660029470920563,2.6028006076812744,-0.344895601272583
1780626352008945000,2.21194482421875,0.3241117596626282,1.175971508026123,-0.44026392698287964
1780626352018975000,2.22197509765625,0.2843848466873169,-0.5060975551605225,-0.6681389212608337
1780626352029005000,2.232005126953125,0.15413124859333038,-1.9741437435150146,-0.9604834318161011
1780626352039035100,2.24203515625,0.06816813349723816,-2.607728958129883,-1.0904403924942017
1780626352049065200,2.252065185546875,0.05885319784283638,-2.5329031944274902,-0.9820161461830139
1780626352059094800,2.2620947265625,0.10980452597141266,-2.279428243637085,-0.7495783567428589
1780626352069124900,2.272124755859375,0.16721242666244507,-2.094200849533081,-0.5683974027633667
1780626352079155000,2.282155029296875,0.23288704454898834,-2.0215601921081543,-0.5664631724357605
1780626352089185000,2.29218505859375,0.2642020881175995,-1.9590578079223633,-0.7319754362106323
1780626352099215000,2.302215087890625,0.2242453545331955,-1.6279737949371338,-0.9562056064605713
1780626352109245200,2.3122451171875,0.11340991407632828,-0.9969841837882996,-1.1369788646697998
1780626352119275000,2.32227490234375,-0.044622860848903656,-0.403366357088089,-1.234336256980896
1780626352129304800,2.332304931640625,-0.15030694007873535,-0.09317415207624435,-1.195784330368042
1780626352139335000,2.3423349609375,-0.144687682390213,0.09694332629442215,-1.03207528591156
1780626352149365000,2.352364990234375,-0.07948710024356842,0.18301962316036224,-0.8057188987731934
1780626352159395000,2.36239501953125,-0.01829964481294155,0.16479560732841492,-0.5564011931419373
1780626352169425000,2.3724248046875,-0.016167517751455307,0.10092155635356903,-0.3223934769630432
1780626352179455000,2.382455078125,-0.07886498421430588,0.028378378599882126,-0.1465100795030594
1780626352189485000,2.392485107421875,-0.13841061294078827,-0.03454918786883354,-0.018625082448124886
1780626352199515100,2.40251513671875,-0.1716764122247696,-0.059417255222797394,0.052012067288160324
1780626352209545000,2.412544921875,-0.14509034156799316,-0.03802328184247017,0.08681878447532654
1780626352219575000,2.422574951171875,-0.04490302503108978,0.029272401705384254,0.11713381111621857
1780626352229604900,2.43260498046875,0.03808160498738289,0.1315511018037796,0.13888145983219147
1780626352239635000,2.442635009765625,0.09928824007511139,0.2338697463274002,0.1517554372549057
1780626352249665000,2.4526650390625,0.12523888051509857,0.31905150413513184,0.192396342754364
1780626352259695000,2.462695068359375,0.08118220418691635,0.3786090910434723,0.25904515385627747
1780626352269725200,2.47272509765625,-0.004543086513876915,0.33761826157569885,0.3164013922214508
1780626352279755000,2.482755126953125,-0.09617579728364944,0.22852425277233124,0.3638900816440582
1780626352289784800,2.492784912109375,-0.16181819140911102,0.05456843599677086,0.41321927309036255
1780626352299815000,2.50281494140625,-0.147435262799263,-0.18555495142936707,0.4566554129123688
1780626352309845000,2.512844970703125,-0.04976728931069374,-0.502844512462616,0.4780520498752594
1780626352319875000,2.522875,0.11526747047901154,-0.8505287170410156,0.5033987164497375
1780626352329905200,2.5329052734375,0.27796903252601624,-1.1021952629089355,0.5470644235610962
1780626352339935000,2.54293505859375,0.3684387505054474,-1.1984068155288696,0.5950926542282104
1780626352349965000,2.552965087890625,0.3614482283592224,-1.1332447528839111,0.6394481658935547
1780626352359995000,2.562994873046875,0.30107542872428894,-0.9505117535591125,0.6680262684822083
1780626352370025000,2.57302490234375,0.2511685788631439,-0.7504854202270508,0.6607654094696045
1780626352380055000,2.583054931640625,0.2626428008079529,-0.5874049067497253,0.6149308085441589
1780626352390084900,2.5930849609375,0.31967467069625854,-0.3872305452823639,0.5451213717460632
1780626352400115000,2.603114990234375,0.40185022354125977,-0.1553853303194046,0.47787362337112427
1780626352410145000,2.61314501953125,0.44236356019973755,0.10997976362705231,0.4454629719257355
1780626352420175000,2.623175048828125,0.46087974309921265,0.39394277334213257,0.4388923943042755
1780626352430205200,2.633205078125,0.5293653011322021,0.6908149123191833,0.4514737129211426
1780626352440235000,2.643235107421875,0.6923419833183289,1.01860773563385,0.48358452320098877
1780626352450264800,2.653264892578125,0.9402058720588684,1.3158159255981445,0.5521523952484131
1780626352460295000,2.663294921875,1.2037253379821777,1.4886788129806519,0.6543282866477966
1780626352470325000,2.673324951171875,1.3575799465179443,1.5107966661453247,0.7769679427146912
1780626352480355000,2.68335498046875,1.2888072729110718,1.8401625156402588,0.8025408983230591
1780626352490385200,2.69338525390625,1.1325124502182007,2.1403727531433105,0.8149376511573792
1780626352500415000,2.7034150390625,0.9734799265861511,2.024036169052124,0.7915657758712769
1780626352510444800,2.71344482421875,0.810534656047821,1.3892531394958496,0.645261824131012
1780626352520475000,2.723474853515625,0.5408642888069153,0.2806961238384247,0.35191810131073
1780626352530505000,2.7335048828125,0.3730747699737549,-0.974012553691864,-0.040537573397159576
1780626352540535000,2.74353515625,0.31113576889038086,-1.859350562095642,-0.33468663692474365
1780626352550565000,2.753565185546875,0.299577921628952,-1.843569040298462,-0.34745970368385315
1780626352560595000,2.763594970703125,0.243390291929245,-1.2441766262054443,-0.2085832953453064
1780626352570625000,2.773625,0.17468072474002838,-0.4392588436603546,-0.03778839111328125
1780626352580655000,2.783655029296875,0.10064645111560822,0.2765389084815979,0.0713929533958435
1780626352590685000,2.793684814453125,0.003543868428096175,0.9462860822677612,0.04619492590427399
1780626352600715000,2.803715087890625,-0.07779493182897568,1.2892721891403198,-0.06556196510791779
1780626352610744800,2.813744873046875,-0.08324695378541946,1.4505881071090698,-0.23706874251365662
1780626352620775000,2.82377490234375,0.14919480681419373,1.600374698638916,-0.4038582444190979
1780626352630805000,2.833804931640625,0.47275078296661377,1.5975919961929321,-0.5820876359939575
1780626352640835000,2.8438349609375,0.7393938899040222,1.5084387063980103,-0.7558192014694214
1780626352650865200,2.853865234375,0.873370885848999,1.1945137977600098,-0.8233863115310669
1780626352660895200,2.863895263671875,0.998903751373291,0.7573558688163757,-0.7760408520698547
1780626352670924800,2.8739248046875,1.1094307899475098,0.44110921025276184,-0.7278141975402832
1780626352680955000,2.883954833984375,1.1699678897857666,0.21511603891849518,-0.654229998588562
1780626352690985000,2.89398486328125,1.1868481636047363,-0.11362989246845245,-0.5133016705513
1780626352701015000,2.90401513671875,1.2778536081314087,-0.6007196307182312,-0.34742507338523865
1780626352711045000,2.914045166015625,1.5120635032653809,-1.0193434953689575,-0.2012108713388443
1780626352721075000,2.924074951171875,1.6527562141418457,-1.3133360147476196,-0.07778187841176987
1780626352731105000,2.93410498046875,1.6617480516433716,-1.5537337064743042,-0.06781313568353653
1780626352741134800,2.944134765625,1.6272231340408325,-1.6344431638717651,-0.13310931622982025
1780626352751165000,2.9541650390625,1.3203619718551636,-1.6452867984771729,-0.22035953402519226
1780626352761195000,2.964195068359375,1.0903441905975342,-1.6577930450439453,-0.1007271409034729
1780626352771225000,2.97422509765625,0.7798052430152893,-1.5633575916290283,0.1356089562177658
1780626352781255000,2.9842548828125,0.40914809703826904,-1.1477888822555542,0.31391584873199463
1780626352791285000,2.994284912109375,0.009366603568196297,-0.4751300513744354,0.37921789288520813
1780626352801315000,3.004315185546875,-0.33038005232810974,0.2268800139427185,0.4358188509941101
1780626352811345200,3.01434521484375,-0.54147869348526,0.8296316862106323,0.5931565165519714
1780626352821375000,3.024375,-0.7318137884140015,1.2797285318374634,0.8037654757499695
1780626352831404800,3.03440478515625,-0.9871533513069153,1.5894320011138916,0.9933071732521057
1780626352841435000,3.044434814453125,-1.2566570043563843,1.7951735258102417,1.089402198791504
1780626352851465000,3.05446484375,-1.5268477201461792,1.9409751892089844,1.05232572555542
1780626352861495000,3.0644951171875,-1.603223204612732,1.9819146394729614,0.9792153239250183
1780626352871525000,3.074525146484375,-1.4713411331176758,2.1864097118377686,0.7659482955932617
1780626352881555200,3.08455517578125,-1.0983643531799316,2.3887619972229004,0.47626933455467224
1780626352891585000,3.0945849609375,-0.3801233768463135,2.1936511993408203,0.22850960493087769
1780626352901614800,3.10461474609375,0.544541597366333,1.6049466133117676,0.12676647305488586
1780626352911645000,3.11464501953125,1.35418701171875,0.7799341678619385,0.05227918177843094
1780626352921675000,3.124675048828125,1.6281477212905884,-0.053771086037158966,-0.19804544746875763
1780626352931705000,3.134705078125,1.4913928508758545,-0.5757096409797668,-0.6526025533676147
1780626352941735000,3.14473486328125,1.0428647994995117,-0.8983350992202759,-1.0806611776351929
1780626352951765000,3.154764892578125,0.45845866203308105,-1.0558587312698364,-1.3121732473373413
1780626352961795000,3.164795166015625,-0.2215116173028946,-1.1923624277114868,-1.3462955951690674
1780626352971825000,3.174824951171875,-0.6702529191970825,-1.1109240055084229,-1.3386459350585938
1780626352981855000,3.18485498046875,-0.8305419087409973,-0.8164191842079163,-1.3079921007156372
1780626352991885000,3.194885009765625,-0.842657744884491,-0.5241172909736633,-1.2205560207366943
1780626353001915000,3.204914794921875,-0.793192446231842,-0.5409260988235474,-0.9627604484558105
1780626353011945000,3.214945068359375,-0.7967213988304138,-0.8949049711227417,-0.5178327560424805
1780626353021975000,3.22497509765625,-0.7893462777137756,-1.086771011352539,-0.15773449838161469
1780626353032005000,3.235005126953125,-0.7668156623840332,-0.9185889959335327,0.0836019515991211
1780626353042035200,3.24503515625,-0.7169349193572998,-0.46701884269714355,0.213224396109581
1780626353052064800,3.255064697265625,-0.5644769668579102,-0.04638054966926575,0.24227522313594818
1780626353062094800,3.2650947265625,-0.31117892265319824,0.3528483211994171,0.20546022057533264
1780626353072125000,3.275125,-0.030523553490638733,0.7614281177520752,0.19269780814647675
1780626353082155000,3.285155029296875,0.1415608525276184,1.0339711904525757,0.17566236853599548
1780626353092185000,3.29518505859375,0.3031303286552429,1.1321593523025513,0.1696673333644867
1780626353102215200,3.305215087890625,0.28155791759490967,0.9544113874435425,0.16326987743377686
1780626353112245000,3.315244873046875,0.20973458886146545,0.7557981610298157,0.07229416817426682
1780626353122275000,3.325275146484375,0.15336798131465912,0.5707010626792908,0.046246323734521866
1780626353132305000,3.335304931640625,0.14814259111881256,0.5008862614631653,0.036379046738147736
1780626353142335000,3.3453349609375,0.1868407279253006,0.5279919505119324,0.012340289540588856
1780626353152365000,3.355364990234375,0.2813515067100525,0.5965848565101624,0.006191849708557129
1780626353162395000,3.365394775390625,0.3495308458805084,0.5898672938346863,0.004426706116646528
1780626353172425000,3.375425048828125,0.3414766490459442,0.5464998483657837,-0.04283348470926285
1780626353182455000,3.385455078125,0.37120044231414795,0.44375455379486084,-0.03783845901489258
1780626353192485000,3.395485107421875,0.4017743468284607,0.2974085211753845,0.04055701196193695
1780626353202515000,3.405514892578125,0.3697069585323334,0.1965111941099167,0.17729462683200836
1780626353212545000,3.415544921875,0.31155017018318176,0.12688525021076202,0.27473196387290955
1780626353222574800,3.425574951171875,0.2438848316669464,-0.010931210592389107,0.3321465253829956
1780626353232605000,3.43560498046875,0.16263684630393982,-0.20538564026355743,0.3906646966934204
1780626353242635000,3.445635009765625,0.1353524923324585,-0.42236030101776123,0.4253033697605133
1780626353252665000,3.4556650390625,0.13229411840438843,-0.6240217685699463,0.40484121441841125
1780626353262695200,3.465695068359375,0.1024310365319252,-0.724230170249939,0.3501087427139282
1780626353272725000,3.47572509765625,-0.007386011071503162,-0.7944025993347168,0.34138956665992737
1780626353282754800,3.4857548828125,-0.15141722559928894,-1.0579487085342407,0.42709460854530334
1780626353292785000,3.495784912109375,-0.28561151027679443,-1.4617403745651245,0.5871018767356873
1780626353302815000,3.50581494140625,-0.3401687443256378,-1.8097056150436401,0.6679407954216003
1780626353312845000,3.515844970703125,-0.41540998220443726,-2.0066452026367188,0.7895705103874207
1780626353322875100,3.525875244140625,-0.466685950756073,-1.9570037126541138,0.8254249095916748
1780626353332905000,3.535905029296875,-0.43259909749031067,-1.8121602535247803,0.8402667045593262
1780626353342935000,3.54593505859375,-0.3905602991580963,-1.6180938482284546,0.7920536398887634
1780626353352964900,3.55596484375,-0.3498706519603729,-1.4424852132797241,0.6856886148452759
1780626353362995000,3.565994873046875,-0.2579721510410309,-1.5056079626083374,0.6395927667617798
1780626353373025000,3.57602490234375,-0.17179200053215027,-1.6883703470230103,0.5690027475357056
1780626353383054800,3.586054931640625,-0.05687686428427696,-1.793819785118103,0.4293883740901947
1780626353393085000,3.5960849609375,-0.19720734655857086,-1.7124154567718506,0.31299999356269836
1780626353403115000,3.606114990234375,-0.2278060019016266,-1.447558045387268,0.1521916687488556
1780626353413145000,3.61614501953125,-0.20620855689048767,-0.9360025525093079,-0.062422897666692734
1780626353423175200,3.626175048828125,-0.16073589026927948,-0.24200677871704102,-0.11253692954778671
1780626353433205000,3.636205078125,-0.2509289085865021,0.45543035864830017,-0.156048983335495
1780626353443234800,3.64623486328125,-0.3811393678188324,1.001799464225769,-0.2492481768131256
1780626353453265000,3.656264892578125,-0.3924815058708191,1.456767201423645,-0.28313344717025757
1780626353463295000,3.666294921875,-0.3951566517353058,1.7821978330612183,-0.11283760517835617
1780626353473325000,3.676324951171875,-0.42134830355644226,2.1814463138580322,-0.03358219563961029
1780626353483355100,3.686355224609375,-0.26555392146110535,2.388056755065918,0.07524602115154266
1780626353493385000,3.696385009765625,0.03165406733751297,2.26765513420105,0.1747523695230484
1780626353503415000,3.7064150390625,0.6375815272331238,1.8749847412109375,0.37997370958328247
1780626353513444900,3.71644482421875,1.5231372117996216,1.258674144744873,0.8957417011260986
1780626353523475000,3.726474853515625,2.577953815460205,0.4791540801525116,1.4973076581954956
1780626353533505000,3.736505126953125,3.253262519836426,-0.5640218257904053,1.7437899112701416
1780626353543535000,3.74653515625,2.9843385219573975,-1.6115493774414062,1.44680917263031
1780626353553565000,3.75656494140625,1.9481465816497803,-1.9317904710769653,0.8428742289543152
1780626353563595000,3.766594970703125,0.7930288910865784,-1.4234055280685425,0.11789228022098541
1780626353573625000,3.776625,0.1253693699836731,-0.5269958972930908,-0.4199221730232239
1780626353583655000,3.786655029296875,0.011938418261706829,0.12580879032611847,-0.5483722686767578
1780626353593685000,3.79668505859375,0.10725268721580505,0.4349437355995178,-0.4557291865348816
1780626353603714800,3.80671484375,0.16969342529773712,0.4203472137451172,-0.311835378408432
1780626353613745000,3.816744873046875,0.23378346860408783,0.09678912907838821,-0.21548008918762207
1780626353623775000,3.82677490234375,0.3072699308395386,-0.3431898355484009,-0.1699530929327011
1780626353633805000,3.83680517578125,0.40179458260536194,-0.7468430399894714,-0.12239675223827362
1780626353643835100,3.846835205078125,0.5350586175918579,-1.0796300172805786,-0.08055103570222855
1780626353653865200,3.856865234375,0.67223060131073,-1.3892863988876343,-0.09397842735052109
1780626353663895000,3.86689501953125,0.7709313631057739,-1.6967263221740723,-0.16264431178569794
1780626353673925000,3.876925048828125,0.7942843437194824,-1.937668800354004,-0.23187664151191711
1780626353683955200,3.886955078125,0.770635187625885,-2.0646510124206543,-0.2719646692276001
1780626353693985300,3.8969853515625,0.7156766057014465,-2.1114015579223633,-0.2931807339191437
1780626353704015000,3.90701513671875,0.6123818755149841,-2.121286153793335,-0.2923338711261749
1780626353714045000,3.917044921875,0.4452834725379944,-2.0687544345855713,-0.23635874688625336
1780626353724075000,3.927074951171875,0.2846085727214813,-1.9449539184570312,-0.1217658519744873
1780626353734105000,3.93710498046875,0.21334636211395264,-1.7614575624465942,0.01709509640932083
1780626353744135200,3.94713525390625,0.24064776301383972,-1.6479182243347168,0.1289454698562622
1780626353754165200,3.957165283203125,0.31076106429100037,-1.6411985158920288,0.1464775800704956
1780626353764195300,3.9671953125,0.3565274775028229,-1.7551368474960327,0.05493329092860222
1780626353774225200,3.97722509765625,0.35280492901802063,-1.860687255859375,-0.09693160653114319
1780626353784255000,3.9872548828125,0.3087354600429535,-1.7935314178466797,-0.20446951687335968
1780626353794285000,3.99728515625,0.21175113320350647,-1.529991865158081,-0.19295373558998108
1780626353804315100,4.007315185546875,0.09007956087589264,-1.1580135822296143,-0.05558629706501961
1780626353814345200,4.01734521484375,0.012176238931715488,-0.8149645924568176,0.16796210408210754
1780626353824375000,4.027375,0.023791614919900894,-0.595870852470398,0.40110161900520325
1780626353834405000,4.037405029296875,0.12547697126865387,-0.5509395599365234,0.5697841048240662
1780626353844435200,4.047435302734375,0.2320934236049652,-0.5817193388938904,0.6354374289512634
1780626353854465000,4.057465087890625,0.2638910412788391,-0.5457280278205872,0.5430313348770142
1780626353864495000,4.0674951171875,0.22847364842891693,-0.4000222384929657,0.32444706559181213
1780626353874525200,4.077525146484375,0.14556092023849487,-0.30286747217178345,0.02201581932604313
1780626353884555000,4.087554931640625,0.07354132831096649,-0.35449522733688354,-0.27804601192474365
1780626353894585000,4.097585205078125,0.03641926124691963,-0.5220237970352173,-0.48661625385284424
1780626353904615200,4.107615234375,-0.012926450930535793,-0.7461892366409302,-0.6056528687477112
1780626353914645200,4.117645263671875,-0.09844055026769638,-0.9673445224761963,-0.6892929077148438
1780626353924675300,4.12767529296875,-0.25978976488113403,-1.389602780342102,-0.8271687626838684
1780626353934705000,4.137704833984375,-0.6459675431251526,-2.943580389022827,-1.670669436454773
1780626353944735000,4.14773486328125,-0.3135126531124115,-6.39804220199585,-1.215948224067688
1780626353954765000,4.15776513671875,0.4126211106777191,-10.889486312866211,0.4899579882621765
1780626353964795100,4.167795166015625,-0.34151312708854675,-7.047667980194092,0.22701583802700043
1780626353974825200,4.1778251953125,-0.19547681510448456,-2.8322250843048096,-2.6323401927948
1780626353984855300,4.187855224609375,-0.4692561626434326,-0.1682518571615219,-4.238175868988037
1780626353994885000,4.197885009765625,-0.6726194024085999,0.5231471061706543,-5.360232830047607
1780626354004915200,4.207915283203125,-0.7522250413894653,0.49897998571395874,-5.631746292114258
1780626354014945000,4.217945068359375,-0.643681526184082,-0.1686103194952011,-5.16317892074585
1780626354024975000,4.22797509765625,-0.39650100469589233,-0.6972619295120239,-3.584869861602783
1780626354035005200,4.238005126953125,-0.06710287183523178,-1.8419502973556519,-1.7035980224609375
1780626354045035000,4.248034912109375,-0.0551958791911602,-2.3032352924346924,-0.3074451684951782
1780626354055065000,4.258065185546875,-0.11473057419061661,-1.8224341869354248,0.2797642648220062
1780626354065095200,4.26809521484375,0.013304620049893856,-0.3987761437892914,0.755548357963562
1780626354075125200,4.278125244140625,0.12590466439723969,1.1732268333435059,1.1784054040908813
1780626354085155000,4.288155029296875,0.14277659356594086,2.3157708644866943,1.462073564529419
1780626354095185200,4.29818505859375,0.15620984137058258,2.56060791015625,1.4675569534301758
1780626354105215000,4.308215087890625,0.2557375133037567,1.3390594720840454,1.3686118125915527
1780626354115245000,4.3182451171875,0.28142261505126953,-0.52309650182724,0.6517442464828491
1780626354125275100,4.328275146484375,0.3006144165992737,-0.667746365070343,-0.3376249074935913
1780626354135305200,4.33830517578125,0.29906073212623596,-0.18587826192378998,-1.1538368463516235
1780626354145335300,4.348335205078125,0.29485613107681274,-0.10842234641313553,-1.4101266860961914
1780626354155365000,4.358365234375,0.14448101818561554,0.11732689291238785,-1.0432573556900024
1780626354165395000,4.36839501953125,0.09126892685890198,0.12384630739688873,-0.8200706243515015
1780626354175425000,4.378425048828125,0.1155010312795639,0.27532532811164856,-0.5930979251861572
1780626354185455000,4.388455078125,0.06400880962610245,0.9547541737556458,-0.16855119168758392
1780626354195485200,4.398485107421875,0.3313816487789154,1.089760184288025,0.0202203169465065
1780626354205515300,4.408515380859375,0.6132327914237976,0.8797011971473694,0.017059942707419395
1780626354215545000,4.418545166015625,0.6559402942657471,0.8887810111045837,-0.008372445590794086
1780626354225575200,4.4285751953125,0.5512772798538208,0.8090097308158875,0.015115036629140377
1780626354235605200,4.438605224609375,0.5087183713912964,0.5398746728897095,0.0431048609316349
1780626354245635000,4.448635009765625,0.500089168548584,0.41723692417144775,-0.009673399850726128
1780626354255665200,4.4586650390625,0.4033258855342865,0.6423371434211731,-0.06904218345880508
1780626354265695000,4.468695068359375,0.3660333752632141,0.6621627807617188,-0.14492575824260712
1780626354275725000,4.47872509765625,0.3603943884372711,0.5813547372817993,-0.24759435653686523
1780626354285755100,4.488755126953125,0.2944902181625366,0.6184909343719482,-0.27529922127723694
1780626354295785200,4.49878515625,0.24533359706401825,0.45300716161727905,-0.28989601135253906
1780626354305815300,4.508815185546875,0.2020266056060791,0.17114059627056122,-0.37744688987731934
1780626354315845000,4.51884521484375,0.12216798961162567,0.047446876764297485,-0.434590607881546
1780626354325875000,4.528875,0.06847945600748062,-0.015275891870260239,-0.3649103343486786
1780626354335905000,4.538905029296875,0.07885806262493134,-0.0037622477393597364,-0.29790279269218445
1780626354345935000,4.54893505859375,0.11862784624099731,0.0332287922501564,-0.2185049057006836
1780626354355965200,4.558965087890625,0.17263568937778473,0.0272689051926136,-0.13385500013828278
1780626354365995300,4.568995361328125,0.2123817652463913,0.008946890011429787,-0.024466993287205696
1780626354376025000,4.579025146484375,0.22302696108818054,0.056358080357313156,0.03257152438163757
1780626354386055200,4.58905517578125,0.21718157827854156,0.07625668495893478,-0.01733877696096897
1780626354396085000,4.5990849609375,0.16441424190998077,0.038306910544633865,-0.017177388072013855
1780626354406115000,4.609114990234375,0.09217892587184906,-0.04385720193386078,0.034930285066366196
1780626354416145200,4.619145263671875,0.0458441860973835,-0.10670620948076248,0.06042978912591934
1780626354426175200,4.62917529296875,-0.0001882854849100113,-0.11072331666946411,0.06537474691867828
1780626354436205000,4.639205078125,-0.009400691837072372,-0.007909322157502174,0.052085306495428085
1780626354446235100,4.649235107421875,0.002665824256837368,0.1454157829284668,0.03003832697868347
1780626354456265200,4.65926513671875,0.023185746744275093,0.28471988439559937,-0.003181145992130041
1780626354466295000,4.669294921875,0.037468813359737396,0.3484615683555603,-0.02720498852431774
1780626354476325000,4.6793251953125,0.02773602306842804,0.2852652966976166,-0.03335263207554817
1780626354486355000,4.68935498046875,0.03748585656285286,0.13400627672672272,-0.03134274110198021
1780626354496385000,4.699385009765625,0.02648060955107212,0.007112238090485334,-0.0365779846906662
1780626354506415000,4.7094150390625,0.009037969633936882,-0.12003372609615326,-0.00506852800026536
1780626354516445200,4.719445068359375,0.0043707797303795815,-0.1158355250954628,0.01356481108814478
1780626354526475300,4.729475341796875,-0.01854066178202629,-0.07587585598230362,0.05374685302376747
1780626354536505300,4.73950537109375,-0.05000936985015869,-0.0754244476556778,0.12926185131072998
1780626354546535000,4.749534912109375,-0.07982692122459412,-0.09943311661481857,0.20586314797401428
1780626354556565000,4.75956494140625,-0.09168757498264313,-0.12272272258996964,0.2872626781463623
1780626354566595000,4.769594970703125,-0.0940663143992424,-0.1077464371919632,0.3220565915107727
1780626354576625200,4.779625244140625,-0.08331166952848434,-0.07499967515468597,0.32211118936538696
1780626354586655200,4.7896552734375,-0.059729110449552536,0.009485647082328796,0.28616705536842346
1780626354596685000,4.79968505859375,0.09632467478513718,-0.009349559433758259,0.27094706892967224
1780626354606715100,4.809715087890625,0.36333054304122925,0.002257561543956399,0.24988733232021332
1780626354616745200,4.8197451171875,0.1785321980714798,0.23773080110549927,0.1788238137960434
1780626354626775000,4.829775146484375,-0.052614741027355194,0.2019032984972,0.23544447124004364
1780626354636805000,4.83980517578125,-0.07682367414236069,-0.07327181845903397,0.3617424964904785
1780626354646835200,4.849835205078125,-0.09156826883554459,-0.12632225453853607,0.3574598729610443
1780626354656865000,4.859864990234375,-0.09674092382192612,-0.08409357070922852,0.32397088408470154
1780626354666894300,4.869894287109375,-0.08376813679933548,-0.005027248989790678,0.26361486315727234
1780626354676924400,4.87992431640625,-0.06502719968557358,0.04646150767803192,0.2098885178565979
1780626354686954200,4.889954345703125,-0.04560263827443123,0.03161225467920303,0.17675825953483582
1780626354696984300,4.899984375,-0.028143754228949547,-0.03634948655962944,0.1794070452451706
1780626354707014400,4.910014404296875,-0.023196931928396225,-0.11171188205480576,0.21787559986114502
1780626354717044500,4.92004443359375,-0.01992097683250904,-0.17585252225399017,0.2721755802631378
1780626354727074300,4.93007421875,-0.013368802145123482,-0.23162390291690826,0.31898143887519836
1780626354737104400,4.9401044921875,-0.008783637546002865,-0.27718207240104675,0.3385293185710907
1780626354747134500,4.950134521484375,-0.002394980750977993,-0.2950420379638672,0.32397913932800293
1780626354757164500,4.96016455078125,-0.00022210762836039066,-0.2742752432823181,0.2816665768623352
1780626354767194400,4.9701943359375,-0.0062677497044205666,-0.26140764355659485,0.22688667476177216
1780626354777224200,4.98022412109375,-0.010336793027818203,-0.2662481963634491,0.17817506194114685
1780626354787254300,4.990254150390625,0.0010929612908512354,-0.251875638961792,0.15872226655483246
1780626354797284400,5.000284423828125,0.0309898741543293,-0.21726174652576447,0.16331489384174347
1780626354807314400,5.010314453125,0.08514658361673355,-0.18898695707321167,0.1809159815311432
1780626354817344500,5.020344482421875,0.13629180192947388,-0.1752818077802658,0.20205695927143097
1780626354827374300,5.030374267578125,0.18245422840118408,-0.16806544363498688,0.22670158743858337
1780626354837404400,5.040404296875,0.23598483204841614,-0.1352052241563797,0.25717028975486755
1780626354847434200,5.050434326171875,0.27642571926116943,-0.11347702890634537,0.279971718788147
1780626354857464300,5.06046435546875,0.2891383469104767,-0.15053491294384003,0.2814908027648926
1780626354867494400,5.070494384765625,0.26670119166374207,-0.2545499801635742,0.2562602758407593
1780626354877524500,5.0805244140625,0.2179563045501709,-0.36716175079345703,0.20847198367118835
1780626354887554300,5.09055419921875,0.15588200092315674,-0.4174331724643707,0.1850215196609497
1780626354897584400,5.10058447265625,0.12345003336668015,-0.3803127110004425,0.19339768588542938
1780626354907614500,5.110614501953125,0.144241064786911,-0.34321701526641846,0.21094898879528046
1780626354917644300,5.120644287109375,0.20949196815490723,-0.35779356956481934,0.21297405660152435
1780626354927674400,5.13067431640625,0.28829917311668396,-0.3756124973297119,0.18739812076091766
1780626354937704400,5.140704345703125,0.36533430218696594,-0.33432552218437195,0.14857801795005798
1780626354947734300,5.150734375,0.5224597454071045,-0.23440025746822357,0.10724709182977676
1780626354957764400,5.160764404296875,0.7480670213699341,-0.20250384509563446,0.029405558481812477
1780626354967794400,5.17079443359375,0.9050862193107605,-0.3504190146923065,-0.12050830572843552
1780626354977824500,5.180824462890625,0.8918036818504333,-0.5547114014625549,-0.31439468264579773
1780626354987854600,5.1908544921875,0.7598472833633423,-0.5794660449028015,-0.49258092045783997
1780626354997884200,5.20088427734375,0.579577624797821,-0.3189350962638855,-0.5747432112693787
1780626355007914200,5.210914306640625,0.42591536045074463,-0.014821822755038738,-0.5954902768135071
1780626355017944300,5.2209443359375,0.36830851435661316,0.1745166778564453,-0.5643448829650879
1780626355027974400,5.230974365234375,0.4486459791660309,0.26083746552467346,-0.540960967540741
1780626355038004500,5.24100439453125,0.5928244590759277,0.22934210300445557,-0.5608079433441162
1780626355048034300,5.251034423828125,0.7796372175216675,0.09776650369167328,-0.6588359475135803
1780626355058064400,5.261064453125,0.9545270204544067,-0.06275312602519989,-0.867764413356781
1780626355068094200,5.27109423828125,1.0421745777130127,-0.2126302421092987,-1.100066065788269
1780626355078124300,5.281124267578125,1.006657600402832,-0.2957480251789093,-1.3121106624603271
1780626355088154400,5.291154296875,0.818530261516571,-0.19229860603809357,-1.4867900609970093
1780626355098184400,5.301184326171875,0.5807880163192749,0.05217079445719719,-1.601561427116394
1780626355108214300,5.31121435546875,0.39918920397758484,0.24480628967285156,-1.6518789529800415
1780626355118244400,5.321244384765625,0.29043716192245483,0.2695039212703705,-1.671119213104248
1780626355128274400,5.3312744140625,0.21401162445545197,0.163314089179039,-1.708875298500061
1780626355138304500,5.341304443359375,0.18932199478149414,-0.05324138328433037,-1.815411925315857
1780626355148334300,5.351334228515625,0.1745728701353073,-0.296924889087677,-1.9680616855621338
1780626355158364400,5.361364501953125,0.1535930186510086,-0.45461171865463257,-2.134831190109253
1780626355168394200,5.371394287109375,0.12168089300394058,-0.4957769811153412,-2.25858473777771
1780626355178424300,5.38142431640625,0.0706225037574768,-0.5063183307647705,-2.357775926589966
1780626355188454400,5.391454345703125,0.025589782744646072,-0.45651933550834656,-2.3961522579193115
1780626355198484500,5.401484375,-0.02575170248746872,-0.29395440220832825,-2.267404079437256
1780626355208514600,5.4115146484375,-0.05158250033855438,-0.09833002835512161,-1.992802381515503
1780626355218544400,5.42154443359375,-0.05590188130736351,-0.03038879856467247,-1.6722058057785034
1780626355228574200,5.43157421875,-0.05620947480201721,-0.06720113754272461,-1.417603850364685
1780626355238604300,5.441604248046875,-0.0731130912899971,-0.05330982804298401,-1.240904450416565
1780626355248634400,5.45163427734375,-0.1166595071554184,0.01555152889341116,-1.0775905847549438
1780626355258664400,5.46166455078125,-0.1639399379491806,0.028424717485904694,-0.9518396258354187
1780626355268694500,5.471694580078125,-0.19600892066955566,0.051781706511974335,-0.8592199087142944
1780626355278724400,5.481724365234375,-0.20613744854927063,0.16107437014579773,-0.758977472782135
1780626355288754400,5.49175439453125,-0.19634979963302612,0.32205259799957275,-0.6196491122245789
1780626355300039200,5.5030390625,-0.1772110015153885,0.4618675112724304,-0.47154515981674194
1780626355310069200,5.5130693359375,-0.15805435180664062,0.5300068855285645,-0.36391961574554443
1780626355320099300,5.523099365234375,-0.163966566324234,0.5604915618896484,-0.37277382612228394
1780626355330129400,5.53312939453125,-0.16236360371112823,0.5451527833938599,-0.4864322245121002
1780626355340159500,5.543159423828125,-0.1696540117263794,0.48927223682403564,-0.647265613079071
1780626355350189600,5.553189453125,-0.19862867891788483,0.4655517041683197,-0.758682370185852
1780626355360219400,5.563219482421875,-0.22858044505119324,0.4555472731590271,-0.7364649772644043
1780626355370249200,5.573249267578125,-0.2429354190826416,0.3976040780544281,-0.6074033975601196
1780626355380279300,5.583279296875,-0.20167559385299683,0.2813933193683624,-0.47484880685806274
1780626355390309400,5.593309326171875,-0.15785513818264008,0.16543103754520416,-0.4052063524723053
1780626355400339500,5.60333935546875,-0.147641122341156,0.10579327493906021,-0.38595008850097656
1780626355410369300,5.613369384765625,-0.1553533673286438,0.08047353476285934,-0.4024971127510071
1780626355420399400,5.6233994140625,-0.16243284940719604,0.10354157537221909,-0.4288887679576874
1780626355430429400,5.633429443359375,-0.16381876170635223,0.1307327151298523,-0.42318907380104065
1780626355440459500,5.64345947265625,-0.14220453798770905,0.09127611666917801,-0.41484299302101135
1780626355450489300,5.6534892578125,-0.11400939524173737,0.016279904171824455,-0.41447362303733826
1780626355460519400,5.66351953125,-0.09321463108062744,-0.03410577401518822,-0.3459435701370239
1780626355470548500,5.673548583984375,-0.08456654846668243,-0.07391736656427383,-0.20739047229290009
1780626355480578300,5.683578369140625,-0.06287536770105362,-0.09767169505357742,-0.07701036334037781
1780626355490608400,5.6936083984375,-0.05094760283827782,-0.08528054505586624,-0.007292001508176327
1780626355500638500,5.703638427734375,-0.06757158786058426,-0.04794382303953171,0.00430100504308939
1780626355510668300,5.713668212890625,-0.0917389765381813,-0.02299266681075096,0.0018351842882111669
1780626355520698400,5.723698486328125,-0.11037471145391464,0.004508997779339552,-0.018926020711660385
1780626355530728400,5.733728515625,-0.12078633904457092,0.04929697513580322,-0.03819612041115761
1780626355540758300,5.74375830078125,-0.12435444444417953,0.07727428525686264,-0.04217328503727913
1780626355550788400,5.753788330078125,-0.11072304844856262,0.06622083485126495,-0.03133608400821686
1780626355560818400,5.763818359375,-0.10082994401454926,0.044607147574424744,0.0054485611617565155
1780626355570848500,5.7738486328125,-0.09027104079723358,0.005147357936948538,0.05708512291312218
1780626355580878300,5.78387841796875,-0.07836005091667175,-0.06842486560344696,0.07464201003313065
1780626355590908400,5.793908447265625,-0.08223015815019608,-0.13394661247730255,0.06568820029497147
1780626355600938200,5.803938232421875,-0.09586501121520996,-0.1665559560060501,0.06869357824325562
1780626355610968300,5.81396826171875,-0.11307276040315628,-0.161163330078125,0.08261098712682724
1780626355620998400,5.823998291015625,-0.11884462833404541,-0.13388775289058685,0.1007833331823349
1780626355631028500,5.834028564453125,-0.11064501851797104,-0.12167104333639145,0.12493421137332916
1780626355641058600,5.84405859375,-0.10204407572746277,-0.09543730318546295,0.15187980234622955
1780626355651088400,5.85408837890625,-0.08289781212806702,-0.06789010018110275,0.19230154156684875
1780626355661119000,5.864118896484375,-0.056719470769166946,-0.06268681585788727,0.22362563014030457
1780626355671148800,5.874148681640625,-0.041857969015836716,-0.07142598181962967,0.22673407196998596
1780626355681179000,5.884178955078125,-0.032214660197496414,-0.07989749312400818,0.20767277479171753
1780626355691209000,5.894208984375,-0.027660390362143517,-0.10965139418840408,0.19312684237957
1780626355701238800,5.90423876953125,-0.015424496494233608,-0.15720106661319733,0.16221021115779877
1780626355711268900,5.914268798828125,-0.013561614789068699,-0.17239627242088318,0.12939420342445374
1780626355721299000,5.924298828125,-0.02352316863834858,-0.15983253717422485,0.12223216891288757
1780626355731329000,5.9343291015625,-0.03603416681289673,-0.14804193377494812,0.14149348437786102
1780626355741358800,5.94435888671875,-0.03732366859912872,-0.15199938416481018,0.17066042125225067
1780626355751388700,5.954388671875,-0.03175819665193558,-0.1622229963541031,0.19735461473464966
1780626355761418800,5.964418701171875,-0.026398584246635437,-0.16670562326908112,0.21831928193569183
1780626355771448800,5.97444873046875,-0.019149726256728172,-0.1408492624759674,0.23838619887828827
1780626355781479000,5.98447900390625,-0.017843445762991905,-0.11379048228263855,0.26366519927978516
1780626355791509000,5.994509033203125,-0.014336861670017242,-0.09171154350042343,0.28452998399734497
1780626355801539000,6.0045390625,-0.014414891600608826,-0.04583699628710747,0.28472280502319336
1780626355811569000,6.01456884765625,-0.02604811266064644,0.025307754054665565,0.29618850350379944
1780626355821598700,6.0245986328125,-0.034205108880996704,0.0584300197660923,0.31262102723121643
1780626355831628800,6.03462890625,-0.028560005128383636,0.03814951702952385,0.3037484288215637
1780626355841659000,6.044658935546875,-0.028312597423791885,0.016534768044948578,0.259940505027771
1780626355851689000,6.05468896484375,-0.0290598813444376,-0.00854208879172802,0.20811031758785248
1780626355861718800,6.06471875,-0.0274468045681715,-0.04837285727262497,0.16394206881523132
1780626355871748900,6.074748779296875,-0.03773246333003044,-0.08105144649744034,0.1289055198431015
1780626355881779000,6.084779052734375,-0.055271245539188385,-0.1036749929189682,0.09970102459192276
1780626355891809000,6.09480908203125,-0.07234396785497665,-0.11837112158536911,0.07742448151111603
1780626355901838800,6.1048388671875,-0.09115201234817505,-0.10985619574785233,0.064499631524086
1780626355911869000,6.114868896484375,-0.10707105696201324,-0.10075856745243073,0.06579579412937164
1780626355921898800,6.124898681640625,-0.11062344908714294,-0.0958453044295311,0.06952767819166183
1780626355931928800,6.1349287109375,-0.10490777343511581,-0.0780644416809082,0.08031374961137772
1780626355941959000,6.144958984375,-0.10947003215551376,-0.08337292075157166,0.09346363693475723
1780626355951989000,6.154989013671875,-0.11164584010839462,-0.11721371114253998,0.09283406287431717
1780626355962019000,6.16501904296875,-0.10197776556015015,-0.16026318073272705,0.07837709784507751
1780626355972048600,6.175048583984375,-0.08590798079967499,-0.18152424693107605,0.07485000789165497
1780626355982078700,6.18507861328125,-0.08153693377971649,-0.17858518660068512,0.08309675008058548
1780626355992108800,6.19510888671875,-0.07529342174530029,-0.15267343819141388,0.11681956052780151
1780626356002139000,6.205138916015625,-0.05373033881187439,-0.1005961149930954,0.14871729910373688
1780626356012169000,6.2151689453125,-0.0225596372038126,-0.04554405063390732,0.16334737837314606
1780626356022199000,6.225198974609375,0.006897320970892906,-0.012499280273914337,0.16237106919288635
1780626356032228900,6.235228759765625,0.013344567269086838,-0.005929528269916773,0.13140089809894562
1780626356042259000,6.245259033203125,-0.003466370515525341,-0.009073922410607338,0.05176465958356857
1780626356052288800,6.255288818359375,-0.02917519584298134,-0.022846726700663567,-0.04917420446872711
1780626356062318800,6.26531884765625,-0.04475042596459389,-0.0380813404917717,-0.11367490142583847
1780626356072349000,6.275348876953125,-0.03960972651839256,-0.05181685835123062,-0.11627653986215591
1780626356082378800,6.285378662109375,-0.014085991308093071,-0.07021770626306534,-0.07703539729118347
1780626356092408800,6.295408935546875,0.021739650517702103,-0.0993279218673706,-0.04122094064950943
1780626356102439000,6.30543896484375,0.04722423851490021,-0.10572563111782074,-0.022243253886699677
1780626356112469000,6.315468994140625,0.047084689140319824,-0.08915810286998749,-0.01690574735403061
1780626356122499000,6.3254990234375,0.03696520999073982,-0.06520216912031174,-0.03025750443339348
1780626356132529000,6.33552880859375,0.03268231078982353,-0.03226526081562042,-0.05835811421275139
1780626356142558700,6.345558837890625,0.03959241509437561,0.020079968497157097,-0.09181114286184311
1780626356152588800,6.3555888671875,0.04556189104914665,0.0473608560860157,-0.1169404685497284
1780626356162619000,6.365618896484375,0.05103309080004692,0.03341148793697357,-0.14313904941082
1780626356172649000,6.37564892578125,0.04632515460252762,-0.010061422362923622,-0.16569308936595917
1780626356182679000,6.385678955078125,0.03334810212254524,-0.05644197016954422,-0.1884460747241974
1780626356192708900,6.395708984375,0.03127722814679146,-0.07469075173139572,-0.19324882328510284
1780626356202738700,6.40573876953125,0.037883732467889786,-0.05266747251152992,-0.1663445085287094
1780626356212768800,6.415768798828125,0.04514191299676895,-0.0068358019925653934,-0.13929344713687897
1780626356222798800,6.425798828125,0.04788736626505852,0.06018797308206558,-0.12396508455276489
1780626356232829000,6.435828857421875,0.04833291098475456,0.09999903291463852,-0.10999494045972824
1780626356242859000,6.44585888671875,0.045769885182380676,0.11380459368228912,-0.10952223092317581
1780626356252888800,6.455888916015625,0.0594598650932312,0.11839135736227036,-0.08887874335050583
1780626356262919000,6.4659189453125,0.05890406295657158,0.08283203095197678,-0.06106735020875931
1780626356272949000,6.475948974609375,0.054900798946619034,0.03791143000125885,-0.08243628591299057
1780626356282978800,6.485978759765625,0.05898236110806465,0.03826909139752388,-0.11191215366125107
1780626356293009000,6.4960087890625,0.07112264633178711,0.035777971148490906,-0.11493457853794098
1780626356303038700,6.506038818359375,0.08846434950828552,0.02954351156949997,-0.1112399697303772
1780626356313068800,6.51606884765625,0.09086119383573532,0.03556118905544281,-0.1262306421995163
1780626356323099000,6.526098876953125,0.08590584993362427,0.05080246180295944,-0.1898663341999054
1780626356333129000,6.53612890625,0.07137511670589447,0.09021804481744766,-0.28368017077445984
1780626356343159000,6.546158935546875,0.0525878444314003,0.15221883356571198,-0.3535199761390686
1780626356353188900,6.55618896484375,0.05312793329358101,0.20895801484584808,-0.3709256052970886
1780626356363218700,6.56621875,0.08956397324800491,0.23212431371212006,-0.345157653093338
1780626356373248800,6.576248779296875,0.12083373963832855,0.25295448303222656,-0.2907593846321106
1780626356383278800,6.58627880859375,0.137516051530838,0.2748723030090332,-0.22569145262241364
1780626356393309000,6.596308837890625,0.13469469547271729,0.27127569913864136,-0.17685307562351227
1780626356403339000,6.606339111328125,0.13450375199317932,0.2586081326007843,-0.1434495747089386
1780626356413368800,6.616368896484375,0.11631782352924347,0.27058249711990356,-0.12873001396656036
1780626356423399000,6.62639892578125,0.10801195353269577,0.2845939099788666,-0.14439313113689423
1780626356433428700,6.6364287109375,0.10864711552858353,0.25334492325782776,-0.17638862133026123
1780626356443458800,6.646458740234375,0.09635316580533981,0.229215607047081,-0.1957487314939499
1780626356453489000,6.656489013671875,0.08697937428951263,0.20849302411079407,-0.19545204937458038
1780626356463519000,6.66651904296875,0.07533709704875946,0.2119828313589096,-0.1731901615858078
1780626356473548800,6.676548828125,0.06270599365234375,0.22643554210662842,-0.15461088716983795
1780626356483579000,6.686578857421875,0.03706347942352295,0.23783226311206818,-0.14620327949523926
1780626356493609000,6.69660888671875,0.013459349982440472,0.26101216673851013,-0.1493183821439743
1780626356503639000,6.70663916015625,-0.02689819224178791,0.2776300013065338,-0.16294097900390625
1780626356513668900,6.7166689453125,-0.04051573574542999,0.27457910776138306,-0.17662537097930908
1780626356523698700,6.72669873046875,-0.05754745006561279,0.239018976688385,-0.17253023386001587
1780626356533728800,6.736728759765625,-0.06973593682050705,0.18053649365901947,-0.150516539812088
1780626356543758800,6.7467587890625,-0.07704658061265945,0.07908762991428375,-0.1714865267276764
1780626356553789000,6.756788818359375,-0.10191917419433594,-0.011347996070981026,-0.2122049331665039
1780626356563819000,6.766819091796875,-0.12898407876491547,-0.05604143068194389,-0.23728924989700317
1780626356573849000,6.77684912109375,-0.17057733237743378,-0.08752558380365372,-0.2435103952884674
1780626356583878700,6.786878662109375,-0.20298480987548828,-0.09588311612606049,-0.2298654168844223
1780626356593908700,6.79690869140625,-0.2126568704843521,-0.07959336042404175,-0.19195052981376648
1780626356603938800,6.806938720703125,-0.21064139902591705,-0.06801207363605499,-0.13235510885715485
1780626356613969000,6.816968994140625,-0.20095813274383545,-0.09063243120908737,-0.05307760089635849
1780626356623999000,6.8269990234375,-0.1804342269897461,-0.1490592509508133,0.03253690525889397
1780626356634028800,6.83702880859375,-0.1573645919561386,-0.19881854951381683,0.0957571491599083
1780626356644059000,6.847058837890625,-0.14854659140110016,-0.2600419521331787,0.1340659260749817
1780626356654089000,6.8570888671875,-0.14024418592453003,-0.33378010988235474,0.11492392420768738
1780626356664118800,6.867118896484375,-0.14257685840129852,-0.39960119128227234,-0.001973402453586459
1780626356674148600,6.877148681640625,-0.17592522501945496,-0.4504116475582123,-0.11733301728963852
1780626356684178700,6.8871787109375,-0.23653317987918854,-0.46280092000961304,-0.10660820454359055
1780626356694208500,6.89720849609375,-0.2574315369129181,-0.48613476753234863,0.006679740734398365
1780626356704238600,6.907238525390625,-0.22474709153175354,-0.5023837685585022,0.118446484208107
1780626356714268700,6.9172685546875,-0.16992326080799103,-0.5445660948753357,0.18083342909812927
1780626356724298800,6.927298828125,-0.12829804420471191,-0.6120090484619141,0.1826600879430771
1780626356734328800,6.937328857421875,-0.10984021425247192,-0.6508352756500244,0.15575817227363586
1780626356744358700,6.947358642578125,-0.11867125332355499,-0.6508461833000183,0.14821717143058777
1780626356754388500,6.957388427734375,-0.12950552999973297,-0.6546430587768555,0.14708665013313293
1780626356764418600,6.96741845703125,-0.13263101875782013,-0.6668941378593445,0.14631406962871552
1780626356774448600,6.97744873046875,-0.1305396407842636,-0.6780866384506226,0.15544071793556213
1780626356784478700,6.987478759765625,-0.1369384080171585,-0.6073099374771118,0.1725398153066635
1780626356794508800,6.9975087890625,-0.13990943133831024,-0.5181824564933777,0.21249628067016602
1780626356804538600,7.00753857421875,-0.12402234226465225,-0.4528478980064392,0.24937653541564941
1780626356814568700,7.017568603515625,-0.0950000137090683,-0.44699639081954956,0.2760632634162903
1780626356824598500,7.0275986328125,-0.0595615990459919,-0.48665115237236023,0.2719271183013916
1780626356834628600,7.037628662109375,-0.03398939222097397,-0.5171246528625488,0.25836658477783203
1780626356844658700,7.04765869140625,-0.020776385441422462,-0.4916195273399353,0.2555806338787079
1780626356854688800,7.057688720703125,0.012984774075448513,-0.45209556818008423,0.22365786135196686
1780626356864718600,7.067718505859375,0.048884984105825424,-0.4284416437149048,0.19942788779735565
1780626356874748700,7.077748779296875,0.06740940362215042,-0.39145511388778687,0.21409018337726593
1780626356884778800,7.08777880859375,0.07234690338373184,-0.3529681861400604,0.231513112783432
1780626356894808800,7.097808837890625,0.06159971281886101,-0.32361534237861633,0.24749155342578888
1780626356904838700,7.107838623046875,0.033907365053892136,-0.27808859944343567,0.26727113127708435
1780626356914868500,7.117868408203125,-0.012351474724709988,-0.19162163138389587,0.2640327215194702
1780626356924898600,7.127898681640625,-0.047148335725069046,-0.1135723665356636,0.2909010648727417
1780626356934928600,7.1379287109375,-0.06003643944859505,-0.09283939003944397,0.3320288062095642
1780626356944958700,7.147958740234375,-0.05006077140569687,-0.15704713761806488,0.3274702727794647
1780626356954988800,7.15798876953125,-0.025603896006941795,-0.25980067253112793,0.271110862493515
1780626356965018600,7.1680185546875,0.007354585453867912,-0.3724566698074341,0.19165384769439697
1780626356975049700,7.1780498046875,0.03657239302992821,-0.461868554353714,0.11259391903877258
1780626356985078500,7.18807861328125,0.06304287910461426,-0.48626017570495605,0.045939527451992035
1780626356995108600,7.198108642578125,0.08113986253738403,-0.43354079127311707,0.017971809953451157
1780626357005139700,7.2081396484375,0.11190149933099747,-0.4083515405654907,-0.015482819639146328
1780626357015168800,7.218168701171875,0.1537536084651947,-0.4629383683204651,-0.07322680950164795
1780626357025199600,7.22819970703125,0.18245503306388855,-0.5335137248039246,-0.11655005067586899
1780626357035229700,7.238229736328125,0.20423009991645813,-0.5082312822341919,-0.12189421057701111
1780626357045259800,7.248259765625,0.2269894778728485,-0.38511785864830017,-0.10883806645870209
1780626357055289900,7.258289794921875,0.24299533665180206,-0.258750319480896,-0.0867905542254448
1780626357065319700,7.268319580078125,0.25404080748558044,-0.17861928045749664,-0.05698924884200096
1780626357075349500,7.278349609375,0.24383769929409027,-0.13350746035575867,-0.050153713673353195
1780626357085379600,7.288379638671875,0.22087006270885468,-0.041372206062078476,-0.05567098408937454
1780626357095409700,7.29840966796875,0.18775099515914917,0.06380907446146011,-0.028138959780335426
1780626357105439700,7.308439697265625,0.16263419389724731,0.0928116962313652,-0.0060118199326097965
1780626357115469600,7.318469482421875,0.1399959921836853,-0.01182230468839407,-0.02864016592502594
1780626357125499600,7.328499755859375,0.08556710183620453,-0.1532076597213745,-0.04446014389395714
1780626357135529700,7.33852978515625,0.0033665020018815994,-0.23723359405994415,-0.07936566323041916
1780626357145559600,7.3485595703125,-0.09654012322425842,-0.32618290185928345,-0.12942776083946228
1780626357155589600,7.358589599609375,-0.16886119544506073,-0.436646044254303,-0.18507584929466248
1780626357165619700,7.36861962890625,-0.19187836349010468,-0.46808838844299316,-0.2636486887931824
1780626357175649500,7.3786494140625,-0.20949091017246246,-0.45628949999809265,-0.2741985321044922
1780626357185679600,7.3886796875,-0.21285182237625122,-0.47804325819015503,-0.21325528621673584
1780626357195709700,7.398709716796875,-0.204145148396492,-0.47320085763931274,-0.1661980301141739
1780626357205739800,7.40873974609375,-0.1825980395078659,-0.3918761610984802,-0.13976642489433289
1780626357215769900,7.418769775390625,-0.14901451766490936,-0.3365548551082611,-0.10383132100105286
1780626357225799700,7.428799560546875,-0.11980310082435608,-0.3800983428955078,-0.05228584259748459
1780626357235829500,7.43882958984375,-0.09999610483646393,-0.482340544462204,-0.015734488144516945
1780626357245859600,7.448859619140625,-0.09135494381189346,-0.5469762682914734,0.015564045868813992
1780626357255889700,7.4588896484375,-0.09208998084068298,-0.5654615163803101,0.029332322999835014
1780626357265919700,7.468919677734375,-0.11145781725645065,-0.5400019884109497,0.007222759071737528
1780626357275949800,7.47894970703125,-0.13543133437633514,-0.5095064043998718,-0.038114894181489944
1780626357285979600,7.488979736328125,-0.12452754378318787,-0.5102939009666443,-0.09050140529870987
1780626357296009700,7.499009765625,-0.1457795798778534,-0.5809744596481323,-0.11150548607110977
1780626357306039600,7.50903955078125,-0.19560252130031586,-0.6961902379989624,-0.13660551607608795
1780626357316069600,7.519069580078125,-0.26103904843330383,-0.7898227572441101,-0.1871533840894699
1780626357326099700,7.529099609375,-0.31485968828201294,-0.7987134456634521,-0.2545105814933777
1780626357336129800,7.5391298828125,-0.30990245938301086,-0.7389102578163147,-0.31249532103538513
1780626357346159600,7.54915966796875,-0.2579529881477356,-0.5779562592506409,-0.32277485728263855
1780626357356189700,7.559189697265625,-0.17732125520706177,-0.3477505147457123,-0.2931424081325531
1780626357366219800,7.5692197265625,-0.1023588627576828,-0.20242926478385925,-0.239377960562706
1780626357376249600,7.57924951171875,-0.03278910368680954,-0.1611177772283554,-0.19139818847179413
1780626357386279700,7.58927978515625,0.0009038768475875258,-0.16073881089687347,-0.17055709660053253
1780626357396309500,7.5993095703125,-0.00577746145427227,-0.18464946746826172,-0.154868945479393
1780626357406339600,7.609339599609375,-0.007427822332829237,-0.20073390007019043,-0.1881331503391266
1780626357416369700,7.61936962890625,0.020906880497932434,-0.18187499046325684,-0.250527024269104
1780626357426399700,7.629399658203125,0.039627302438020706,-0.12692518532276154,-0.27406349778175354
1780626357436429800,7.639429931640625,0.04840188845992088,-0.06831434369087219,-0.24338948726654053
1780626357446459600,7.649459716796875,0.05458547919988632,0.013497166335582733,-0.22502778470516205
1780626357456489500,7.659489501953125,0.03939773887395859,0.12088647484779358,-0.21794511377811432
1780626357466519600,7.66951953125,0.0022919164039194584,0.1989826112985611,-0.18865087628364563
1780626357476549600,7.679549560546875,-0.02027038484811783,0.18484973907470703,-0.15569372475147247
1780626357486579700,7.689579833984375,-0.03718119114637375,0.11698920279741287,-0.14426210522651672
1780626357496609800,7.69960986328125,-0.04151228815317154,0.023728765547275543,-0.13010980188846588
1780626357506639600,7.7096396484375,-0.02954377792775631,-0.0891711562871933,-0.13392610847949982
1780626357516669700,7.719669677734375,-0.006325007416307926,-0.13020753860473633,-0.1668078899383545
1780626357526699800,7.72969970703125,0.004781173076480627,-0.10273037105798721,-0.19819538295269012
1780626357536729600,7.7397294921875,-0.006204099860042334,-0.027823908254504204,-0.17007878422737122
1780626357546759700,7.749759765625,-0.014903048984706402,0.0356844924390316,-0.11978845298290253
1780626357556789800,7.759789794921875,-0.01986744813621044,0.05137850344181061,-0.09523890167474747
1780626357566819600,7.769819580078125,-0.029221801087260246,0.025602033361792564,-0.06890396773815155
1780626357576849700,7.779849609375,-0.041856903582811356,-0.048713743686676025,-0.05922257527709007
1780626357586879700,7.789879638671875,-0.05998823419213295,-0.082965187728405,-0.03801928833127022
1780626357596909800,7.799909912109375,-0.06222822144627571,-0.10654348880052567,-0.014450844377279282
1780626357606939600,7.809939697265625,-0.05692320317029953,-0.1399509757757187,-0.014900119975209236
1780626357616969500,7.819969482421875,-0.050696734338998795,-0.163707435131073,-0.0243772454559803
1780626357626999600,7.82999951171875,-0.052314337342977524,-0.158568874001503,-0.023382820188999176
1780626357637029600,7.840029541015625,-0.05050764977931976,-0.13343848288059235,-0.003856257302686572
1780626357647059700,7.850059814453125,-0.048164334148168564,-0.10955259203910828,0.025009745731949806
1780626357657089800,7.86008984375,-0.04308595135807991,-0.11885900795459747,0.020780911669135094
1780626357667119400,7.870119384765625,-0.05472077056765556,-0.11875221878290176,0.004261324182152748
1780626357677149200,7.880149169921875,-0.06430894881486893,-0.10870037972927094,0.00307595101185143
1780626357687179300,7.89017919921875,-0.05168023705482483,-0.12522156536579132,0.014365623705089092
1780626357697209300,7.900209228515625,-0.030597057193517685,-0.1323375403881073,0.035600606352090836
1780626357707239400,7.910239501953125,-0.009476060047745705,-0.1316850632429123,0.0687393844127655
1780626357717269500,7.92026953125,-0.007458182517439127,-0.1424974948167801,0.08513779938220978
1780626357727299300,7.93029931640625,-0.01618562825024128,-0.13496313989162445,0.10308536887168884
1780626357737329400,7.940329345703125,-0.022404640913009644,-0.15915609896183014,0.10570592433214188
1780626357747359200,7.950359130859375,-0.02082432247698307,-0.17716892063617706,0.10754936188459396
1780626357757389300,7.960389404296875,-0.010981278494000435,-0.1418285071849823,0.1454394906759262
1780626357767419400,7.97041943359375,0.0017438378417864442,-0.138655886054039,0.1871027797460556
1780626357777449500,7.980449462890625,0.021079452708363533,-0.1203911229968071,0.21373306214809418
1780626357787479300,7.990479248046875,0.04078285023570061,-0.0735144317150116,0.21449552476406097
1780626357797509400,8.00050927734375,0.05052842199802399,-0.021630194038152695,0.20345725119113922
1780626357807539500,8.01053955078125,0.05499481037259102,0.005088502075523138,0.1763705015182495
1780626357817569300,8.0205693359375,0.051228832453489304,0.010085923597216606,0.1439816653728485
1780626357827599400,8.030599365234375,0.03520166128873825,-0.01655580662190914,0.12139113992452621
1780626357837629400,8.04062939453125,0.01332645770162344,-0.03682299703359604,0.12333125621080399
1780626357847659300,8.0506591796875,-0.010520018637180328,-0.03645308315753937,0.1425909698009491
1780626357857689300,8.060689453125,-0.023374564945697784,-0.01411422062665224,0.17977109551429749
1780626357867719400,8.070719482421875,-0.025671541690826416,0.013795973733067513,0.22064049541950226
1780626357877749500,8.08074951171875,-0.018671954050660133,0.022793462499976158,0.2478707879781723
1780626357887779600,8.090779541015625,-0.013284379616379738,0.01515951193869114,0.2523028254508972
1780626357897809200,8.10080908203125,-0.0151973282918334,-0.012032427825033665,0.24874483048915863
1780626357907839200,8.110839111328126,-0.02185043692588806,-0.056881923228502274,0.24490082263946533
1780626357917869300,8.120869384765625,-0.03851809725165367,-0.08660972863435745,0.25201866030693054
1780626357927899400,8.1308994140625,-0.05284803360700607,-0.09968557953834534,0.2662271559238434
1780626357937929500,8.140929443359376,-0.079190693795681,-0.10067174583673477,0.2908693850040436
1780626357947959300,8.150959228515624,-0.0955938994884491,-0.10442094504833221,0.3204147517681122
1780626357957989400,8.1609892578125,-0.10252344608306885,-0.1065131276845932,0.35396286845207214
1780626357968019500,8.17101953125,-0.09682614356279373,-0.12175226956605911,0.3904585540294647
1780626357978049300,8.18104931640625,-0.08135957270860672,-0.1543717235326767,0.4162036180496216
1780626357988079400,8.191079345703125,-0.04983999580144882,-0.19433192908763885,0.420213520526886
1780626357998109400,8.201109375,-0.02328827790915966,-0.20789647102355957,0.41027382016181946
1780626358008139300,8.21113916015625,0.005902630276978016,-0.17572015523910522,0.38997092843055725
1780626358018169300,8.22116943359375,0.02064056321978569,-0.1363312155008316,0.3792130947113037
1780626358028199400,8.231199462890626,-0.00036378781078383327,-0.14566345512866974,0.3819385766983032
1780626358038229500,8.2412294921875,-0.034635476768016815,-0.162567600607872,0.3797140419483185
1780626358048259300,8.25125927734375,-0.0739290863275528,-0.17272330820560455,0.3738787770271301
1780626358058289400,8.261289306640625,-0.10345395654439926,-0.17812366783618927,0.3630509078502655
1780626358068319200,8.2713193359375,-0.12529747188091278,-0.1840774267911911,0.35116493701934814
1780626358078349300,8.281349365234375,-0.14205513894557953,-0.19739963114261627,0.3296663165092468
1780626358088379400,8.29137939453125,-0.1391672044992447,-0.23246759176254272,0.29686787724494934
1780626358098409500,8.301409423828124,-0.12178821861743927,-0.2675246596336365,0.23674197494983673
1780626358108439600,8.311439453125,-0.08906356245279312,-0.2767098844051361,0.12752467393875122
1780626358118469400,8.321469482421875,-0.04356824979186058,-0.25719133019447327,-0.03419419005513191
1780626358128499200,8.331499267578126,-0.008212389424443245,-0.19885770976543427,-0.22027111053466797
1780626358138529300,8.341529296875,0.0235306266695261,-0.11744007468223572,-0.4193671643733978
1780626358148559400,8.351559326171875,0.022343123331665993,-0.035291679203510284,-0.6236577033996582
1780626358158589400,8.36158935546875,-0.04512886330485344,0.0879913717508316,-0.8901703953742981
1780626358168619500,8.37161962890625,-0.1485103815793991,0.3582971692085266,-1.239492416381836
1780626358178649300,8.3816494140625,-0.16806863248348236,0.5878698825836182,-1.5016931295394897
1780626358188679400,8.391679443359376,-0.07840292900800705,0.39128121733665466,-1.600142240524292
1780626358198709500,8.40170947265625,-0.006706106010824442,-0.05781083554029465,-1.4964430332183838
1780626358208739300,8.4117392578125,-0.03760037198662758,-0.398502916097641,-1.2485942840576172
1780626358218769400,8.421769287109376,-0.17059198021888733,-0.47440433502197266,-0.9623303413391113
1780626358228799200,8.43179931640625,-0.3726867437362671,-0.21404437720775604,-0.7372239828109741
1780626358238829300,8.441829345703125,-0.5403361916542053,0.13918878138065338,-0.5183401107788086
1780626358248859400,8.451859375,-0.5929768085479736,0.3292870819568634,-0.26200443506240845
1780626358258889500,8.461889404296874,-0.6004416346549988,0.3942919075489044,-0.061353638768196106
1780626358268919600,8.47191943359375,-0.6328719854354858,0.49936532974243164,0.18109361827373505
1780626358278949400,8.481949462890626,-0.7202641367912292,0.6072555780410767,0.46395888924598694
1780626358288979200,8.491979248046874,-0.8345689177513123,0.6066451668739319,0.7585585713386536
1780626358299009300,8.50200927734375,-0.9830387830734253,0.6076465249061584,1.0794228315353394
1780626358309039400,8.512039306640625,-1.1489289999008179,0.5642828345298767,1.4302351474761963
1780626358319069400,8.5220693359375,-1.2932190895080566,0.5398480296134949,1.8209078311920166
1780626358329099500,8.532099609375,-1.4381285905838013,0.4256000220775604,2.1276729106903076
1780626358339129300,8.54212939453125,-1.5759854316711426,0.28230732679367065,2.2783546447753906
1780626358349159400,8.552159423828124,-1.663573145866394,0.07741649448871613,2.137977123260498
1780626358359189200,8.562189208984375,-1.7529077529907227,-0.3142111897468567,1.7668033838272095
1780626358369219300,8.57221923828125,-1.7640347480773926,-0.7675123810768127,1.3402293920516968
1780626358379249400,8.58224951171875,-1.6175915002822876,-1.3092550039291382,0.7896035313606262
1780626358389279500,8.592279541015625,-1.0965237617492676,-1.8544809818267822,0.11390925943851471
1780626358399309300,8.602309326171875,-0.25843527913093567,-2.0931031703948975,-0.4287785291671753
1780626358409339400,8.61233935546875,0.4772166311740875,-2.435636043548584,-0.9364012479782104
1780626358419369500,8.622369384765625,0.7535837888717651,-3.0379045009613037,-1.7120301723480225
1780626358429399600,8.632399658203125,0.44631704688072205,-2.2836945056915283,-1.848353385925293
1780626358439429400,8.642429443359376,0.07556213438510895,-0.658786416053772,-0.9995378851890564
1780626358449459200,8.652459228515625,-0.0884329229593277,0.3970072865486145,0.1133585125207901
1780626358459489300,8.6624892578125,-0.18852543830871582,0.7985541820526123,0.7953327894210815
1780626358469519400,8.672519287109376,-0.39236244559288025,0.9175801873207092,0.9431837797164917
1780626358479549400,8.682549560546875,-0.5188665986061096,0.8031728863716125,0.8796908259391785
1780626358489579500,8.69257958984375,-0.5708672404289246,0.6872180700302124,0.8695774674415588
1780626358499609300,8.702609375,-0.5708781480789185,0.4660010039806366,0.8624410033226013
1780626358509639200,8.71263916015625,-0.6051149368286133,0.14829492568969727,0.7560504078865051
1780626358519669200,8.722669189453125,-0.6322767734527588,-0.06060635671019554,0.5135954022407532
1780626358529699300,8.73269921875,-0.6059088110923767,0.0011350392596796155,0.2502433955669403
1780626358539729400,8.7427294921875,-0.5683084726333618,0.1505221277475357,0.043771713972091675
1780626358549759500,8.752759521484375,-0.5807192921638489,0.2531997859477997,-0.06714015454053879
1780626358559789300,8.762789306640625,-0.6263344883918762,0.3184349536895752,-0.10702098906040192
1780626358569819400,8.7728193359375,-0.6944853067398071,0.3997412621974945,-0.056355152279138565
1780626358579849500,8.782849365234375,-0.7606667280197144,0.5267306566238403,0.023744476959109306
1780626358589879300,8.79287939453125,-0.7855963110923767,0.8277469277381897,0.11040826886892319
1780626358599909400,8.802909423828124,-0.8220201134681702,1.286486268043518,0.25498703122138977
1780626358609939500,8.812939453125,-0.9291452169418335,1.765184760093689,0.4468957483768463
1780626358619969300,8.82296923828125,-1.115386962890625,2.06472110748291,0.60751873254776
1780626358629999400,8.832999267578124,-1.360967755317688,2.0899853706359863,0.6454975008964539
1780626358640029400,8.843029541015625,-1.5883822441101074,1.766971468925476,0.5647875070571899
1780626358650059500,8.8530595703125,-1.744370460510254,1.2942930459976196,0.3654669225215912
1780626358660089300,8.86308935546875,-1.7751398086547852,0.8780149221420288,0.11951894313097
1780626358670119200,8.873119140625,-1.720436930656433,0.5417404770851135,-0.07344412058591843
1780626358680149200,8.883149169921875,-1.543293833732605,0.22972427308559418,-0.21944819390773773
1780626358690179300,8.893179443359376,-1.2407877445220947,-0.035058651119470596,-0.30927902460098267
1780626358700209200,8.903209228515625,-0.8642849922180176,-0.22031372785568237,-0.2825195789337158
1780626358710239200,8.9132392578125,-0.5118238925933838,-0.32853367924690247,-0.0748252421617508
1780626358720269300,8.923269287109376,-0.21384544670581818,-0.38749098777770996,0.3010072410106659
1780626358730299100,8.933299072265624,-0.0320037379860878,-0.38269704580307007,0.7268959879875183
1780626358740329200,8.9433291015625,-0.005381449591368437,-0.3180235028266907,1.0319461822509766
1780626358750359300,8.953359375,-0.062008243054151535,-0.20925788581371307,0.9945998191833496
1780626358760389400,8.963389404296874,-0.08019150793552399,-0.002656236756592989,0.5486791133880615
1780626358770419500,8.97341943359375,-0.014812768436968327,0.3245530426502228,0.06722377985715866
1780626358780449000,8.983448974609376,0.07499860972166061,0.5535318851470947,-0.10591018944978714
1780626358790479000,8.99347900390625,0.18541939556598663,0.4995062053203583,-0.058347463607788086
1780626358800509200,9.00350927734375,0.3031183183193207,0.2861603796482086,-0.0020634171087294817
1780626358810539300,9.013539306640626,0.3897102177143097,0.13520655035972595,-0.024411333724856377
1780626358820569300,9.0235693359375,0.4474531412124634,0.15099750459194183,-0.07344305515289307
1780626358830599400,9.033599365234375,0.5168319344520569,0.19514578580856323,-0.13393916189670563
1780626358840629200,9.043629150390625,0.5857425928115845,0.28678277134895325,-0.1632475107908249
1780626358850659000,9.0536591796875,0.6402702331542969,0.40347155928611755,-0.1442924588918686
1780626358860689200,9.063689208984375,0.6481457352638245,0.500459611415863,-0.09322315454483032
1780626358870719200,9.07371923828125,0.6092095375061035,0.5501986742019653,-0.0354357548058033
1780626358880749300,9.083749267578124,0.5248435139656067,0.5883687138557434,0.02592720463871956
1780626358890779100,9.093779052734375,0.42284366488456726,0.5983190536499023,0.10273943096399307
1780626358900809200,9.103809326171875,0.3348861038684845,0.576738715171814,0.17600059509277344
1780626358910839300,9.11383935546875,0.2733825445175171,0.5647653937339783,0.2140779346227646
1780626358920869400,9.123869384765625,0.2398221790790558,0.5628718733787537,0.21911077201366425
1780626358930899200,9.133899169921875,0.2245659977197647,0.5396395325660706,0.20308227837085724
1780626358940929300,9.14392919921875,0.2319709211587906,0.4188172221183777,0.1593955159187317
1780626358950959000,9.153958984375,0.24684280157089233,0.3048557639122009,0.09194882959127426
1780626358960989200,9.1639892578125,0.27265575528144836,0.2749394178390503,0.032594695687294006
1780626358971019300,9.174019287109376,0.3095056414604187,0.28748345375061035,-0.006648847833275795
1780626358981049300,9.18404931640625,0.34338533878326416,0.29350537061691284,-0.04223214089870453
1780626358991079400,9.194079345703125,0.383003830909729,0.30606430768966675,-0.08330047875642776
1780626359001109200,9.204109130859376,0.4139021039009094,0.3003838062286377,-0.1408465951681137
1780626359011139000,9.21413916015625,0.4376545548439026,0.2973935902118683,-0.2198311686515808
1780626359021169200,9.224169189453125,0.4483189284801483,0.31061699986457825,-0.2774941921234131
1780626359031199200,9.23419921875,0.45964935421943665,0.3205135762691498,-0.3032914400100708
1780626359041229300,9.244229248046874,0.4643860459327698,0.3578777015209198,-0.30848780274391174
1780626359051259400,9.25425927734375,0.4536234140396118,0.409454882144928,-0.2897428572177887
1780626359061289200,9.264289306640626,0.44365814328193665,0.4278160631656647,-0.24659034609794617
1780626359071319300,9.2743193359375,0.4326006770133972,0.4209296405315399,-0.19868247210979462
1780626359081349000,9.28434912109375,0.4170430302619934,0.38128212094306946,-0.1300956904888153
1780626359091379200,9.294379150390625,0.3889831602573395,0.2912651300430298,-0.05008287355303764
1780626359101409300,9.3044091796875,0.34306520223617554,0.18917497992515564,0.024530909955501556
1780626359111439000,9.314439208984375,0.3082025647163391,0.11461473256349564,0.07576693594455719
1780626359121469200,9.32446923828125,0.28931862115859985,0.04921548441052437,0.10952223092317581
1780626359131499300,9.334499267578124,0.2973818778991699,0.004846154246479273,0.1271265298128128
1780626359141529300,9.344529296875,0.34050485491752625,0.005081844050437212,0.11974477767944336
1780626359151559400,9.354559326171875,0.43283718824386597,0.07409553229808807,0.05982045829296112
1780626359161589200,9.36458935546875,0.5517081618309021,0.16920660436153412,-0.05017155781388283
1780626359171619000,9.374619140625,0.6700918078422546,0.2421945184469223,-0.15335866808891296
1780626359181649200,9.384649169921875,0.7562304139137268,0.29934489727020264,-0.22645364701747894
1780626359191679200,9.39467919921875,0.8033132553100586,0.32823434472084045,-0.2600497007369995
1780626359201709300,9.404709228515625,0.8130872845649719,0.32619887590408325,-0.2618004381656647
1780626359211739400,9.414739501953125,0.8038458824157715,0.3057383596897125,-0.25542616844177246
1780626359221769200,9.424769287109376,0.8139155507087708,0.28551456332206726,-0.2866285741329193
1780626359231799300,9.43479931640625,0.8589307069778442,0.3477718234062195,-0.3853633999824524
1780626359241829000,9.4448291015625,0.9211426973342896,0.5051971077919006,-0.5529279112815857
1780626359251859200,9.454859130859376,0.9860963821411133,0.6830235719680786,-0.7863627672195435
1780626359261889300,9.46488916015625,1.032751441001892,0.8307179808616638,-1.0999115705490112
1780626359271919400,9.47491943359375,1.0260653495788574,0.9487271904945374,-1.5012222528457642
1780626359281949200,9.48494921875,0.9675434827804565,1.0542423725128174,-1.8848040103912354
1780626359291979300,9.494979248046874,0.8822221755981445,1.1864712238311768,-2.0658962726593018
1780626359302010400,9.50501025390625,0.8265285491943359,1.1330424547195435,-1.9869258403778076
1780626359312040400,9.51504052734375,0.7885827422142029,0.6848984360694885,-1.6922523975372314
1780626359322070300,9.5250703125,0.7391185164451599,0.21994169056415558,-1.2973029613494873
1780626359332100000,9.53510009765625,0.658332884311676,-0.018790464848279953,-0.8453714847564697
1780626359342130200,9.545130126953126,0.5200463533401489,0.05404219776391983,-0.4878745973110199
1780626359352160300,9.55516015625,0.35617008805274963,0.2889697551727295,-0.23821097612380981
1780626359362190300,9.5651904296875,0.24382491409778595,0.4724905788898468,0.04686550796031952
1780626359372220200,9.57522021484375,0.2070101797580719,0.5748409032821655,0.42695745825767517
1780626359382250200,9.585250244140624,0.20130221545696259,0.624194860458374,0.8235447406768799
1780626359392280300,9.5952802734375,0.19539080560207367,0.6401301622390747,1.1641329526901245
1780626359402310100,9.60531005859375,0.17753483355045319,0.6536073684692383,1.4299668073654175
1780626359412340200,9.61534033203125,0.13128265738487244,0.6179510951042175,1.633310317993164
1780626359422370300,9.625370361328125,0.06820781528949738,0.5447993874549866,1.7434008121490479
1780626359432400100,9.635400146484375,0.010416688397526741,0.519430935382843,1.6725910902023315
1780626359442430200,9.64543017578125,0.008876582607626915,0.5472385883331299,1.4984701871871948
1780626359452460300,9.655460205078125,0.07713393121957779,0.4999088943004608,1.358199119567871
1780626359462490400,9.665490478515625,0.13231942057609558,0.3516453802585602,1.1611573696136475
1780626359472519200,9.675519287109376,0.14888401329517365,0.1427270621061325,0.8065409660339355
1780626359482549200,9.68554931640625,0.12376348674297333,-0.05624755844473839,0.27853256464004517
1780626359492579300,9.695579345703125,0.035948146134614944,0.0392235703766346,-0.2397894263267517
1780626359502609200,9.705609130859376,-0.03869599848985672,0.5931403040885925,-0.4197320342063904
1780626359512639200,9.71563916015625,-0.007698133587837219,0.9692302942276001,-0.3575703799724579
1780626359522669300,9.72566943359375,0.1836097687482834,1.0932830572128296,-0.10530298948287964
1780626359532700400,9.735700439453124,0.4365674555301666,0.8893879652023315,0.19622357189655304
1780626359542729200,9.745729248046874,0.5946995615959167,0.41595780849456787,0.260655015707016
1780626359552760300,9.75576025390625,0.5308830738067627,0.05036570131778717,0.07673605531454086
1780626359562790100,9.7657900390625,0.30829471349716187,0.00293293921276927,-0.10210985690355301
1780626359572819200,9.775819091796874,0.10410322993993759,0.13621003925800323,-0.1176038607954979
1780626359582850300,9.785850341796875,0.0171480942517519,0.24500229954719543,0.017845043912529945
1780626359592880000,9.795880126953126,0.0397370271384716,0.36102691292762756,0.26763516664505005
1780626359602910200,9.80591015625,0.0711548700928688,0.5730054974555969,0.5085034370422363
1780626359612940300,9.815940185546875,0.07910600304603577,0.8341228365898132,0.6620341539382935
1780626359622970400,9.825970458984376,0.10011328756809235,0.956909716129303,0.7389752864837646
1780626359633000200,9.836000244140624,0.14040638506412506,0.9196348190307617,0.7567670345306396
1780626359643030300,9.8460302734375,0.15963439643383026,0.8146764039993286,0.7102426886558533
1780626359653060000,9.85606005859375,0.15135890245437622,0.6914945840835571,0.6138882040977478
1780626359663091000,9.866091064453125,0.10499139875173569,0.579585075378418,0.495822548866272
1780626359673121000,9.87612109375,0.044312335550785065,0.46127334237098694,0.39583176374435425
1780626359683150800,9.88615087890625,-0.026876620948314667,0.3500211238861084,0.33147114515304565
1780626359693180700,9.8961806640625,-0.08902494609355927,0.2490585595369339,0.31461039185523987
1780626359703210800,9.906210693359375,-0.10928121954202652,0.1761140376329422,0.3494322896003723
1780626359713240800,9.91624072265625,-0.1062910184264183,0.15402738749980927,0.4081387519836426
1780626359723271000,9.92627099609375,-0.0788135901093483,0.1945234090089798,0.47040584683418274
1780626359733301000,9.936301025390625,-0.042569298297166824,0.25969362258911133,0.5219217538833618
1780626359743331000,9.9463310546875,0.0031822111923247576,0.2709002196788788,0.553796648979187
1780626359753361000,9.95636083984375,0.044138431549072266,0.19160085916519165,0.5465794801712036
1780626359763390700,9.966390625,0.07370378077030182,0.10770063102245331,0.5133008360862732
1780626359773420800,9.9764208984375,0.0686831921339035,0.06630099564790726,0.48931217193603516
1780626359783451000,9.986450927734374,0.02804708108305931,0.0455419197678566,0.4892019033432007
1780626359793481000,9.99648095703125,-0.028137361630797386,0.018757175654172897,0.5086885094642639
1780626359803510800,10.0065107421875,-0.08384589850902557,-0.031684160232543945,0.5417633652687073
1780626359813540900,10.016540771484374,-0.11854209005832672,-0.10358977317810059,0.5842597484588623
1780626359823571000,10.026571044921875,-0.12283165007829666,-0.18236075341701508,0.6101136803627014
1780626359833600800,10.036600830078125,-0.09642480313777924,-0.23625540733337402,0.6295129656791687
1780626359843630800,10.046630859375,-0.08017552644014359,-0.26867565512657166,0.663856565952301
1780626359853661000,10.056660888671875,-0.07858855277299881,-0.25590208172798157,0.7059808373451233
1780626359863690800,10.066690673828125,-0.08691093325614929,-0.19899246096611023,0.739692747592926
1780626359873720800,10.076720947265626,-0.09294245392084122,-0.11189378052949905,0.7552173733711243
1780626359883751000,10.0867509765625,-0.0907842293381691,0.01798752322793007,0.7569755911827087
1780626359893781000,10.096781005859375,-0.08017153292894363,0.14450764656066895,0.756523072719574
1780626359903811000,10.10681103515625,-0.057432398200035095,0.22725684940814972,0.7583974599838257
1780626359913841000,10.1168408203125,-0.03130172938108444,0.26767298579216003,0.7480382919311523
1780626359923870700,10.12687060546875,0.001184307737275958,0.308842271566391,0.7249960899353027
1780626359933900800,10.13690087890625,0.023629162460565567,0.34888607263565063,0.7019416093826294
1780626359943931000,10.146930908203124,0.04120096564292908,0.3812094032764435,0.7010771632194519
1780626359953961000,10.1569609375,0.05555513873696327,0.3815755844116211,0.7175748944282532
1780626359963991000,10.166990966796876,0.06789995729923248,0.342878520488739,0.7452446222305298
1780626359974020900,10.177020751953124,0.07019426673650742,0.2896589934825897,0.7577694654464722
1780626359984051000,10.187051025390625,0.05932484194636345,0.2186492532491684,0.7435210347175598
1780626359994080800,10.197080810546876,0.03784405067563057,0.14091211557388306,0.6994091868400574
1780626360004110800,10.20711083984375,-0.014590660110116005,0.09221408516168594,0.6396968960762024
1780626360014141000,10.217140869140625,-0.08828724920749664,0.05728752538561821,0.5876019597053528
1780626360024170800,10.227170654296875,-0.16057343780994415,0.025485120713710785,0.5599629282951355
1780626360034200800,10.237200927734374,-0.2079891562461853,0.0018612833227962255,0.5476769208908081
1780626360044231000,10.24723095703125,-0.21291173994541168,0.01798725686967373,0.5572587251663208
1780626360054261000,10.257260986328125,-0.1815471649169922,0.06548526883125305,0.5813747048377991
1780626360064290800,10.267290771484374,-0.14068308472633362,0.12069232761859894,0.5993604063987732
1780626360074321000,10.27732080078125,-0.10400602966547012,0.18048615753650665,0.5929749011993408
1780626360084350700,10.287350830078125,-0.06766773015260696,0.2308366745710373,0.5533910393714905
1780626360094380800,10.297380859375,-0.015246330760419369,0.24717862904071808,0.46662017703056335
1780626360104411000,10.307410888671875,-0.005468002520501614,0.2198980152606964,0.36185914278030396
1780626360114441000,10.31744091796875,-0.018373148515820503,0.15326198935508728,0.2737535238265991
1780626360124471000,10.327470947265626,-0.00484295841306448,0.026082200929522514,0.221781924366951
1780626360134500900,10.3375009765625,0.033912692219018936,-0.13518951833248138,0.1978430449962616
1780626360144530700,10.34753076171875,0.07215382158756256,-0.22342802584171295,0.20181061327457428
1780626360154560800,10.357560791015626,0.08645952492952347,-0.21127575635910034,0.2154795527458191
1780626360164590800,10.3675908203125,0.08256091922521591,-0.11531008034944534,0.2301304042339325
1780626360174621000,10.377620849609375,0.0719442293047905,0.027416709810495377,0.26307716965675354
1780626360184651000,10.387651123046876,0.0438540056347847,0.10907535254955292,0.3300229012966156
1780626360194680800,10.397680908203125,0.004998753312975168,0.05844040587544441,0.35749155282974243
1780626360204711000,10.4077109375,-0.03459206596016884,-0.08850163966417313,0.29017457365989685
1780626360214740700,10.41774072265625,-0.07682926952838898,-0.2751934826374054,0.13584890961647034
1780626360224770800,10.427770751953124,-0.09824401140213013,-0.4325285255908966,-0.005501824431121349
1780626360234801000,10.43780078125,-0.1008661612868309,-0.5127285718917847,-0.002416019793599844
1780626360244830700,10.447830810546876,-0.08076115697622299,-0.49958398938179016,0.14010943472385406
1780626360254860800,10.45786083984375,-0.04505668953061104,-0.41388797760009766,0.2826964259147644
1780626360264891000,10.467890869140625,-0.013591708615422249,-0.32706519961357117,0.31047505140304565
1780626360274921000,10.4779208984375,-0.0012458267156034708,-0.3069213330745697,0.2692245543003082
1780626360284951000,10.487950927734374,0.005557218100875616,-0.36161094903945923,0.2082437425851822
1780626360294980900,10.49798095703125,-0.038904257118701935,-0.422598659992218,0.1403224915266037
1780626360305010700,10.5080107421875,-0.08463579416275024,-0.4666675925254822,0.1024981439113617
1780626360315040800,10.518040771484374,-0.112906314432621,-0.5212205648422241,0.11829788237810135
1780626360325070800,10.52807080078125,-0.12028007209300995,-0.5573290586471558,0.19451728463172913
1780626360335101000,10.538100830078125,-0.11506479978561401,-0.5202951431274414,0.3228089511394501
1780626360345131000,10.548131103515624,-0.09444980323314667,-0.41142934560775757,0.42592307925224304
1780626360355160800,10.558160888671875,-0.06168147176504135,-0.29801198840141296,0.4211978316307068
1780626360365191000,10.56819091796875,-0.031554996967315674,-0.18921999633312225,0.3305683434009552
1780626360375220700,10.578220703125,-0.003940679598599672,-0.12346521019935608,0.2347877472639084
1780626360385250800,10.588250732421875,-0.0035388083197176456,-0.10478553175926208,0.18648838996887207
1780626360395281000,10.598281005859375,-0.026441460475325584,-0.07657413929700851,0.18617627024650574
1780626360405311000,10.60831103515625,-0.0937587171792984,-0.040591366589069366,0.22613592445850372
1780626360415340800,10.6183408203125,-0.1851075440645218,0.007783354725688696,0.25604909658432007
1780626360425371000,10.628370849609375,-0.28710687160491943,0.03460777923464775,0.2525222599506378
1780626360435401000,10.63840087890625,-0.3782266676425934,0.009043029509484768,0.20655104517936707
1780626360445430800,10.6484306640625,-0.45785143971443176,-0.06468285620212555,0.1378510743379593
1780626360455460900,10.6584609375,-0.49971020221710205,-0.15679574012756348,0.0874108076095581
1780626360465491000,10.668490966796876,-0.4974696934223175,-0.22926807403564453,0.07849214226007462
1780626360475520800,10.678520751953124,-0.4485999047756195,-0.25413480401039124,0.11060214787721634
1780626360485550800,10.68855078125,-0.3671138286590576,-0.2139916568994522,0.17603015899658203
1780626360495581000,10.698580810546876,-0.2676817774772644,-0.14379312098026276,0.23418746888637543
1780626360505611000,10.708611083984374,-0.18193703889846802,-0.06881741434335709,0.27793362736701965
1780626360515641000,10.71864111328125,-0.12128221988677979,-0.009659817442297935,0.2947559952735901
1780626360525670700,10.728670654296875,-0.07162012159824371,0.04989112541079521,0.30154359340667725
1780626360535700700,10.73870068359375,-0.021217670291662216,0.10722099244594574,0.3027345538139343
1780626360545730800,10.748730712890625,0.013831925578415394,0.09818089753389359,0.28151369094848633
1780626360555761000,10.758760986328125,0.02936827577650547,0.0734981819987297,0.22418595850467682
1780626360565791000,10.768791015625,0.03352786600589752,0.052990514785051346,0.18661995232105255
1780626360575820800,10.77882080078125,0.033489782363176346,0.014750982634723186,0.16637273132801056
1780626360585851000,10.788850830078125,0.03359337896108627,-0.008245945908129215,0.15412911772727966
1780626360595881000,10.798880859375,0.025525067001581192,-0.038057371973991394,0.16136333346366882
1780626360605910800,10.808910888671875,0.019300194457173347,-0.1371045857667923,0.1665130853652954
1780626360615940900,10.81894091796875,0.012525378726422787,-0.27296629548072815,0.14935220777988434
1780626360625971000,10.828970947265624,-0.005857622716575861,-0.3576681315898895,0.13319987058639526
1780626360636000800,10.839000732421875,-0.021044299006462097,-0.3749515116214752,0.13299134373664856
1780626360646030800,10.84903076171875,-0.031014109030365944,-0.33967021107673645,0.14319205284118652
1780626360656061000,10.85906103515625,-0.030073480680584908,-0.2872741222381592,0.15292216837406158
1780626360666091000,10.869091064453125,-0.0016013587592169642,-0.25938576459884644,0.13935469090938568
1780626360676120800,10.879120849609375,0.03951012343168259,-0.23295947909355164,0.10206858068704605
1780626360686151000,10.88915087890625,0.10507635027170181,-0.19557775557041168,0.05753732845187187
1780626360696180700,10.8991806640625,0.18708467483520508,-0.1690923571586609,0.004080228973180056
1780626360706210800,10.9092109375,0.27198731899261475,-0.14601393043994904,-0.0396435484290123
1780626360716241000,10.919240966796876,0.35949772596359253,-0.14460858702659607,-0.08947955071926117
1780626360726271000,10.92927099609375,0.425624817609787,-0.16238172352313995,-0.1552969068288803
1780626360736301000,10.939301025390625,0.46278202533721924,-0.16454313695430756,-0.23558855056762695
1780626360746331000,10.949330810546876,0.4811311960220337,-0.20234857499599457,-0.35244911909103394
1780626360756360700,10.959360595703124,0.46355780959129333,-0.27454209327697754,-0.46721646189689636
1780626360766390800,10.969390869140625,0.4030851423740387,-0.2800891697406769,-0.4955674111843109
1780626360776420900,10.9794208984375,0.30803346633911133,-0.20456485450267792,-0.42319732904434204
1780626360786451000,10.989450927734374,0.22459103167057037,-0.1166379302740097,-0.31226521730422974
1780626360796480800,10.999480712890625,0.16696342825889587,-0.0509534627199173,-0.20545248687267303
1780626360806510800,11.0095107421875,0.14147989451885223,-0.04605111479759216,-0.12793932855129242
1780626360816541000,11.019541015625,0.1367938071489334,-0.09387962520122528,-0.08098459988832474
1780626360826571000,11.029571044921875,0.13869209587574005,-0.127712681889534,-0.04139111563563347
1780626360836600800,11.039600830078125,0.14347220957279205,-0.13692615926265717,0.012693158350884914
1780626360846631000,11.049630859375,0.1529027223587036,-0.12967810034751892,0.06805255264043808
1780626360856660700,11.05966064453125,0.16978637874126434,-0.09128250926733017,0.11827870458364487
1780626360866690800,11.06969091796875,0.20804880559444427,-0.025909893214702606,0.14985713362693787
1780626360876721000,11.079720947265624,0.27050846815109253,0.05831949785351753,0.16721296310424805
1780626360886751000,11.0897509765625,0.34981873631477356,0.10536210983991623,0.1387096792459488
1780626360896781000,11.099781005859375,0.4364822506904602,0.09464208781719208,0.016271913424134254
1780626360906811000,11.109810791015626,0.505752682685852,0.06432092934846878,-0.15628014504909515
1780626360916840700,11.1198408203125,0.5486559271812439,0.03311480954289436,-0.29120147228240967
1780626360926870800,11.129870849609375,0.5515829920768738,0.03972264379262924,-0.3354938328266144
1780626360936900900,11.13990087890625,0.5238161087036133,0.12033253908157349,-0.30985933542251587
1780626360946931000,11.149930908203125,0.47881799936294556,0.16919435560703278,-0.24248188734054565
1780626360956961000,11.1599609375,0.43973395228385925,0.1712532341480255,-0.20719872415065765
1780626360966990800,11.169990966796876,0.4332864582538605,0.1889113336801529,-0.2582682967185974
1780626360977021000,11.18002099609375,0.446320503950119,0.23991219699382782,-0.3674333989620209
1780626360987050800,11.19005078125,0.4331548810005188,0.3218001425266266,-0.4703502058982849
1780626360997080800,11.200080810546876,0.3741365671157837,0.43030503392219543,-0.5288286805152893
1780626361007111000,11.21011083984375,0.29111307859420776,0.5149746537208557,-0.5437493324279785
1780626361017141000,11.22014111328125,0.21622897684574127,0.5064451098442078,-0.528478741645813
1780626361027170800,11.2301708984375,0.18141746520996094,0.4024166762828827,-0.5016636252403259
1780626361037201000,11.240200927734374,0.2109476625919342,0.2759285271167755,-0.4917992949485779
1780626361047231000,11.25023095703125,0.26891055703163147,0.20174936950206757,-0.5119668841362
1780626361057261000,11.260260986328126,0.313143789768219,0.18957792222499847,-0.5643113255500793
1780626361067292000,11.2702919921875,0.3486466705799103,0.22386984527111053,-0.6447108387947083
1780626361077321700,11.28032177734375,0.3806818425655365,0.2980197072029114,-0.7046167850494385
1780626361087351800,11.290351806640626,0.4186297357082367,0.3743855953216553,-0.7270562648773193
1780626361097382000,11.3003818359375,0.4654747545719147,0.3906308710575104,-0.7356921434402466
1780626361107412000,11.310411865234375,0.5238999724388123,0.33596256375312805,-0.7520726919174194
1780626361117441800,11.32044189453125,0.5762742161750793,0.23707060515880585,-0.7643948793411255
1780626361127471900,11.330471923828124,0.5959882736206055,0.189239963889122,-0.7277636528015137
1780626361137502000,11.340501953125,0.5898827314376831,0.21086004376411438,-0.6549661159515381
1780626361147532000,11.350531982421876,0.5861631035804749,0.19061948359012604,-0.5705779790878296
1780626361157561900,11.360561767578124,0.5826466679573059,0.03688424825668335,-0.5041691660881042
1780626361167592000,11.370592041015625,0.560221254825592,-0.2411348521709442,-0.47903183102607727
1780626361177621800,11.380621826171875,0.5059076547622681,-0.5043981671333313,-0.5793235301971436
1780626361187651800,11.39065185546875,0.44918498396873474,-0.6070030927658081,-0.8126412034034729
1780626361197682000,11.400681884765625,0.43689584732055664,-0.4673362970352173,-1.0850677490234375
1780626361207712000,11.4107119140625,0.47452017664909363,-0.271822988986969,-1.352624535560608
1780626361217742000,11.4207421875,0.5368536114692688,-0.10507741570472717,-1.5779045820236206
1780626361227771600,11.430771728515625,0.6014078259468079,0.051897019147872925,-1.7443017959594727
1780626361237801700,11.4408017578125,0.6671386361122131,0.2488636076450348,-1.8704460859298706
1780626361247831800,11.450831787109376,0.7260416150093079,0.3920348882675171,-1.971183180809021
1780626361257862000,11.46086181640625,0.8126415014266968,0.4306376576423645,-2.169528007507324
1780626361267892000,11.47089208984375,0.8956208229064941,0.2911439538002014,-2.5373547077178955
1780626361277921800,11.480921875,0.9291800856590271,0.07540660351514816,-2.9756851196289062
1780626361287952000,11.490951904296875,0.804926872253418,-0.10530458390712738,-3.232574224472046
1780626361297982000,11.50098193359375,0.5438308119773865,-0.4050185978412628,-3.188774585723877
1780626361308011800,11.51101171875,0.24893471598625183,-0.7484800815582275,-2.940699577331543
1780626361318041900,11.521041748046875,0.005608617328107357,-0.9754003286361694,-2.6501123905181885
1780626361328072000,11.531072021484375,-0.06881927698850632,-0.9541671872138977,-2.369234323501587
1780626361338101800,11.541101806640626,-0.023011043667793274,-0.7946843504905701,-2.0550801753997803
1780626361348131800,11.5511318359375,0.05783187597990036,-0.707131564617157,-1.7709970474243164
1780626361358162000,11.561161865234375,0.1370590478181839,-0.6951779723167419,-1.5283199548721313
1780626361368192000,11.57119189453125,0.19328370690345764,-0.733950138092041,-1.323156714439392
1780626361378222000,11.58122216796875,0.23133867979049683,-0.6854039430618286,-1.1470245122909546
1780626361388252000,11.591251953125,0.2681424915790558,-0.4919726550579071,-0.9775540232658386
1780626361398281700,11.60128173828125,0.32604655623435974,-0.2408650815486908,-0.7967469692230225
1780626361408311800,11.611311767578124,0.38319504261016846,-0.014253770932555199,-0.6490349769592285
1780626361418342000,11.621341796875,0.4273774325847626,0.1172853484749794,-0.5511425137519836
1780626361428372000,11.6313720703125,0.44256463646888733,0.11773142963647842,-0.47960948944091797
1780626361438402000,11.641402099609374,0.41774532198905945,0.031062046065926552,-0.4340992569923401
1780626361448431900,11.651431884765625,0.38647687435150146,-0.09275417029857635,-0.41900551319122314
1780626361458461700,11.661461669921875,0.35330718755722046,-0.21229441463947296,-0.41797566413879395
1780626361468491800,11.67149169921875,0.327711820602417,-0.28818732500076294,-0.4138416349887848
1780626361478521900,11.68152197265625,0.318142294883728,-0.2998700737953186,-0.39848318696022034
1780626361488552000,11.691552001953125,0.337312251329422,-0.24374821782112122,-0.3589054346084595
1780626361498581800,11.701581787109374,0.3764692544937134,-0.13978905975818634,-0.3016301691532135
1780626361508611800,11.71161181640625,0.4132978320121765,-0.040643833577632904,-0.26301270723342896
1780626361518642000,11.721641845703125,0.43532484769821167,0.0012010856298729777,-0.2825342118740082
1780626361528672000,11.731672119140624,0.4209893047809601,-0.039315979927778244,-0.32790490984916687
1780626361538701800,11.741701904296875,0.3820815980434418,-0.13446620106697083,-0.3707650303840637
1780626361548732000,11.75173193359375,0.3440617620944977,-0.2280494123697281,-0.40871506929397583
1780626361558761700,11.76176171875,0.30274707078933716,-0.3245096504688263,-0.42208120226860046
1780626361568791800,11.771791748046875,0.28860384225845337,-0.4201919436454773,-0.4041091203689575
1780626361578822000,11.78182177734375,0.2944563925266266,-0.4370918571949005,-0.35907721519470215
1780626361588852000,11.79185205078125,0.32128483057022095,-0.3320980370044708,-0.2989867031574249
1780626361598882000,11.801882080078125,0.3289794921875,-0.1711094230413437,-0.23299862444400787
1780626361608912000,11.811911865234375,0.3190341889858246,-0.06169052794575691,-0.17080023884773254
1780626361618941700,11.821941650390626,0.2837614119052887,-0.027061711996793747,-0.12566711008548737
1780626361628971800,11.8319716796875,0.234969362616539,-0.06434357166290283,-0.09100447595119476
1780626361639001900,11.842001953125,0.1790509819984436,-0.13526274263858795,-0.06203354522585869
1780626361649032000,11.852031982421876,0.11438942700624466,-0.1967732459306717,-0.01570838876068592
1780626361659062000,11.86206201171875,0.06459683924913406,-0.20781737565994263,0.04993639886379242
1780626361669091800,11.872091796875,0.041726939380168915,-0.1699320524930954,0.13010208308696747
1780626361679122000,11.882121826171876,0.054422494024038315,-0.1007726863026619,0.20693373680114746
1780626361689152000,11.892152099609374,0.09438109397888184,-0.03471510484814644,0.2697276175022125
1780626361699182000,11.90218212890625,0.13270877301692963,-0.0041526672430336475,0.3338056802749634
1780626361709212200,11.912212158203126,0.1528739631175995,-0.0022801985032856464,0.40019482374191284
1780626361719242000,11.922241943359374,0.16138969361782074,0.02630484104156494,0.4526047706604004
1780626361729271800,11.932271728515625,0.14382481575012207,0.09808049350976944,0.4964475929737091
1780626361739302000,11.942302001953125,0.10157030075788498,0.18330590426921844,0.5368155241012573
1780626361749332000,11.95233203125,0.059655074030160904,0.23765437304973602,0.5617003440856934
1780626361759362000,11.962362060546875,0.05970700457692146,0.2484484314918518,0.5441855192184448
1780626361769392000,11.97239208984375,0.1164134293794632,0.20363354682922363,0.4525104761123657
1780626361779422000,11.982421875,0.210052028298378,0.14017441868782043,0.3007340133190155
1780626361789452000,11.9924521484375,0.3218882977962494,0.11310338228940964,0.11382590234279633
1780626361799482000,12.002482177734375,0.4189551770687103,0.12309449911117554,-0.016378173604607582
1780626361809512000,12.012511962890626,0.4620448648929596,0.009295230731368065,-0.009380452334880829
1780626361819542000,12.0225419921875,0.448792427778244,-0.1660451591014862,0.09849727898836136
1780626361829571800,12.03257177734375,0.4180965721607208,-0.2692977786064148,0.19149726629257202
1780626361839602000,12.042601806640626,0.39360108971595764,-0.2406000941991806,0.17402532696723938
1780626361849632000,12.052632080078125,0.38561373949050903,-0.11958205699920654,0.029352029785513878
1780626361859662000,12.062662109375,0.43263956904411316,-0.012856676243245602,-0.27541452646255493
1780626361869692200,12.072692138671876,0.5075840950012207,0.020962273702025414,-0.6894338130950928
1780626361879722000,12.082721923828124,0.5497635006904602,-0.0032730249222368,-0.973574161529541
1780626361889751800,12.092751708984375,0.5132923126220703,-0.10732938349246979,-0.9803239703178406
1780626361899782000,12.102781982421876,0.43015217781066895,-0.2346806824207306,-0.8249953389167786
1780626361909812000,12.11281201171875,0.326069176197052,-0.26316317915916443,-0.5365142822265625
1780626361919842000,12.122842041015625,0.2972351312637329,-0.1794230192899704,-0.2024172842502594
1780626361929872100,12.1328720703125,0.3291701674461365,-0.028421254828572273,0.07104967534542084
1780626361939902000,12.14290185546875,0.3732992708683014,0.08198834210634232,0.23189447820186615
1780626361949932000,12.15293212890625,0.383116215467453,0.2774755656719208,0.2928427755832672
1780626361959961900,12.1629619140625,0.37380555272102356,0.40328994393348694,0.37064969539642334
1780626361969992000,12.172991943359374,0.35881274938583374,0.3928903043270111,0.47683605551719666
1780626361980022000,12.18302197265625,0.43006643652915955,0.22259525954723358,0.5715372562408447
1780626361990052000,12.193052001953125,0.4671837091445923,0.11267754435539246,0.5927216410636902
1780626362000082000,12.20308203125,0.4344835579395294,0.10467075556516647,0.5312705636024475
1780626362010112000,12.213112060546875,0.36893409490585327,0.1125587671995163,0.4302176833152771
1780626362020142000,12.22314208984375,0.278171181678772,0.09605702757835388,0.3654453456401825
1780626362030172200,12.233172119140624,0.19236411154270172,-0.03321228176355362,0.37473684549331665
1780626362040202000,12.243201904296875,0.15050108730793,-0.2500303387641907,0.38990968465805054
1780626362050231800,12.253231689453125,0.07039134204387665,-0.4682420492172241,0.4279595911502838
1780626362060263000,12.263262939453124,-0.024167388677597046,-0.6208305358886719,0.4850071668624878
1780626362070293000,12.27329296875,-0.11924303323030472,-0.6757960319519043,0.5408230423927307
1780626362080323000,12.283322998046875,-0.19840656220912933,-0.7037046551704407,0.5973203778266907
1780626362090353000,12.293352783203124,-0.22966009378433228,-0.6981711387634277,0.6270423531532288
1780626362100383000,12.303383056640625,-0.2658098340034485,-0.6219778060913086,0.6552862524986267
1780626362110413000,12.3134130859375,-0.30612796545028687,-0.5282057523727417,0.6888295412063599
1780626362120443100,12.323443115234374,-0.3197638988494873,-0.4753023386001587,0.6740455627441406
1780626362130473000,12.333472900390625,-0.33151376247406006,-0.4320549964904785,0.6494216918945312
1780626362140503000,12.3435029296875,-0.3473545014858246,-0.3671732246875763,0.6107874512672424
1780626362150532900,12.353532958984376,-0.3609829545021057,-0.2873436212539673,0.5665475726127625
1780626362160563000,12.36356298828125,-0.30603423714637756,-0.2716650664806366,0.5339169502258301
1780626362170593000,12.373593017578125,-0.21432188153266907,-0.265354186296463,0.48917341232299805
1780626362180623000,12.383623046875,-0.11193878203630447,-0.2316843569278717,0.47476863861083984
1780626362190653200,12.393653076171875,-0.042100582271814346,-0.05447283014655113,0.38476312160491943
1780626362200682800,12.403682861328125,0.026940803974866867,0.11534203588962555,0.2905820310115814
1780626362210712800,12.413712890625,0.08116915822029114,0.24482013285160065,0.2209925651550293
1780626362220743000,12.423742919921875,0.14520326256752014,0.394244521856308,0.15953533351421356
1780626362230773000,12.43377294921875,0.21083873510360718,0.5273026823997498,0.11501393467187881
1780626362240803000,12.443802978515626,0.28780701756477356,0.609016478061676,0.06483971327543259
