time,seconds_elapsed,z,y,x
1780625910942420500,0.05142041015625,-0.9167938232421875,-0.27154541015625,-0.007965087890625
1780625910952415500,0.06141552734375,-0.876007080078125,-0.27899169921875,0.0410308837890625
1780625910962411500,0.07141162109375,-0.856414794921875,-0.31121826171875,0.0912933349609375
1780625910972406300,0.08140625,-0.8347930908203125,-0.3172607421875,0.135772705078125
1780625910982401300,0.0914013671875,-0.8402252197265625,-0.2756805419921875,0.1754608154296875
1780625910992396500,0.101396484375,-0.9059600830078125,-0.1584625244140625,0.212738037109375
1780625911002391600,0.1113916015625,-0.9921112060546875,-0.006072998046875,0.2731781005859375
1780625911012386600,0.121386474609375,-1.003143310546875,-0.11151123046875,0.253631591796875
1780625911022381600,0.131381591796875,-0.877410888671875,-0.234893798828125,0.1728973388671875
1780625911032376600,0.14137646484375,-0.748138427734375,-0.18701171875,0.11175537109375
1780625911042371600,0.15137158203125,-0.799346923828125,-0.28778076171875,0.083740234375
1780625911052366600,0.16136669921875,-0.81976318359375,-0.3339385986328125,0.062347412109375
1780625911062361600,0.171361572265625,-0.8602142333984375,-0.3398590087890625,0.034881591796875
1780625911072356400,0.1813564453125,-0.865447998046875,-0.356719970703125,0.01263427734375
1780625911082351400,0.191351318359375,-0.8906707763671875,-0.341705322265625,-0.0042877197265625
1780625911092346400,0.201346435546875,-1.0068817138671875,-0.272003173828125,-0.03509521484375
1780625911102341400,0.21134130859375,-1.1244659423828125,-0.182037353515625,-0.0508270263671875
1780625911112336400,0.22133642578125,-1.1616668701171875,-0.1387176513671875,-0.046112060546875
1780625911122331400,0.231331298828125,-1.1290740966796875,-0.1580047607421875,-0.0386505126953125
1780625911132327700,0.24132763671875,-0.9972381591796875,-0.2145843505859375,-0.067413330078125
1780625911142322400,0.251322509765625,-0.9101409912109375,-0.2855682373046875,-0.106842041015625
1780625911152317400,0.2613173828125,-0.886444091796875,-0.3963775634765625,-0.1447906494140625
1780625911162312400,0.2713125,-0.87744140625,-0.5797271728515625,-0.144256591796875
1780625911172307500,0.281307373046875,-0.8556671142578125,-0.7365875244140625,-0.1233367919921875
1780625911182302500,0.291302490234375,-0.8101043701171875,-0.7957763671875,-0.1014556884765625
1780625911192297500,0.30129736328125,-0.67724609375,-0.5877685546875,-0.0366363525390625
1780625911202292500,0.31129248046875,-0.67730712890625,-0.429656982421875,-0.0287933349609375
1780625911212287500,0.32128759765625,-0.7591552734375,-0.34979248046875,-0.0214996337890625
1780625911222282500,0.331282470703125,-0.877899169921875,-0.338653564453125,-0.016448974609375
1780625911232277500,0.341277587890625,-0.9482574462890625,-0.3708038330078125,-0.02203369140625
1780625911242272300,0.351272216796875,-1.012359619140625,-0.397705078125,-0.0727996826171875
1780625911252267300,0.361267333984375,-1.0269775390625,-0.41998291015625,-0.1489105224609375
1780625911262262500,0.371262451171875,-0.96856689453125,-0.429107666015625,-0.2079925537109375
1780625911272257500,0.381257568359375,-0.8921356201171875,-0.45782470703125,-0.2122650146484375
1780625911282252500,0.39125244140625,-0.8403167724609375,-0.489959716796875,-0.1728668212890625
1780625911292247600,0.40124755859375,-0.8453216552734375,-0.5015106201171875,-0.120086669921875
1780625911302243600,0.41124365234375,-0.9400177001953125,-0.515533447265625,-0.1013946533203125
1780625911312238300,0.42123828125,-1.0063323974609375,-0.4027099609375,0.018157958984375
1780625911322233300,0.4312333984375,-1.0270233154296875,-0.2780303955078125,0.1230010986328125
1780625911332228400,0.441228271484375,-0.957427978515625,-0.3328704833984375,-0.059783935546875
1780625911342223400,0.451223388671875,-0.850555419921875,-0.319183349609375,-0.047637939453125
1780625911352218400,0.46121826171875,-0.8346099853515625,-0.321380615234375,-0.189239501953125
1780625911362213400,0.47121337890625,-0.965606689453125,-0.3789520263671875,-0.158416748046875
1780625911372208400,0.48120849609375,-0.9741363525390625,-0.2640228271484375,0.0099945068359375
1780625911382203600,0.49120361328125,-0.8582305908203125,-0.3164215087890625,-0.0776519775390625
1780625911392198700,0.50119873046875,-0.810546875,-0.3441925048828125,-0.026702880859375
1780625911402193700,0.511193603515625,-0.8138580322265625,-0.4280853271484375,-0.087432861328125
1780625911412188400,0.5211884765625,-0.848907470703125,-0.6021728515625,-0.122314453125
1780625911422183400,0.531183349609375,-0.9369354248046875,-0.6242218017578125,-0.1300811767578125
1780625911432178400,0.541178466796875,-1.08685302734375,-0.4533538818359375,-0.19073486328125
1780625911442173400,0.55117333984375,-1.2777557373046875,-0.4261932373046875,-0.1787567138671875
1780625911452168400,0.56116845703125,-1.281402587890625,-0.3413848876953125,-0.074432373046875
1780625911462163500,0.57116357421875,-1.13531494140625,-0.29156494140625,-0.0764312744140625
1780625911472159500,0.581159423828125,-1.044403076171875,-0.272125244140625,-0.015106201171875
1780625911482154500,0.591154541015625,-0.9667510986328125,-0.273284912109375,0.075164794921875
1780625911492149500,0.6011494140625,-0.828521728515625,-0.26708984375,0.075714111328125
1780625911502144500,0.61114453125,-0.736968994140625,-0.30340576171875,0.02459716796875
1780625911512139500,0.621139404296875,-0.70574951171875,-0.3097686767578125,0.0435638427734375
1780625911522134500,0.631134521484375,-0.752655029296875,-0.29486083984375,0.0170440673828125
1780625911532129500,0.641129638671875,-0.8386993408203125,-0.2718658447265625,0.030853271484375
1780625911542124500,0.65112451171875,-0.8816070556640625,-0.3048858642578125,0.046417236328125
1780625911552119600,0.66111962890625,-0.861907958984375,-0.3280792236328125,0.0551300048828125
1780625911562114600,0.671114501953125,-0.766754150390625,-0.3767242431640625,0.086395263671875
1780625911572109600,0.681109619140625,-0.63787841796875,-0.4506072998046875,0.099090576171875
1780625911582104300,0.691104248046875,-0.5229644775390625,-0.4418182373046875,0.044952392578125
1780625911592099300,0.701099365234375,-0.549774169921875,-0.3693084716796875,0.0128021240234375
1780625911602094300,0.71109423828125,-0.619232177734375,-0.3044281005859375,0.0181732177734375
1780625911612089300,0.72108935546875,-0.62603759765625,-0.2532196044921875,-0.0432891845703125
1780625911622084400,0.73108447265625,-0.6034698486328125,-0.0034942626953125,-0.66986083984375
1780625911632079400,0.741079345703125,-0.58184814453125,-0.0507965087890625,-0.46246337890625
1780625911642075600,0.75107568359375,-0.8005828857421875,-0.1398162841796875,0.0279541015625
1780625911652070400,0.7610703125,-0.84881591796875,-0.03546142578125,-0.2810211181640625
1780625911662065400,0.7710654296875,-0.95361328125,-0.1073150634765625,-0.4065704345703125
1780625911672060400,0.781060302734375,-0.9045867919921875,-0.2625732421875,-0.4219207763671875
1780625911682055400,0.791055419921875,-0.7249603271484375,-0.3643951416015625,-0.40167236328125
1780625911692050400,0.801050537109375,-0.53350830078125,-0.3633270263671875,-0.3883056640625
1780625911702045400,0.81104541015625,-0.4824066162109375,-0.2143096923828125,-0.3714141845703125
1780625911712040400,0.82104052734375,-0.5789642333984375,-0.0752716064453125,-0.3029327392578125
1780625911722035500,0.831035400390625,-0.6504669189453125,-0.0076904296875,-0.293182373046875
1780625911732030500,0.841030517578125,-0.6501312255859375,-0.02691650390625,-0.3818359375
1780625911742024700,0.851024658203125,-0.6971893310546875,-0.0227508544921875,-0.4261932373046875
1780625911752019700,0.861019775390625,-0.7415008544921875,-0.0054931640625,-0.3820343017578125
1780625911762014700,0.8710146484375,-0.722747802734375,-0.04522705078125,-0.3280487060546875
1780625911772009700,0.881009765625,-0.748687744140625,-0.06884765625,-0.3413543701171875
1780625911782004500,0.89100439453125,-0.69940185546875,0.016357421875,-0.4576263427734375
1780625911791999500,0.90099951171875,-0.603424072265625,0.0806121826171875,-0.5750274658203125
1780625911801994500,0.910994384765625,-0.50909423828125,0.1128997802734375,-0.627410888671875
1780625911811989500,0.920989501953125,-0.46575927734375,0.1523590087890625,-0.665283203125
1780625911821984500,0.930984619140625,-0.455657958984375,0.1455230712890625,-0.6682891845703125
1780625911831980800,0.940980712890625,-0.44488525390625,0.1392059326171875,-0.6254119873046875
1780625911841975800,0.950975830078125,-0.403778076171875,0.2275848388671875,-0.5544281005859375
1780625911851970600,0.960970458984375,-0.34375,0.3258209228515625,-0.5834197998046875
1780625911861965600,0.970965576171875,-0.358062744140625,0.35675048828125,-0.7994232177734375
1780625911871960600,0.980960693359375,-0.47503662109375,0.33648681640625,-1.091033935546875
1780625911881955600,0.99095556640625,-0.5372314453125,0.282012939453125,-1.226348876953125
1780625911891950600,1.00095068359375,-0.4822540283203125,0.1969146728515625,-1.1626434326171875
1780625911901945600,1.010945556640625,-0.3944549560546875,0.15106201171875,-1.07183837890625
1780625911911940600,1.020940673828125,-0.26904296875,0.2197723388671875,-1.03350830078125
1780625911921935600,1.030935546875,-0.1733856201171875,0.3438873291015625,-1.03521728515625
1780625911931930600,1.0409306640625,-0.192291259765625,0.4229278564453125,-1.080535888671875
1780625911941925600,1.050925537109375,-0.324615478515625,0.3979644775390625,-1.1987762451171875
1780625911951920400,1.06092041015625,-0.47967529296875,0.258392333984375,-1.4170074462890625
1780625911961915400,1.070915283203125,-0.5858001708984375,0.189910888671875,-1.5971832275390625
1780625911971910700,1.08091064453125,-0.545166015625,0.21734619140625,-1.6137542724609375
1780625911981905700,1.09090576171875,-0.3794403076171875,0.245880126953125,-1.5061492919921875
1780625911991900700,1.100900634765625,-0.1989898681640625,0.2191314697265625,-1.5174713134765625
1780625912001895700,1.110895751953125,-0.1033782958984375,0.096099853515625,-1.7026519775390625
1780625912011891700,1.1208916015625,-0.1190032958984375,-0.0007476806640625,-1.921112060546875
1780625912021886500,1.130886474609375,-0.542633056640625,-0.0135650634765625,-2.1381378173828125
1780625912031881500,1.140881591796875,-0.8054046630859375,0.1202850341796875,-2.08941650390625
1780625912041876500,1.15087646484375,-0.5412445068359375,0.3203277587890625,-1.7994537353515625
1780625912051871500,1.16087158203125,-0.18048095703125,0.4037322998046875,-1.445953369140625
1780625912061866500,1.170866455078125,0.0655975341796875,0.3670501708984375,-1.383636474609375
1780625912071861500,1.180861572265625,0.0807037353515625,0.2145843505859375,-1.5865325927734375
1780625912081856500,1.1908564453125,-0.0457763671875,0.066162109375,-1.8029022216796875
1780625912091851800,1.200851806640625,-0.0798797607421875,0.0512847900390625,-1.831939697265625
1780625912101846800,1.2108466796875,-0.0017852783203125,0.1259765625,-1.667724609375
1780625912111841800,1.220841796875,0.101806640625,0.16741943359375,-1.5511627197265625
1780625912121836500,1.23083642578125,0.166595458984375,0.1473541259765625,-1.5056610107421875
1780625912131831600,1.24083154296875,0.1948089599609375,0.1631317138671875,-1.4249420166015625
1780625912141826600,1.25082666015625,0.2630157470703125,0.227569580078125,-1.2877044677734375
1780625912151821600,1.260821533203125,0.3217620849609375,0.2964630126953125,-1.1280975341796875
1780625912161816600,1.270816650390625,0.3426513671875,0.3287353515625,-1.01971435546875
1780625912171811600,1.2808115234375,0.2515106201171875,0.3089752197265625,-1.031829833984375
1780625912181806600,1.290806640625,0.1207275390625,0.2859039306640625,-1.1193695068359375
1780625912191801600,1.300801513671875,-0.0089569091796875,0.24725341796875,-1.2143707275390625
1780625912201797400,1.31079736328125,-0.167816162109375,0.228485107421875,-1.31134033203125
1780625912211792600,1.320792724609375,-0.23602294921875,0.2834930419921875,-1.2381744384765625
1780625912221787600,1.33078759765625,-0.26251220703125,0.34619140625,-1.104461669921875
1780625912231782700,1.34078271484375,-0.249420166015625,0.3799896240234375,-1.0247802734375
1780625912241777700,1.350777587890625,-0.2464447021484375,0.37353515625,-1.0112457275390625
1780625912251772700,1.360772705078125,-0.306365966796875,0.317413330078125,-1.0321807861328125
1780625912261767700,1.370767578125,-0.3600006103515625,0.310333251953125,-1.027618408203125
1780625912271762700,1.3807626953125,-0.4064483642578125,0.3377838134765625,-0.998321533203125
1780625912281757700,1.3907578125,-0.42181396484375,0.3443603515625,-0.9898834228515625
1780625912291752700,1.400752685546875,-0.36492919921875,0.3285369873046875,-0.9362640380859375
1780625912301747500,1.41074755859375,-0.313018798828125,0.352447509765625,-0.847991943359375
1780625912311742500,1.420742431640625,-0.22955322265625,0.3809661865234375,-0.768707275390625
1780625912321737500,1.430737548828125,-0.116729736328125,0.3960723876953125,-0.6780853271484375
1780625912331732500,1.440732421875,-0.072723388671875,0.3704986572265625,-0.6563873291015625
1780625912341727500,1.4507275390625,-0.1170654296875,0.3640289306640625,-0.63079833984375
1780625912351722800,1.46072265625,-0.2264251708984375,0.407989501953125,-0.64385986328125
1780625912361717800,1.4707177734375,-0.23443603515625,0.4542999267578125,-0.6223297119140625
1780625912371712800,1.480712646484375,0.0737762451171875,0.4613037109375,-0.4932098388671875
1780625912381707800,1.490707763671875,0.3676300048828125,0.3810577392578125,-0.4964752197265625
1780625912391703600,1.50070361328125,0.3041534423828125,0.280120849609375,-0.6485748291015625
1780625912401698600,1.510698486328125,0.0881500244140625,0.292236328125,-0.69891357421875
1780625912411693600,1.520693603515625,-0.0696258544921875,0.3254547119140625,-0.6836090087890625
1780625912421688600,1.5306884765625,-0.0998382568359375,0.329437255859375,-0.579437255859375
1780625912431683600,1.54068359375,-0.0641632080078125,0.3039093017578125,-0.468536376953125
1780625912441678600,1.5506787109375,-0.074981689453125,0.2318878173828125,-0.4324951171875
1780625912451673600,1.560673583984375,-0.2084808349609375,0.145599365234375,-0.550994873046875
1780625912461668600,1.570668701171875,-0.3190155029296875,0.0626220703125,-0.73626708984375
1780625912471663600,1.58066357421875,-0.373809814453125,0.0512847900390625,-0.873046875
1780625912481658600,1.59065869140625,-0.3302154541015625,0.1282196044921875,-0.96868896484375
1780625912491653600,1.600653564453125,-0.299591064453125,0.1948089599609375,-1.01324462890625
1780625912501648600,1.610648681640625,-0.2935638427734375,0.2403411865234375,-1.030426025390625
1780625912511643600,1.6206435546875,-0.2751007080078125,0.2798004150390625,-1.00946044921875
1780625912521638700,1.630638671875,-0.2648162841796875,0.28399658203125,-0.997467041015625
1780625912531633700,1.640633544921875,-0.2632904052734375,0.251983642578125,-1.03125
1780625912541628700,1.650628662109375,-0.2812347412109375,0.23492431640625,-1.0530242919921875
1780625912551623700,1.660623779296875,-0.214599609375,0.2027587890625,-1.038238525390625
1780625912561618700,1.67061865234375,-0.172332763671875,0.19818115234375,-0.983978271484375
1780625912571614500,1.680614501953125,-0.1529083251953125,0.0963287353515625,-0.9900054931640625
1780625912581609500,1.690609375,-0.07708740234375,-0.1168975830078125,-1.13653564453125
1780625912591604700,1.700604736328125,-0.456939697265625,0.1360321044921875,-1.1265411376953125
1780625912601599700,1.710599853515625,-0.2174835205078125,0.2564849853515625,-0.98773193359375
1780625912611594800,1.7205947265625,-0.26739501953125,0.109161376953125,-0.9281005859375
1780625912621589800,1.73058984375,-0.3283233642578125,0.27362060546875,-0.8910064697265625
1780625912631584800,1.740584716796875,-0.262176513671875,0.239166259765625,-0.885833740234375
1780625912641579500,1.75057958984375,-0.2191162109375,0.179443359375,-0.786376953125
1780625912651574500,1.760574462890625,-0.21038818359375,0.1321868896484375,-0.7785186767578125
1780625912661569500,1.770569580078125,-0.2695159912109375,0.156341552734375,-0.69610595703125
1780625912671564500,1.780564453125,-0.2979888916015625,0.2378082275390625,-0.6292266845703125
1780625912681559600,1.7905595703125,-0.25323486328125,0.33697509765625,-0.6024169921875
1780625912691554600,1.800554443359375,-0.256439208984375,0.3911285400390625,-0.63677978515625
1780625912701549600,1.810549560546875,-0.357391357421875,0.3292083740234375,-0.79998779296875
1780625912711544600,1.820544677734375,-0.357879638671875,0.2972259521484375,-0.9939117431640625
1780625912721539600,1.83053955078125,-0.2297821044921875,0.2779083251953125,-1.0492095947265625
1780625912731534600,1.84053466796875,-0.1387176513671875,0.2216033935546875,-0.972015380859375
1780625912741529900,1.85052978515625,-0.1238250732421875,0.2423553466796875,-0.917633056640625
1780625912751524900,1.86052490234375,-0.1551361083984375,0.265869140625,-0.8574676513671875
1780625912761521000,1.87052099609375,-0.212310791015625,0.2599334716796875,-0.860870361328125
1780625912771516000,1.880515869140625,-0.2686767578125,0.262664794921875,-0.890411376953125
1780625912781511000,1.890510986328125,-0.3419036865234375,0.265045166015625,-0.9658355712890625
1780625912791506000,1.900505859375,-0.3245849609375,0.2663421630859375,-1.0113372802734375
1780625912801500700,1.910500732421875,-0.1700439453125,0.262054443359375,-0.8968048095703125
1780625912811495700,1.92049560546875,-0.09576416015625,0.2450103759765625,-0.8431854248046875
1780625912821490700,1.93049072265625,-0.1764678955078125,0.2187042236328125,-0.958709716796875
1780625912831485700,1.940485595703125,-0.26678466796875,0.1828460693359375,-0.99542236328125
1780625912841480700,1.950480712890625,-0.3513946533203125,0.1671295166015625,-1.0629425048828125
1780625912851476000,1.96047607421875,-0.3093719482421875,0.17413330078125,-1.0227813720703125
1780625912861471000,1.970470947265625,-0.199310302734375,0.21759033203125,-0.9218597412109375
1780625912871466000,1.980466064453125,-0.1112518310546875,0.289031982421875,-0.84716796875
1780625912881461000,1.9904609375,-0.1029205322265625,0.302581787109375,-0.87322998046875
1780625912891456000,2.0004560546875,-0.343292236328125,0.278656005859375,-0.913330078125
1780625912901450800,2.01045068359375,-0.4711456298828125,0.2291259765625,-1.0975494384765625
1780625912911445800,2.02044580078125,-0.4406890869140625,0.217681884765625,-1.270904541015625
1780625912921440800,2.030440673828125,-0.321044921875,0.1982574462890625,-1.282928466796875
1780625912931435800,2.040435791015625,-0.232086181640625,0.2532958984375,-1.1591644287109375
1780625912941431800,2.050431884765625,-0.1565704345703125,0.3550872802734375,-1.0093994140625
1780625912951426800,2.0604267578125,-0.1177978515625,0.35980224609375,-0.9120025634765625
1780625912961422000,2.070422119140625,-0.1254425048828125,0.3339691162109375,-0.9419708251953125
1780625912971416800,2.080416748046875,-0.1747283935546875,0.3095855712890625,-1.0039825439453125
1780625912981411800,2.090411865234375,-0.21868896484375,0.2749481201171875,-1.0048675537109375
1780625912991406800,2.10040673828125,-0.176483154296875,0.28466796875,-1.018218994140625
1780625913001401900,2.11040185546875,-0.0868682861328125,0.309814453125,-0.9833984375
1780625913011396900,2.12039697265625,-0.08221435546875,0.326904296875,-0.9324951171875
1780625913021392000,2.130391845703125,-0.1875152587890625,0.345428466796875,-0.946624755859375
1780625913031387000,2.140386962890625,-0.2340240478515625,0.3707275390625,-0.9249725341796875
1780625913041382000,2.1503818359375,-0.2737884521484375,0.3747100830078125,-1.0046844482421875
1780625913051377000,2.160376953125,-0.312164306640625,0.357574462890625,-1.0851593017578125
1780625913061372000,2.170371826171875,-0.3536834716796875,0.3130340576171875,-1.164154052734375
1780625913071367000,2.180366943359375,-0.373870849609375,0.240997314453125,-1.242950439453125
1780625913081361700,2.190361572265625,-0.2698822021484375,0.270751953125,-1.1819305419921875
1780625913091356700,2.200356689453125,-0.178955078125,0.3609619140625,-1.0666961669921875
1780625913101351700,2.2103515625,-0.1530609130859375,0.434478759765625,-0.991851806640625
1780625913111347000,2.220346923828125,-0.146392822265625,0.484649658203125,-0.9598846435546875
1780625913121343000,2.230343017578125,-0.16595458984375,0.506378173828125,-0.9706573486328125
1780625913131338000,2.240337890625,-0.184295654296875,0.5025634765625,-0.993621826171875
1780625913141333000,2.2503330078125,-0.2045440673828125,0.4560699462890625,-0.943756103515625
1780625913151327700,2.26032763671875,-0.0442352294921875,0.324310302734375,-0.983245849609375
1780625913161322800,2.27032275390625,0.10028076171875,0.356903076171875,-1.08331298828125
1780625913171317800,2.28031787109375,-0.0568084716796875,0.35955810546875,-0.99395751953125
1780625913181312800,2.290312744140625,-0.1334228515625,0.3200836181640625,-0.8586273193359375
1780625913191307800,2.300307861328125,-0.0244598388671875,0.478363037109375,-0.7803955078125
1780625913201302800,2.310302734375,0.0312042236328125,0.4920501708984375,-0.783843994140625
1780625913211297800,2.3202978515625,0.1343841552734375,0.453155517578125,-0.766021728515625
1780625913221292800,2.330292724609375,0.230499267578125,0.472320556640625,-0.7078857421875
1780625913231288000,2.3402880859375,0.452789306640625,0.524658203125,-0.6413421630859375
1780625913241282800,2.35028271484375,0.11212158203125,0.534515380859375,-0.629364013671875
1780625913251277800,2.36027783203125,0.206298828125,0.347381591796875,-0.52593994140625
1780625913261272800,2.37027294921875,0.4539337158203125,0.12152099609375,-0.532257080078125
1780625913271267800,2.380267822265625,0.29693603515625,0.17041015625,-0.7120819091796875
1780625913281262800,2.390262939453125,0.2656707763671875,0.2343597412109375,-0.87982177734375
1780625913291257900,2.4002578125,0.3445587158203125,0.253570556640625,-0.8932647705078125
1780625913301254000,2.41025390625,0.2965545654296875,0.27313232421875,-0.872344970703125
1780625913311249000,2.420248779296875,0.2913665771484375,0.3202667236328125,-0.8092498779296875
1780625913321243600,2.43024365234375,0.3034210205078125,0.400299072265625,-0.7406463623046875
1780625913331238700,2.44023876953125,0.29449462890625,0.477020263671875,-0.7286834716796875
1780625913341234000,2.45023388671875,0.2993316650390625,0.544647216796875,-0.7447357177734375
1780625913351229000,2.46022900390625,0.292572021484375,0.6273040771484375,-0.687042236328125
1780625913361224000,2.470223876953125,0.3434295654296875,0.6458892822265625,-0.716644287109375
1780625913371219000,2.480218994140625,0.3506011962890625,0.593475341796875,-0.774932861328125
1780625913381214000,2.4902138671875,0.3076171875,0.4452362060546875,-0.807586669921875
1780625913391209000,2.500208984375,0.316314697265625,0.315338134765625,-0.85430908203125
1780625913401204000,2.510203857421875,0.3735504150390625,0.244659423828125,-0.9105682373046875
1780625913411199000,2.520198974609375,0.4614715576171875,0.27777099609375,-0.8660430908203125
1780625913421193700,2.53019384765625,0.5059967041015625,0.3829345703125,-0.7259674072265625
1780625913431188700,2.540188720703125,0.3069000244140625,0.458282470703125,-0.717254638671875
1780625913441183700,2.550183837890625,0.0959320068359375,0.54644775390625,-0.734039306640625
1780625913451178800,2.5601787109375,0.1381378173828125,0.628936767578125,-0.7406463623046875
1780625913461173800,2.570173828125,0.0761566162109375,0.6361083984375,-0.77655029296875
1780625913471168800,2.580168701171875,0.0915069580078125,0.596466064453125,-0.804168701171875
1780625913481165000,2.5901650390625,0.1964263916015625,0.550079345703125,-0.7927093505859375
1780625913491159800,2.600159912109375,0.2725067138671875,0.516265869140625,-0.7416229248046875
1780625913501154800,2.61015478515625,0.3150482177734375,0.5691986083984375,-0.6304779052734375
1780625913511149800,2.62014990234375,0.3406982421875,0.653472900390625,-0.5457611083984375
1780625913521144800,2.630144775390625,0.5337677001953125,0.82244873046875,-0.4826507568359375
1780625913531139800,2.640139892578125,0.5956878662109375,0.852935791015625,-0.490325927734375
1780625913541134800,2.650134765625,0.5257110595703125,0.7893218994140625,-0.5510711669921875
1780625913551129900,2.6601298828125,0.460296630859375,0.7109832763671875,-0.6278228759765625
1780625913561124900,2.670124755859375,0.3842926025390625,0.6223297119140625,-0.69061279296875
1780625913571119900,2.680119873046875,0.354827880859375,0.5577239990234375,-0.73870849609375
1780625913581115000,2.690114990234375,0.3900604248046875,0.5294036865234375,-0.7502288818359375
1780625913591109600,2.700109619140625,0.4303741455078125,0.513885498046875,-0.736846923828125
1780625913601104600,2.710104736328125,0.4319305419921875,0.4995880126953125,-0.7009124755859375
1780625913611100000,2.720099853515625,0.358673095703125,0.461212158203125,-0.67413330078125
1780625913621095000,2.730094970703125,0.3083343505859375,0.4581298828125,-0.65234375
1780625913631090000,2.74008984375,0.2859649658203125,0.4812774658203125,-0.64068603515625
1780625913641085000,2.7500849609375,0.2816009521484375,0.530548095703125,-0.6216888427734375
1780625913651080000,2.760079833984375,0.2597808837890625,0.5780029296875,-0.58892822265625
1780625913661075700,2.77007568359375,0.2805633544921875,0.560760498046875,-0.595794677734375
1780625913671070700,2.78007080078125,0.3292236328125,0.5535888671875,-0.6148529052734375
1780625913681065700,2.790065673828125,0.3782501220703125,0.5428466796875,-0.676910400390625
1780625913691060700,2.800060791015625,0.4360809326171875,0.5031585693359375,-0.7630615234375
1780625913701055700,2.8100556640625,0.4425506591796875,0.5464019775390625,-0.873931884765625
1780625913711050800,2.82005078125,0.4012451171875,0.6781158447265625,-1.01275634765625
1780625913721045800,2.830045654296875,0.4405364990234375,0.7769317626953125,-0.9730377197265625
1780625913731041000,2.840041015625,0.4420013427734375,0.784332275390625,-0.955810546875
1780625913741035300,2.85003515625,0.4903564453125,0.8468017578125,-0.895904541015625
1780625913751030300,2.8600302734375,0.5668182373046875,0.8240509033203125,-0.8163299560546875
1780625913761025300,2.870025390625,0.6153564453125,0.7370452880859375,-0.7101287841796875
1780625913771020300,2.880020263671875,0.6578369140625,0.6726226806640625,-0.570098876953125
1780625913781015000,2.89001513671875,0.7111968994140625,0.6395416259765625,-0.4737091064453125
1780625913791010300,2.90001025390625,0.711273193359375,0.6465301513671875,-0.4957122802734375
1780625913801005300,2.91000537109375,0.6724090576171875,0.64080810546875,-0.6396026611328125
1780625913811000300,2.920000244140625,0.580108642578125,0.62017822265625,-0.73614501953125
1780625913820995300,2.929995361328125,0.445831298828125,0.631866455078125,-0.767608642578125
1780625913830991400,2.939991455078125,0.310333251953125,0.6605377197265625,-0.75689697265625
1780625913840986400,2.949986328125,0.1799774169921875,0.708526611328125,-0.7020111083984375
1780625913850981000,2.959981201171875,0.09906005859375,0.7412872314453125,-0.6520233154296875
1780625913860976000,2.96997607421875,0.0624237060546875,0.7737274169921875,-0.602020263671875
1780625913870971100,2.97997119140625,0.083831787109375,0.7974853515625,-0.5318756103515625
1780625913880966100,2.989966064453125,0.1532440185546875,0.807098388671875,-0.4767913818359375
1780625913890961200,2.999961181640625,0.294647216796875,0.817535400390625,-0.4615631103515625
1780625913900956200,3.0099560546875,0.34515380859375,0.7317352294921875,-0.5297088623046875
1780625913910951400,3.019951416015625,-0.00677490234375,0.6877288818359375,-0.607025146484375
1780625913920946400,3.029946533203125,-0.3675537109375,0.70751953125,-0.596099853515625
1780625913930941400,3.03994140625,0.1024322509765625,0.70526123046875,-0.5535430908203125
1780625913940936400,3.0499365234375,0.2512359619140625,0.7068939208984375,-0.567291259765625
1780625913950931200,3.05993115234375,0.175994873046875,0.610198974609375,-0.613311767578125
1780625913960926200,3.06992626953125,0.1858367919921875,0.63592529296875,-0.636383056640625
1780625913970921200,3.079921142578125,0.2513275146484375,0.69732666015625,-0.6638946533203125
1780625913980916200,3.089916259765625,0.305572509765625,0.7080230712890625,-0.720794677734375
1780625913990911200,3.0999111328125,0.3115692138671875,0.7655487060546875,-0.738555908203125
1780625914000906200,3.10990625,0.2860565185546875,0.8358917236328125,-0.7473297119140625
1780625914010902300,3.11990234375,0.2240142822265625,0.866668701171875,-0.7414093017578125
1780625914020897000,3.12989697265625,0.15423583984375,0.89764404296875,-0.7280426025390625
1780625914030892300,3.139892333984375,0.111541748046875,0.8841552734375,-0.72625732421875
1780625914040887300,3.14988720703125,0.097564697265625,0.8474884033203125,-0.7312774658203125
1780625914050882300,3.15988232421875,0.1033935546875,0.807830810546875,-0.7277679443359375
1780625914060877300,3.169877197265625,0.1166839599609375,0.7581329345703125,-0.70672607421875
1780625914070872300,3.179872314453125,0.1084747314453125,0.71295166015625,-0.68011474609375
1780625914080867300,3.189867431640625,0.0879669189453125,0.6958465576171875,-0.6648406982421875
1780625914090862300,3.1998623046875,0.0718994140625,0.7178802490234375,-0.624114990234375
1780625914100857300,3.209857421875,0.078399658203125,0.719635009765625,-0.57720947265625
1780625914110852400,3.219852294921875,0.097625732421875,0.7175750732421875,-0.5306854248046875
1780625914120847000,3.22984716796875,0.095794677734375,0.7541046142578125,-0.4788818359375
1780625914130842000,3.239842041015625,0.1005401611328125,0.7928009033203125,-0.46319580078125
1780625914140837000,3.249837158203125,0.1325836181640625,0.8052215576171875,-0.459228515625
1780625914150832000,3.25983203125,0.1510162353515625,0.8499603271484375,-0.407196044921875
1780625914160827100,3.2698271484375,0.127899169921875,0.8587188720703125,-0.3571014404296875
1780625914170822400,3.279822509765625,0.088409423828125,0.8234100341796875,-0.359954833984375
1780625914180818400,3.289818359375,0.0934906005859375,0.782073974609375,-0.3890838623046875
1780625914190813200,3.299813232421875,0.17352294921875,0.7256622314453125,-0.4447174072265625
1780625914200808200,3.30980810546875,0.2261810302734375,0.6627044677734375,-0.546905517578125
1780625914210803200,3.31980322265625,0.214874267578125,0.6545562744140625,-0.654571533203125
1780625914220798200,3.329798095703125,0.178558349609375,0.660675048828125,-0.7873687744140625
1780625914230793200,3.339793212890625,0.1120452880859375,0.66705322265625,-0.90826416015625
1780625914240788200,3.349788330078125,0.083984375,0.674346923828125,-0.9970703125
1780625914250783200,3.359783203125,0.109710693359375,0.64776611328125,-0.9775848388671875
1780625914260778200,3.3697783203125,0.0857696533203125,0.743988037109375,-0.8298492431640625
1780625914270773200,3.379773193359375,0.09124755859375,0.82806396484375,-0.6256866455078125
1780625914280768300,3.389768310546875,0.150909423828125,0.8306427001953125,-0.407379150390625
1780625914290763300,3.39976318359375,0.1768035888671875,0.79656982421875,-0.307464599609375
1780625914300758300,3.40975830078125,0.24530029296875,0.8154296875,-0.3082733154296875
1780625914310753300,3.419753173828125,0.23974609375,0.786041259765625,-0.3960113525390625
1780625914320748300,3.429748291015625,0.1953125,0.760833740234375,-0.5297393798828125
1780625914330743300,3.439743408203125,0.188140869140625,0.84722900390625,-0.6275482177734375
1780625914340738300,3.44973828125,0.1307373046875,0.9245147705078125,-0.6832275390625
1780625914350734300,3.459734375,0.07696533203125,0.9463348388671875,-0.6672515869140625
1780625914360729300,3.469729248046875,0.0423736572265625,0.95721435546875,-0.6179656982421875
1780625914370724000,3.47972412109375,0.056365966796875,0.94342041015625,-0.5975494384765625
1780625914380719000,3.489718994140625,0.0747528076171875,0.9356842041015625,-0.5711212158203125
1780625914390714000,3.499714111328125,0.11865234375,0.9654388427734375,-0.43719482421875
1780625914400709000,3.509709228515625,0.156646728515625,0.92523193359375,-0.3082275390625
1780625914410704400,3.519704345703125,0.1515045166015625,0.9202423095703125,-0.2058563232421875
1780625914420699400,3.529699462890625,0.227813720703125,0.873046875,-0.1588287353515625
1780625914430694400,3.5396943359375,0.254669189453125,0.7372894287109375,-0.191192626953125
1780625914440689400,3.549689453125,0.0503387451171875,0.9979248046875,-0.0841827392578125
1780625914450684400,3.559684326171875,-0.0120849609375,1.0695953369140625,-0.052337646484375
1780625914460679200,3.56967919921875,0.04742431640625,1.036468505859375,-0.1009063720703125
1780625914470674200,3.579674072265625,0.13665771484375,1.019622802734375,-0.132720947265625
1780625914480669200,3.589669189453125,0.115509033203125,0.976531982421875,-0.2115478515625
1780625914490664200,3.599664306640625,0.0941162109375,0.9453125,-0.2517852783203125
1780625914500659200,3.6096591796875,0.0951080322265625,0.9313201904296875,-0.2391510009765625
1780625914510654200,3.619654296875,0.065093994140625,0.9372406005859375,-0.1979217529296875
1780625914520650200,3.629650146484375,0.032928466796875,0.916534423828125,-0.123382568359375
1780625914530645200,3.639645263671875,0.0605316162109375,0.786865234375,-0.073486328125
1780625914540640300,3.64964013671875,0.1144866943359375,0.634063720703125,-0.025482177734375
1780625914550635300,3.65963525390625,0.1254730224609375,0.5098419189453125,-0.0052337646484375
1780625914560630300,3.66963037109375,0.1164093017578125,0.4174041748046875,-0.0222625732421875
1780625914570625300,3.679625244140625,0.0428619384765625,0.329376220703125,-0.0659027099609375
1780625914580620300,3.689620361328125,-0.013519287109375,0.3037872314453125,-0.0496368408203125
1780625914590615300,3.699615234375,-0.04779052734375,0.4102630615234375,0.042877197265625
1780625914600610300,3.7096103515625,-0.0804595947265625,0.7057037353515625,0.18646240234375
1780625914610605300,3.719605224609375,-0.10809326171875,1.0298919677734375,0.329925537109375
1780625914620600300,3.729600341796875,-0.2046966552734375,1.333892822265625,0.454345703125
1780625914630595300,3.73959521484375,-0.2672271728515625,1.6585540771484375,0.5306549072265625
1780625914640590000,3.749590087890625,-0.242919921875,1.95196533203125,0.5757904052734375
1780625914650585000,3.759585205078125,-0.1107025146484375,2.1345367431640625,0.5709381103515625
1780625914660580000,3.769580078125,0.0916595458984375,1.941741943359375,0.3329925537109375
1780625914670575400,3.779575439453125,0.2235565185546875,1.5042877197265625,-0.0711669921875
1780625914680570400,3.7895703125,0.2675628662109375,1.2538604736328125,-0.2421112060546875
1780625914690566400,3.79956640625,0.20660400390625,1.173492431640625,-0.167877197265625
1780625914700561400,3.8095615234375,0.0768585205078125,1.1156463623046875,-0.0301361083984375
1780625914710556200,3.81955615234375,-0.030975341796875,1.0617218017578125,0.144805908203125
1780625914720551200,3.82955126953125,-0.070281982421875,1.018280029296875,0.30999755859375
1780625914730546200,3.839546142578125,-0.0579833984375,0.9722900390625,0.4473419189453125
1780625914740541200,3.849541259765625,-0.033294677734375,0.932952880859375,0.544525146484375
1780625914750537000,3.859536865234375,-0.0126953125,0.9399566650390625,0.6284942626953125
1780625914760532000,3.869531982421875,0.0332183837890625,0.972686767578125,0.6919403076171875
1780625914770527000,3.87952685546875,0.09613037109375,1.0162353515625,0.7435455322265625
1780625914780522000,3.88952197265625,0.148284912109375,1.0440673828125,0.746429443359375
1780625914790516700,3.899516845703125,0.162445068359375,1.0447998046875,0.6893768310546875
1780625914800511700,3.90951171875,0.13922119140625,1.0026397705078125,0.5699310302734375
1780625914810506800,3.9195068359375,0.117279052734375,0.9755401611328125,0.524444580078125
1780625914820501800,3.929501708984375,0.106658935546875,0.966094970703125,0.514556884765625
1780625914830496800,3.939496826171875,0.101837158203125,0.96435546875,0.5090484619140625
1780625914840493000,3.9494931640625,0.1260223388671875,0.9403076171875,0.472747802734375
1780625914850488000,3.959488037109375,0.120574951171875,0.8748626708984375,0.377227783203125
1780625914860482800,3.96948291015625,0.0985260009765625,0.8917236328125,0.326019287109375
1780625914870477800,3.979477783203125,0.0942840576171875,0.854827880859375,0.228424072265625
1780625914880472800,3.989472900390625,0.0849761962890625,0.8524017333984375,0.1586761474609375
1780625914890467800,3.9994677734375,0.1147613525390625,0.826141357421875,0.09368896484375
1780625914900462800,4.009462890625,0.1195220947265625,0.7859039306640625,0.03424072265625
1780625914910457900,4.019457763671875,0.13018798828125,0.7908477783203125,0.00830078125
1780625914920452900,4.029452880859375,0.1678466796875,0.828399658203125,0.0182647705078125
1780625914930448000,4.03944775390625,0.22283935546875,0.882232666015625,0.044464111328125
1780625914940443000,4.04944287109375,0.2687835693359375,0.948944091796875,0.081512451171875
1780625914950438000,4.05943798828125,0.256988525390625,0.9795074462890625,0.1233367919921875
1780625914960432600,4.0694326171875,0.22113037109375,0.9925079345703125,0.1870574951171875
1780625914970427600,4.079427734375,0.1906890869140625,1.012939453125,0.2780914306640625
1780625914980422700,4.089422607421875,0.1905517578125,1.056427001953125,0.371826171875
1780625914990418000,4.09941796875,0.2315521240234375,1.0361175537109375,0.3781890869140625
1780625915000413000,4.109412841796875,0.2708587646484375,0.9660186767578125,0.3085174560546875
1780625915010409000,4.119408935546875,0.290740966796875,0.926971435546875,0.2639923095703125
1780625915020404000,4.129404052734375,0.2860870361328125,0.883392333984375,0.22454833984375
1780625915030398700,4.139398681640625,0.2239227294921875,0.867584228515625,0.235107421875
1780625915040393700,4.149393798828125,0.1392974853515625,0.8819427490234375,0.28350830078125
1780625915050388700,4.159388671875,0.10357666015625,0.92254638671875,0.310272216796875
1780625915060383700,4.1693837890625,0.1345977783203125,0.9387054443359375,0.31341552734375
1780625915070378800,4.179378662109375,0.1466827392578125,0.9257354736328125,0.31451416015625
1780625915080373800,4.189373779296875,0.166839599609375,0.9111328125,0.3240966796875
1780625915090368800,4.19936865234375,0.21392822265625,0.8946380615234375,0.3346099853515625
1780625915100363800,4.20936376953125,0.2651824951171875,0.8889923095703125,0.349578857421875
1780625915110359000,4.219359130859375,0.2958984375,0.900848388671875,0.352691650390625
1780625915120354000,4.22935400390625,0.2940216064453125,0.9094085693359375,0.3463134765625
1780625915130348800,4.239348876953125,0.2606658935546875,0.9115447998046875,0.3385009765625
1780625915140343800,4.24934375,0.2174530029296875,0.899810791015625,0.325042724609375
1780625915150338800,4.2593388671875,0.184844970703125,0.8853759765625,0.3137969970703125
1780625915160334800,4.2693349609375,0.1810302734375,0.8724212646484375,0.3074188232421875
1780625915170329900,4.279329833984375,0.211669921875,0.8538970947265625,0.29583740234375
1780625915180324900,4.289324951171875,0.2639312744140625,0.8423309326171875,0.279083251953125
1780625915190319900,4.29931982421875,0.3069915771484375,0.8330230712890625,0.2587738037109375
1780625915200315000,4.30931494140625,0.3297576904296875,0.8274383544921875,0.2360076904296875
1780625915210309600,4.3193095703125,0.3244171142578125,0.8255157470703125,0.2150115966796875
1780625915220305000,4.329304931640625,0.3049468994140625,0.825164794921875,0.20233154296875
1780625915230300000,4.3392998046875,0.28759765625,0.8231353759765625,0.1958465576171875
1780625915240295000,4.349294921875,0.2848358154296875,0.821258544921875,0.192962646484375
1780625915250290000,4.3592900390625,0.2849273681640625,0.832000732421875,0.197357177734375
1780625915260285000,4.369284912109375,0.2928466796875,0.850067138671875,0.2002410888671875
1780625915270280000,4.379280029296875,0.29779052734375,0.8687591552734375,0.2039947509765625
1780625915280275000,4.38927490234375,0.2922515869140625,0.8870086669921875,0.2041168212890625
1780625915290270000,4.39927001953125,0.2823486328125,0.90045166015625,0.207244873046875
1780625915300265000,4.409264892578125,0.266754150390625,0.9017333984375,0.2113800048828125
1780625915310259700,4.419259765625,0.257568359375,0.89691162109375,0.22357177734375
1780625915320254700,4.429254638671875,0.2662506103515625,0.8878631591796875,0.2375640869140625
1780625915330250800,4.439250732421875,0.28619384765625,0.870574951171875,0.2487945556640625
1780625915340246000,4.44924609375,0.313507080078125,0.8420867919921875,0.248046875
1780625915350241000,4.459240966796875,0.350250244140625,0.8155364990234375,0.2353973388671875
1780625915360236000,4.469236083984375,0.39874267578125,0.7945709228515625,0.2162628173828125
1780625915370231000,4.47923095703125,0.4494171142578125,0.782623291015625,0.1851959228515625
1780625915380225800,4.489225830078125,0.4593048095703125,0.8066558837890625,0.133544921875
1780625915390220800,4.499220703125,0.458343505859375,0.8658905029296875,0.0871124267578125
1780625915400215800,4.5092158203125,0.4629974365234375,0.9293975830078125,0.0561676025390625
1780625915410210800,4.5192109375,0.4732513427734375,0.9857940673828125,0.0438690185546875
1780625915420205800,4.529205810546875,0.5016937255859375,1.0428009033203125,0.057342529296875
1780625915430200800,4.539200927734375,0.546417236328125,1.0910186767578125,0.086822509765625
1780625915440195800,4.54919580078125,0.5872650146484375,1.1053009033203125,0.11572265625
1780625915450190800,4.55919091796875,0.5831146240234375,1.059814453125,0.125274658203125
1780625915460185900,4.569185791015625,0.5154571533203125,1.00018310546875,0.1510772705078125
1780625915470180900,4.579180908203125,0.4407501220703125,0.980224609375,0.204986572265625
1780625915480175600,4.589175537109375,0.387786865234375,0.9965972900390625,0.2460784912109375
1780625915490172000,4.599171875,0.3091278076171875,1.0323944091796875,0.274169921875
1780625915500167000,4.6091669921875,0.18194580078125,1.056060791015625,0.3135986328125
1780625915510162000,4.619161865234375,0.0691070556640625,1.04132080078125,0.3643035888671875
1780625915520157000,4.629156982421875,-0.0140533447265625,0.9635009765625,0.394012451171875
1780625915530152000,4.63915185546875,-0.084136962890625,0.857757568359375,0.4028167724609375
1780625915540147000,4.64914697265625,-0.100677490234375,0.7912445068359375,0.421417236328125
1780625915550141700,4.6591416015625,-0.0484161376953125,0.7794342041015625,0.45086669921875
1780625915560136700,4.66913671875,0.0529937744140625,0.8232879638671875,0.50054931640625
1780625915570131700,4.679131591796875,0.19720458984375,0.9107818603515625,0.5472564697265625
1780625915580126700,4.689126708984375,0.26104736328125,1.0143280029296875,0.53106689453125
1780625915590121700,4.699121826171875,0.1628570556640625,1.1058197021484375,0.4749298095703125
1780625915600117000,4.709116943359375,0.0272216796875,1.14862060546875,0.3944091796875
1780625915610112000,4.719112060546875,-0.040374755859375,1.116424560546875,0.285400390625
1780625915620107000,4.72910693359375,-0.016021728515625,1.03466796875,0.1915283203125
1780625915630102000,4.73910205078125,0.02325439453125,0.957855224609375,0.1297454833984375
1780625915640097000,4.749096923828125,0.0247955322265625,0.9131622314453125,0.1033782958984375
1780625915650092800,4.7590927734375,-0.008392333984375,0.90997314453125,0.125579833984375
1780625915660087800,4.769087890625,-0.072357177734375,0.9285888671875,0.1904296875
1780625915670082800,4.779082763671875,-0.086181640625,0.9344024658203125,0.2469024658203125
1780625915680077800,4.789077880859375,-0.0357208251953125,0.92755126953125,0.2771453857421875
1780625915690072800,4.79907275390625,0.0157012939453125,0.9229736328125,0.275726318359375
1780625915700067800,4.80906787109375,0.06072998046875,0.93255615234375,0.2520751953125
1780625915710062800,4.819062744140625,0.1012725830078125,0.9488067626953125,0.2243194580078125
1780625915720057900,4.829057861328125,0.13543701171875,0.9782562255859375,0.229705810546875
1780625915730052900,4.839052978515625,0.1625518798828125,1.00732421875,0.2641448974609375
1780625915740048000,4.8490478515625,0.1551513671875,1.005157470703125,0.2964630126953125
1780625915750042400,4.85904248046875,0.12066650390625,0.9693145751953125,0.305328369140625
1780625915760037400,4.869037353515625,0.0880889892578125,0.9407806396484375,0.2949981689453125
1780625915770032400,4.879032470703125,0.07666015625,0.917205810546875,0.2565155029296875
1780625915780027400,4.88902734375,0.07696533203125,0.9044342041015625,0.1998443603515625
1780625915790022400,4.8990224609375,0.0899658203125,0.9171905517578125,0.149261474609375
1780625915800017400,4.909017333984375,0.1153717041015625,0.9440155029296875,0.12042236328125
1780625915810013200,4.91901318359375,0.1280364990234375,0.980926513671875,0.116485595703125
1780625915820008200,4.92900830078125,0.1259002685546875,1.0170745849609375,0.138092041015625
1780625915830003500,4.93900341796875,0.1150665283203125,1.0406646728515625,0.17791748046875
1780625915839998500,4.94899853515625,0.09283447265625,1.034088134765625,0.2164154052734375
1780625915849993500,4.958993408203125,0.0665130615234375,1.00592041015625,0.233245849609375
1780625915859988500,4.968988525390625,0.041229248046875,0.9821624755859375,0.22747802734375
1780625915869983500,4.9789833984375,0.018035888671875,0.9618682861328125,0.2141876220703125
1780625915879978500,4.988978515625,0.0092926025390625,0.9448699951171875,0.206573486328125
1780625915889973500,4.998973388671875,0.0224609375,0.9376220703125,0.2113189697265625
1780625915899968500,5.008968505859375,0.0426788330078125,0.9396209716796875,0.2259063720703125
1780625915909963300,5.01896337890625,0.0568695068359375,0.94622802734375,0.2416534423828125
1780625915919958300,5.028958251953125,0.0614471435546875,0.96630859375,0.2666778564453125
1780625915929953300,5.038953369140625,0.0538787841796875,0.984649658203125,0.287353515625
1780625915939948300,5.0489482421875,0.0252838134765625,0.976287841796875,0.2872161865234375
1780625915949943300,5.058943359375,0.005615234375,0.9484405517578125,0.2767333984375
1780625915959938300,5.068938232421875,-0.002410888671875,0.93536376953125,0.2596893310546875
1780625915969934300,5.078934326171875,0.0001373291015625,0.9317779541015625,0.23541259765625
1780625915979929300,5.088929443359375,0.0077667236328125,0.9368743896484375,0.2173309326171875
1780625915989924400,5.09892431640625,0.01959228515625,0.955963134765625,0.2050323486328125
1780625915999919400,5.10891943359375,0.03167724609375,0.9822998046875,0.1930084228515625
1780625916009914400,5.118914306640625,0.0321197509765625,1.0153045654296875,0.18658447265625
1780625916019909400,5.128909423828125,0.0204925537109375,1.0411376953125,0.1866912841796875
1780625916029904400,5.138904296875,0.0148162841796875,1.04388427734375,0.1949005126953125
1780625916039899400,5.1488994140625,0.0206298828125,1.0184173583984375,0.1929931640625
1780625916049894400,5.158894287109375,0.0339202880859375,0.972869873046875,0.173583984375
1780625916059889400,5.168889404296875,0.04949951171875,0.94384765625,0.161041259765625
1780625916069884400,5.178884521484375,0.041015625,0.9528961181640625,0.1566314697265625
1780625916079879200,5.188879150390625,0.018798828125,0.9772796630859375,0.1497650146484375
1780625916089874400,5.19887451171875,-0.00396728515625,1.0070953369140625,0.154327392578125
1780625916099869400,5.208869384765625,-0.021514892578125,1.01898193359375,0.167205810546875
1780625916109864400,5.218864501953125,-0.037139892578125,0.996246337890625,0.1738433837890625
1780625916119859500,5.228859375,-0.0377349853515625,0.96905517578125,0.1747589111328125
1780625916129855500,5.23885546875,-0.010223388671875,0.95404052734375,0.1571807861328125
1780625916139850500,5.2488505859375,0.0446929931640625,0.9524688720703125,0.127960205078125
1780625916149845200,5.25884521484375,0.106170654296875,0.9666748046875,0.1046295166015625
1780625916159840300,5.26884033203125,0.1522979736328125,0.9957275390625,0.0934295654296875
1780625916169835300,5.278835205078125,0.1771392822265625,1.0308990478515625,0.08758544921875
1780625916179830300,5.288830322265625,0.18572998046875,1.0543060302734375,0.0844268798828125
1780625916189825300,5.2988251953125,0.171478271484375,1.059906005859375,0.0809326171875
1780625916199820300,5.3088203125,0.1271514892578125,1.0347747802734375,0.08001708984375
1780625916209815600,5.318815673828125,0.089385986328125,0.99786376953125,0.103729248046875
1780625916219810600,5.328810546875,0.0679473876953125,0.9748687744140625,0.1440887451171875
1780625916229805600,5.3388056640625,0.0534515380859375,0.96435546875,0.186370849609375
1780625916239800600,5.348800537109375,0.050750732421875,0.96026611328125,0.2174835205078125
1780625916249795300,5.35879541015625,0.0506744384765625,0.95037841796875,0.23760986328125
1780625916259790300,5.368790283203125,0.0466461181640625,0.944091796875,0.25091552734375
1780625916269785300,5.378785400390625,0.041534423828125,0.9453582763671875,0.26495361328125
1780625916279781400,5.388781494140625,0.0390777587890625,0.9537506103515625,0.268768310546875
1780625916289776400,5.3987763671875,0.044769287109375,0.9563446044921875,0.2597808837890625
1780625916299771400,5.408771484375,0.044769287109375,0.951812744140625,0.23553466796875
1780625916309766400,5.418766357421875,0.037261962890625,0.9478302001953125,0.2010345458984375
1780625916319761200,5.42876123046875,0.0374603271484375,0.954071044921875,0.1835174560546875
1780625916329756400,5.43875634765625,0.063079833984375,0.96258544921875,0.178314208984375
1780625916339751400,5.44875146484375,0.0953521728515625,0.9728851318359375,0.1771697998046875
1780625916349746400,5.458746337890625,0.1051788330078125,0.9908599853515625,0.1771240234375
1780625916359741400,5.468741455078125,0.091705322265625,1.006134033203125,0.1744842529296875
1780625916369736400,5.478736328125,0.0809478759765625,1.020233154296875,0.1716461181640625
1780625916379731500,5.4887314453125,0.072662353515625,1.0224609375,0.162384033203125
1780625916389726500,5.4987265625,0.0597381591796875,0.987213134765625,0.1433563232421875
1780625916399721500,5.508721435546875,0.04315185546875,0.9415283203125,0.1352691650390625
1780625916409716500,5.518716552734375,0.031890869140625,0.923828125,0.1392059326171875
1780625916419711200,5.528711181640625,0.0285797119140625,0.9324798583984375,0.148406982421875
1780625916429706200,5.538706298828125,0.03240966796875,0.962371826171875,0.1670379638671875
1780625916439702500,5.54870263671875,0.0431671142578125,0.996978759765625,0.19451904296875
1780625916449697500,5.558697509765625,0.052520751953125,1.0196533203125,0.2222747802734375
1780625916459692500,5.568692626953125,0.0648193359375,1.021240234375,0.248779296875
1780625916469687600,5.5786875,0.0801849365234375,0.99615478515625,0.261138916015625
1780625916479682600,5.5886826171875,0.1087493896484375,0.9633331298828125,0.2458343505859375
1780625916489677300,5.59867724609375,0.1416473388671875,0.950225830078125,0.2229461669921875
1780625916499672300,5.60867236328125,0.14923095703125,0.94976806640625,0.199737548828125
1780625916509667300,5.618667236328125,0.1242523193359375,0.9656524658203125,0.183868408203125
1780625916519662300,5.628662353515625,0.1069488525390625,0.9829254150390625,0.1703643798828125
1780625916529657300,5.6386572265625,0.10882568359375,0.997772216796875,0.1478271484375
1780625916539652400,5.64865234375,0.115997314453125,1.0260772705078125,0.1287078857421875
1780625916549647400,5.6586474609375,0.119598388671875,1.042083740234375,0.108917236328125
1780625916559642400,5.668642333984375,0.1044464111328125,1.0306396484375,0.0929412841796875
1780625916569637400,5.678637451171875,0.0756072998046875,1.0062408447265625,0.096832275390625
1780625916579632400,5.68863232421875,0.0440521240234375,0.9832000732421875,0.1146697998046875
1780625916589627400,5.69862744140625,0.0104522705078125,0.9702301025390625,0.144561767578125
1780625916599623400,5.70862353515625,-0.0230560302734375,0.9677734375,0.1826934814453125
1780625916609618400,5.718618408203125,-0.0433349609375,0.9617919921875,0.22198486328125
1780625916619613400,5.728613525390625,-0.048583984375,0.9534149169921875,0.25927734375
1780625916629608400,5.7386083984375,-0.037841796875,0.9524078369140625,0.28570556640625
1780625916639603500,5.748603515625,-0.030914306640625,0.95855712890625,0.3021087646484375
1780625916649598500,5.758598388671875,-0.028076171875,0.9651641845703125,0.2986602783203125
1780625916659593200,5.76859326171875,-0.020172119140625,0.9685516357421875,0.2905120849609375
1780625916669588200,5.778588134765625,-0.010345458984375,0.9662017822265625,0.28363037109375
1780625916679583200,5.788583251953125,0.0018310546875,0.959716796875,0.2858428955078125
1780625916689578200,5.798578125,0.0143585205078125,0.9535369873046875,0.3001251220703125
1780625916699573200,5.8085732421875,0.01678466796875,0.9423828125,0.31085205078125
1780625916709568500,5.818568603515625,0.01751708984375,0.9400177001953125,0.3121185302734375
1780625916719563500,5.8285634765625,0.02471923828125,0.9408721923828125,0.3007354736328125
1780625916729558500,5.83855859375,0.0273284912109375,0.939422607421875,0.2843170166015625
1780625916739553500,5.848553466796875,0.0209503173828125,0.9420928955078125,0.269195556640625
1780625916749549800,5.8585498046875,0.01690673828125,0.9523773193359375,0.257904052734375
1780625916759544800,5.868544921875,0.00823974609375,0.9604949951171875,0.2474212646484375
1780625916769539800,5.878539794921875,0.0050506591796875,0.960296630859375,0.2371673583984375
1780625916779534800,5.888534912109375,0.01190185546875,0.9618377685546875,0.2334747314453125
1780625916789529900,5.89852978515625,0.0255584716796875,0.970550537109375,0.2386322021484375
1780625916799524900,5.90852490234375,0.0345458984375,0.982421875,0.25311279296875
1780625916809520000,5.91852001953125,0.0411834716796875,0.9896240234375,0.259246826171875
1780625916819515000,5.928514892578125,0.0517425537109375,0.9868927001953125,0.2602996826171875
1780625916829510000,5.938510009765625,0.0677337646484375,0.9723358154296875,0.2517242431640625
1780625916839505000,5.9485048828125,0.076202392578125,0.9550323486328125,0.23370361328125
1780625916849500000,5.9585,0.0730438232421875,0.944091796875,0.2218017578125
1780625916859495000,5.968494873046875,0.06378173828125,0.9388885498046875,0.21478271484375
1780625916869490000,5.978489990234375,0.063751220703125,0.9435577392578125,0.207763671875
1780625916879485000,5.98848486328125,0.0616455078125,0.949493408203125,0.201690673828125
1780625916889480000,5.99847998046875,0.0583038330078125,0.9558258056640625,0.2032928466796875
1780625916899475700,6.008475830078125,0.0555877685546875,0.965850830078125,0.2189788818359375
1780625916909470700,6.018470703125,0.0547332763671875,0.980499267578125,0.243560791015625
1780625916919465700,6.0284658203125,0.051422119140625,0.9853515625,0.2588958740234375
1780625916929461000,6.0384609375,0.059478759765625,0.98455810546875,0.265625
1780625916939456000,6.0484560546875,0.065521240234375,0.9823455810546875,0.2757110595703125
1780625916949451000,6.058450927734375,0.0682220458984375,0.9698028564453125,0.2853851318359375
1780625916959446000,6.068446044921875,0.0743560791015625,0.946441650390625,0.2791900634765625
1780625916969441000,6.07844091796875,0.0856781005859375,0.927398681640625,0.2634735107421875
1780625916979436000,6.08843603515625,0.0894622802734375,0.9222412109375,0.24365234375
1780625916989430800,6.0984306640625,0.077178955078125,0.9285888671875,0.2275543212890625
1780625916999425800,6.10842578125,0.0676422119140625,0.9493408203125,0.22711181640625
1780625917009420800,6.1184208984375,0.065582275390625,0.9739837646484375,0.241302490234375
1780625917019415800,6.128415771484375,0.06719970703125,0.9917144775390625,0.259765625
1780625917029410800,6.138410888671875,0.0660552978515625,1.0013275146484375,0.2758026123046875
1780625917039405800,6.14840576171875,0.0638885498046875,0.9972686767578125,0.281768798828125
1780625917049400800,6.15840087890625,0.0610504150390625,0.9830169677734375,0.288818359375
1780625917059396900,6.16839697265625,0.06268310546875,0.957244873046875,0.2972564697265625
1780625917069392000,6.178391845703125,0.067474365234375,0.9296112060546875,0.2921905517578125
1780625917079387000,6.188386962890625,0.071258544921875,0.9168701171875,0.2840423583984375
1780625917089382000,6.1983818359375,0.065521240234375,0.9266204833984375,0.277099609375
1780625917099377000,6.208376953125,0.0439605712890625,0.947784423828125,0.2707061767578125
1780625917109372000,6.218371826171875,0.0287933349609375,0.9612579345703125,0.271087646484375
1780625917119367000,6.228366943359375,0.0284576416015625,0.9647216796875,0.275665283203125
1780625917129362000,6.23836181640625,0.0344085693359375,0.964202880859375,0.284637451171875
1780625917139357000,6.24835693359375,0.0411376953125,0.9621124267578125,0.294158935546875
1780625917149352000,6.25835205078125,0.045654296875,0.95904541015625,0.303131103515625
1780625917159347000,6.268346923828125,0.0517425537109375,0.956451416015625,0.30615234375
1780625917169341700,6.278341796875,0.056671142578125,0.952117919921875,0.3012237548828125
1780625917179336700,6.288336669921875,0.0571746826171875,0.947601318359375,0.2887725830078125
1780625917189332000,6.29833203125,0.06121826171875,0.9400177001953125,0.2802734375
1780625917199327000,6.308326904296875,0.066864013671875,0.9407501220703125,0.2816925048828125
1780625917209323000,6.318322998046875,0.0725555419921875,0.947113037109375,0.2904052734375
1780625917219318000,6.328318115234375,0.0763397216796875,0.95001220703125,0.2940521240234375
1780625917229313000,6.33831298828125,0.0768890380859375,0.9529571533203125,0.294036865234375
1780625917239307800,6.348307861328125,0.07745361328125,0.95770263671875,0.2864227294921875
1780625917249302800,6.358302734375,0.0783233642578125,0.956939697265625,0.27886962890625
1780625917259297800,6.3682978515625,0.08343505859375,0.9558563232421875,0.27191162109375
1780625917269292800,6.378292724609375,0.0812225341796875,0.9594268798828125,0.263153076171875
1780625917279287800,6.388287841796875,0.0753021240234375,0.9658660888671875,0.2564697265625
1780625917289282800,6.39828271484375,0.0684051513671875,0.97265625,0.251739501953125
1780625917299277800,6.40827783203125,0.0670928955078125,0.9742279052734375,0.254364013671875
1780625917309273000,6.418273193359375,0.0705413818359375,0.9693603515625,0.2570953369140625
1780625917319268000,6.42826806640625,0.0805206298828125,0.95989990234375,0.2534942626953125
1780625917329262800,6.438262939453125,0.08843994140625,0.9481964111328125,0.248291015625
1780625917339257900,6.4482578125,0.0990142822265625,0.9522552490234375,0.24456787109375
1780625917349252900,6.4582529296875,0.1009674072265625,0.9643096923828125,0.2511749267578125
1780625917359249000,6.468248779296875,0.1016998291015625,0.9652099609375,0.2588348388671875
1780625917369244000,6.478243896484375,0.1035308837890625,0.955474853515625,0.263153076171875
1780625917379239000,6.488239013671875,0.1018829345703125,0.9403533935546875,0.26348876953125
1780625917389234000,6.49823388671875,0.0916290283203125,0.9334259033203125,0.267120361328125
1780625917399229000,6.50822900390625,0.0735321044921875,0.9329986572265625,0.2744598388671875
1780625917409223700,6.5182236328125,0.0669403076171875,0.9316558837890625,0.28070068359375
1780625917419218700,6.52821875,0.074249267578125,0.9253387451171875,0.27880859375
1780625917429214000,6.5382138671875,0.083160400390625,0.9208831787109375,0.277191162109375
1780625917439209000,6.548208984375,0.0851898193359375,0.9161224365234375,0.280059814453125
1780625917449204000,6.558203857421875,0.0770263671875,0.9120635986328125,0.2833709716796875
1780625917459199000,6.568198974609375,0.065216064453125,0.9185028076171875,0.2879638671875
1780625917469194000,6.578194091796875,0.0519866943359375,0.9373931884765625,0.2978973388671875
1780625917479189000,6.58818896484375,0.0457763671875,0.9699859619140625,0.3128204345703125
1780625917489184000,6.59818408203125,0.054779052734375,0.9972076416015625,0.3247833251953125
1780625917499179000,6.608178955078125,0.0806121826171875,0.99462890625,0.321319580078125
1780625917509174800,6.6181748046875,0.1116485595703125,0.979034423828125,0.3135833740234375
1780625917519169800,6.628169677734375,0.12896728515625,0.9557037353515625,0.2945404052734375
1780625917529164800,6.638164794921875,0.1311492919921875,0.93878173828125,0.282684326171875
1780625917539159800,6.648159912109375,0.1271209716796875,0.92767333984375,0.289459228515625
1780625917549155000,6.658155029296875,0.1219024658203125,0.93170166015625,0.32080078125
1780625917559150000,6.668150146484375,0.111419677734375,0.942352294921875,0.3629913330078125
1780625917569145000,6.67814501953125,0.0972747802734375,0.95208740234375,0.3909759521484375
1780625917579139800,6.688139892578125,0.0833587646484375,0.950775146484375,0.3979339599609375
1780625917589134800,6.698134765625,0.0632171630859375,0.9454193115234375,0.3910980224609375
1780625917599129900,6.7081298828125,0.0415191650390625,0.942230224609375,0.3856964111328125
1780625917609124900,6.718124755859375,0.0338134765625,0.9300384521484375,0.37152099609375
1780625917619119900,6.728119873046875,0.050811767578125,0.908233642578125,0.3588409423828125
1780625917629115000,6.738114990234375,0.0898590087890625,0.8764801025390625,0.340667724609375
1780625917639110000,6.74810986328125,0.1278533935546875,0.84698486328125,0.3259429931640625
1780625917649105000,6.75810498046875,0.157073974609375,0.8284912109375,0.3180084228515625
1780625917659100000,6.768099853515625,0.1758270263671875,0.8317108154296875,0.3111114501953125
1780625917669096000,6.778095947265625,0.1744232177734375,0.8551177978515625,0.3075714111328125
1780625917679091000,6.788091064453125,0.1575775146484375,0.887420654296875,0.2947235107421875
1780625917689086000,6.7980859375,0.140777587890625,0.92779541015625,0.276336669921875
1780625917699081000,6.8080810546875,0.129638671875,0.97418212890625,0.2748870849609375
1780625917709076000,6.818075927734375,0.1274566650390625,1.0125579833984375,0.271453857421875
1780625917719071000,6.828071044921875,0.1345062255859375,1.032318115234375,0.2675323486328125
1780625917729066000,6.83806591796875,0.1492462158203125,1.0256805419921875,0.2700042724609375
1780625917739061000,6.84806103515625,0.167327880859375,0.9956817626953125,0.271636962890625
1780625917749055200,6.85805517578125,0.1804046630859375,0.9582977294921875,0.2731475830078125
1780625917759050200,6.86805029296875,0.1806793212890625,0.9309844970703125,0.2827606201171875
1780625917769045000,6.878044921875,0.1695709228515625,0.92303466796875,0.299285888671875
1780625917779040300,6.888040283203125,0.1492462158203125,0.92230224609375,0.319061279296875
1780625917789035300,6.89803515625,0.1192474365234375,0.9132080078125,0.34344482421875
1780625917799030300,6.9080302734375,0.07965087890625,0.89691162109375,0.37579345703125
1780625917809025300,6.918025390625,0.0407867431640625,0.89569091796875,0.4097137451171875
1780625917819021300,6.928021240234375,0.0235595703125,0.8974761962890625,0.42376708984375
1780625917829016300,6.938016357421875,0.0258331298828125,0.890777587890625,0.4091644287109375
1780625917839011000,6.948010986328125,0.0390625,0.8930816650390625,0.39190673828125
1780625917849006000,6.958006103515625,0.0599212646484375,0.897857666015625,0.3768463134765625
1780625917859001000,6.9680009765625,0.0836029052734375,0.9066009521484375,0.3675537109375
1780625917868996000,6.97799609375,0.1047821044921875,0.9193572998046875,0.3700103759765625
1780625917878991000,6.9879912109375,0.12213134765625,0.9349822998046875,0.3898468017578125
1780625917888986000,6.997986083984375,0.127593994140625,0.9552154541015625,0.4192657470703125
1780625917898981400,7.0079814453125,0.12799072265625,0.970794677734375,0.437255859375
1780625917908976400,7.017976318359375,0.1282958984375,0.957489013671875,0.4366455078125
1780625917918971400,7.027971435546875,0.1267242431640625,0.93023681640625,0.4211883544921875
1780625917928966400,7.03796630859375,0.12286376953125,0.9030914306640625,0.3924713134765625
1780625917938961200,7.047961181640625,0.111236572265625,0.8818511962890625,0.354705810546875
1780625917948956200,7.0579560546875,0.093963623046875,0.8791046142578125,0.323028564453125
1780625917958952200,7.0679521484375,0.067840576171875,0.8911285400390625,0.3040618896484375
1780625917968947200,7.077947265625,0.0440826416015625,0.9263763427734375,0.3030242919921875
1780625917978942200,7.087942138671875,0.047515869140625,0.983612060546875,0.3223114013671875
1780625917988937200,7.097937255859375,0.069091796875,1.0328521728515625,0.3416290283203125
1780625917998932200,7.10793212890625,0.0991363525390625,1.0565185546875,0.3523712158203125
1780625918008927200,7.11792724609375,0.13812255859375,1.0469970703125,0.353179931640625
1780625918018922200,7.127922119140625,0.1851043701171875,1.007537841796875,0.326202392578125
1780625918028917200,7.137917236328125,0.225311279296875,0.961883544921875,0.3001708984375
1780625918038912300,7.147912353515625,0.24273681640625,0.918548583984375,0.2650146484375
1780625918048907300,7.1579072265625,0.233489990234375,0.8915252685546875,0.233551025390625
1780625918058902300,7.16790234375,0.2102203369140625,0.8838348388671875,0.2207183837890625
1780625918068897300,7.177897216796875,0.1812896728515625,0.8948211669921875,0.2288360595703125
1780625918078892300,7.187892333984375,0.1496734619140625,0.9274444580078125,0.251007080078125
1780625918088887300,7.19788720703125,0.1188201904296875,0.9653778076171875,0.2735748291015625
1780625918098882300,7.20788232421875,0.09765625,0.9874267578125,0.3076019287109375
1780625918108878000,7.217878173828125,0.0900421142578125,0.985015869140625,0.3578948974609375
1780625918118873000,7.227873046875,0.095672607421875,0.9627532958984375,0.4123992919921875
1780625918128868400,7.237868408203125,0.11663818359375,0.9273529052734375,0.46044921875
1780625918138863400,7.24786328125,0.1432342529296875,0.8826904296875,0.4892120361328125
1780625918148858400,7.2578583984375,0.1622467041015625,0.8394927978515625,0.49273681640625
1780625918158853400,7.267853271484375,0.1728515625,0.818756103515625,0.4673004150390625
1780625918168848400,7.277848388671875,0.16583251953125,0.8198699951171875,0.423126220703125
1780625918178843100,7.287843017578125,0.1404266357421875,0.838531494140625,0.370574951171875
1780625918188838100,7.297838134765625,0.1071014404296875,0.8575439453125,0.333587646484375
1780625918198833200,7.307833251953125,0.073394775390625,0.873992919921875,0.3417510986328125
1780625918208828200,7.317828125,0.0574493408203125,0.8842620849609375,0.3819732666015625
1780625918218823200,7.3278232421875,0.06488037109375,0.883270263671875,0.424224853515625
1780625918228818200,7.337818115234375,0.0833282470703125,0.8759765625,0.454010009765625
1780625918238813200,7.347813232421875,0.096832275390625,0.8669281005859375,0.4654083251953125
1780625918248808200,7.35780810546875,0.1041412353515625,0.86151123046875,0.4574127197265625
1780625918258804200,7.36780419921875,0.1055755615234375,0.8611907958984375,0.429931640625
1780625918268799200,7.37779931640625,0.101531982421875,0.873992919921875,0.398101806640625
1780625918278794200,7.387794189453125,0.09332275390625,0.885284423828125,0.370941162109375
1780625918288789200,7.397789306640625,0.092620849609375,0.8908843994140625,0.35894775390625
1780625918298784300,7.4077841796875,0.0912933349609375,0.8931427001953125,0.3541107177734375
1780625918308779300,7.417779296875,0.0843658447265625,0.8969268798828125,0.3575897216796875
1780625918318774300,7.427774169921875,0.0745697021484375,0.9007568359375,0.3715057373046875
1780625918328769300,7.437769287109375,0.0618438720703125,0.90093994140625,0.39471435546875
1780625918338764300,7.447764404296875,0.047607421875,0.8963775634765625,0.427886962890625
1780625918348759300,7.45775927734375,0.038665771484375,0.9019317626953125,0.459747314453125
1780625918358754000,7.467754150390625,0.0456695556640625,0.9219207763671875,0.492156982421875
1780625918368749000,7.4777490234375,0.0590972900390625,0.9427642822265625,0.51416015625
1780625918378744000,7.487744140625,0.0673828125,0.9541015625,0.52239990234375
1780625918388739000,7.497739013671875,0.074798583984375,0.945648193359375,0.51593017578125
1780625918398734300,7.507734375,0.079010009765625,0.9251556396484375,0.4990692138671875
1780625918408730400,7.51773046875,0.069976806640625,0.903106689453125,0.4780426025390625
1780625918418725400,7.527725341796875,0.0516510009765625,0.8964996337890625,0.4649200439453125
1780625918428720000,7.53772021484375,0.0337677001953125,0.8930206298828125,0.4638671875
1780625918438715100,7.547715087890625,0.0177001953125,0.88494873046875,0.4680938720703125
1780625918448710100,7.557710205078125,0.0113067626953125,0.8793792724609375,0.4706268310546875
1780625918458705200,7.567705078125,0.017364501953125,0.8814849853515625,0.47271728515625
1780625918468700200,7.5777001953125,0.029541015625,0.8824615478515625,0.4660491943359375
1780625918478695200,7.587695068359375,0.0413360595703125,0.88153076171875,0.4554901123046875
1780625918488690200,7.597690185546875,0.03961181640625,0.8776092529296875,0.4486236572265625
1780625918498685200,7.607685302734375,0.0280303955078125,0.87103271484375,0.454681396484375
1780625918508680400,7.617680419921875,0.020263671875,0.8642578125,0.467559814453125
1780625918518675200,7.62767529296875,0.025848388671875,0.8593292236328125,0.47760009765625
1780625918528670200,7.637670166015625,0.040618896484375,0.860809326171875,0.4816131591796875
1780625918538665200,7.647665283203125,0.0555267333984375,0.8675994873046875,0.47412109375
1780625918548660200,7.65766015625,0.06829833984375,0.879425048828125,0.4589080810546875
1780625918558656300,7.66765625,0.07501220703125,0.88818359375,0.4430084228515625
1780625918568651300,7.6776513671875,0.0763702392578125,0.89129638671875,0.4283447265625
1780625918578646300,7.687646240234375,0.07391357421875,0.8929443359375,0.420806884765625
1780625918588641300,7.697641357421875,0.0677642822265625,0.898040771484375,0.421234130859375
1780625918598636000,7.707635986328125,0.0574493408203125,0.9037933349609375,0.4267730712890625
1780625918608631000,7.717631103515625,0.05224609375,0.9075469970703125,0.43316650390625
1780625918618626000,7.7276259765625,0.04791259765625,0.9072723388671875,0.44549560546875
1780625918628621300,7.737621337890625,0.0503082275390625,0.90020751953125,0.4550933837890625
1780625918638616300,7.7476162109375,0.05517578125,0.88800048828125,0.4581298828125
1780625918648611300,7.757611328125,0.05718994140625,0.874420166015625,0.461212158203125
1780625918658606300,7.7676064453125,0.055755615234375,0.8602447509765625,0.4553375244140625
1780625918668601300,7.777601318359375,0.0551605224609375,0.85247802734375,0.454803466796875
1780625918678596400,7.787596435546875,0.0517425537109375,0.85174560546875,0.4573822021484375
1780625918688591400,7.79759130859375,0.044952392578125,0.8616485595703125,0.4579620361328125
1780625918698586000,7.807586181640625,0.0470428466796875,0.877471923828125,0.457183837890625
1780625918708582100,7.81758203125,0.06378173828125,0.88922119140625,0.45458984375
1780625918718577200,7.8275771484375,0.0759429931640625,0.899169921875,0.444915771484375
1780625918728572200,7.837572265625,0.0840911865234375,0.910675048828125,0.4324798583984375
1780625918738567200,7.847567138671875,0.0835418701171875,0.9232635498046875,0.42498779296875
1780625918748562200,7.857562255859375,0.0552978515625,0.9317779541015625,0.4211883544921875
1780625918758557200,7.86755712890625,0.01080322265625,0.9270172119140625,0.41021728515625
1780625918768552200,7.87755224609375,0.0172576904296875,0.919464111328125,0.403533935546875
1780625918778547000,7.887546875,0.061248779296875,0.9164276123046875,0.393585205078125
1780625918788542000,7.8975419921875,0.1147613525390625,0.91278076171875,0.3856048583984375
1780625918798537000,7.907536865234375,0.1522064208984375,0.90484619140625,0.3770751953125
1780625918808532000,7.917531982421875,0.14697265625,0.8971710205078125,0.3517608642578125
1780625918818527000,7.92752685546875,0.1330718994140625,0.9005584716796875,0.3299407958984375
1780625918828522200,7.937522216796875,0.1356658935546875,0.911346435546875,0.3213348388671875
1780625918838517200,7.947517333984375,0.1399383544921875,0.9201812744140625,0.319580078125
1780625918848513000,7.957512939453125,0.1336822509765625,0.9181976318359375,0.3140411376953125
1780625918858508000,7.967508056640625,0.1292877197265625,0.9080963134765625,0.30145263671875
1780625918868503000,7.9775029296875,0.1350250244140625,0.90118408203125,0.3003387451171875
1780625918878498000,7.987498046875,0.1500244140625,0.8958740234375,0.3002471923828125
1780625918888493000,7.9974931640625,0.1512298583984375,0.8886260986328125,0.3085174560546875
1780625918898488000,8.007488037109376,0.1477203369140625,0.88543701171875,0.3281402587890625
1780625918908483000,8.017483154296874,0.1373443603515625,0.8857879638671875,0.3483428955078125
1780625918918478000,8.02747802734375,0.133087158203125,0.8832244873046875,0.3556060791015625
1780625918928473000,8.03747314453125,0.140869140625,0.8826141357421875,0.346893310546875
1780625918938468000,8.047468017578124,0.15234375,0.8843536376953125,0.3263702392578125
1780625918948463000,8.057463134765625,0.1567840576171875,0.890045166015625,0.3079071044921875
1780625918958458000,8.0674580078125,0.1530914306640625,0.896728515625,0.2977752685546875
1780625918968453000,8.077453125,0.1564788818359375,0.905731201171875,0.301116943359375
1780625918978448100,8.0874482421875,0.17510986328125,0.9099273681640625,0.3110809326171875
1780625918988444200,8.097444091796875,0.2046356201171875,0.9094390869140625,0.31927490234375
1780625918998439200,8.107439208984376,0.2195587158203125,0.901824951171875,0.31671142578125
1780625919008434200,8.11743408203125,0.217926025390625,0.89178466796875,0.3025970458984375
1780625919018429000,8.127428955078125,0.202606201171875,0.886627197265625,0.28070068359375
1780625919028424000,8.137423828125,0.18658447265625,0.884490966796875,0.2603607177734375
1780625919038419000,8.1474189453125,0.1700592041015625,0.88299560546875,0.24713134765625
1780625919048414000,8.1574140625,0.162017822265625,0.8763275146484375,0.24530029296875
1780625919058409200,8.1674091796875,0.15960693359375,0.869354248046875,0.25604248046875
1780625919068404200,8.177404296875,0.162353515625,0.8678741455078125,0.2735748291015625
1780625919078399200,8.187399169921875,0.1728515625,0.86981201171875,0.2848663330078125
1780625919088394200,8.197394287109375,0.1929931640625,0.8869476318359375,0.2906341552734375
1780625919098389200,8.20738916015625,0.223358154296875,0.9290618896484375,0.2964019775390625
1780625919108384300,8.21738427734375,0.226318359375,0.9764556884765625,0.306396484375
1780625919118379000,8.22737890625,0.1695098876953125,0.99761962890625,0.319091796875
1780625919128375000,8.237375,0.1041412353515625,1.010009765625,0.3192291259765625
1780625919138370000,8.2473701171875,0.0246734619140625,1.003936767578125,0.280609130859375
1780625919148365000,8.257364990234375,-0.0396270751953125,0.9947967529296875,0.2370758056640625
1780625919158360000,8.267360107421876,-0.01910400390625,0.99951171875,0.2381591796875
1780625919168355000,8.27735498046875,0.055145263671875,0.9903411865234375,0.26153564453125
1780625919178350300,8.287350341796875,0.13836669921875,1.0034637451171875,0.33001708984375
1780625919188345000,8.297344970703126,0.146270751953125,1.045257568359375,0.43756103515625
1780625919198340000,8.307340087890625,0.0670013427734375,1.0381927490234375,0.4658660888671875
1780625919208335000,8.317335205078125,-0.032196044921875,1.029296875,0.4511566162109375
1780625919218330000,8.327330078125,-0.0881195068359375,1.01727294921875,0.4221649169921875
1780625919228325000,8.3373251953125,-0.090576171875,1.01373291015625,0.42352294921875
1780625919238320000,8.347320068359375,-0.0211334228515625,0.9950103759765625,0.416412353515625
1780625919248315100,8.357315185546875,0.09796142578125,0.94000244140625,0.356414794921875
1780625919258310100,8.36731005859375,0.189971923828125,0.8928985595703125,0.2996368408203125
1780625919268305200,8.37730517578125,0.239776611328125,0.8796234130859375,0.272705078125
1780625919278301000,8.387301025390625,0.26739501953125,0.8795013427734375,0.2391815185546875
1780625919288296000,8.3972958984375,0.231231689453125,0.89788818359375,0.20233154296875
1780625919298291200,8.407291259765625,0.1421661376953125,0.9357147216796875,0.1815948486328125
1780625919308286200,8.4172861328125,0.0469818115234375,0.96124267578125,0.16436767578125
1780625919318281200,8.42728125,-0.0344390869140625,0.9635162353515625,0.1457366943359375
1780625919328276200,8.437276123046875,-0.0641632080078125,0.9563446044921875,0.1415557861328125
1780625919338271200,8.447271240234375,-0.04937744140625,0.9544525146484375,0.1689453125
1780625919348266200,8.457266357421876,-0.0098114013671875,0.958709716796875,0.2228851318359375
1780625919358261000,8.467260986328125,0.0082550048828125,0.95526123046875,0.2724761962890625
1780625919368256000,8.477256103515625,0.0414581298828125,0.9493255615234375,0.30078125
1780625919378251000,8.4872509765625,0.1185302734375,0.9525909423828125,0.2944183349609375
1780625919388246000,8.49724609375,0.1850433349609375,0.9595489501953125,0.2628021240234375
1780625919398241000,8.507240966796875,0.2273101806640625,0.961517333984375,0.2298583984375
1780625919408236000,8.517236083984375,0.235504150390625,0.96392822265625,0.2078704833984375
1780625919418232300,8.527232421875,0.2087249755859375,0.9644012451171875,0.2089996337890625
1780625919428227000,8.53722705078125,0.154022216796875,0.9726104736328125,0.2312469482421875
1780625919438222000,8.54722216796875,0.11651611328125,0.990264892578125,0.257171630859375
1780625919448217000,8.557217041015624,0.0988311767578125,1.00042724609375,0.2772674560546875
1780625919458212000,8.567212158203125,0.092071533203125,0.9925689697265625,0.281494140625
1780625919468207000,8.57720703125,0.0882720947265625,0.9706573486328125,0.2854766845703125
1780625919478202000,8.5872021484375,0.0899810791015625,0.944305419921875,0.288848876953125
1780625919488197000,8.597197021484375,0.0966644287109375,0.9358367919921875,0.2781524658203125
1780625919498192100,8.607192138671875,0.0946044921875,0.9298858642578125,0.261199951171875
1780625919508187100,8.617187255859376,0.079620361328125,0.9293060302734375,0.2344512939453125
1780625919518182100,8.62718212890625,0.0630035400390625,0.934661865234375,0.210235595703125
1780625919528177000,8.637177001953125,0.0445556640625,0.94488525390625,0.1943206787109375
1780625919538172000,8.647171875,0.0086822509765625,0.9691619873046875,0.18255615234375
1780625919548167000,8.6571669921875,-0.047149658203125,1.003173828125,0.169586181640625
1780625919558162200,8.667162109375,-0.0958709716796875,1.02301025390625,0.157745361328125
1780625919568158200,8.677158203125,-0.1063232421875,1.014434814453125,0.1441802978515625
1780625919578153200,8.6871533203125,-0.0958404541015625,0.9838714599609375,0.13397216796875
1780625919588148200,8.697148193359375,-0.075775146484375,0.953277587890625,0.1272735595703125
1780625919598143000,8.70714306640625,-0.0291595458984375,0.9451141357421875,0.1125640869140625
1780625919608138000,8.717137939453124,0.019378662109375,0.974639892578125,0.1004486083984375
1780625919618133000,8.727133056640625,0.04718017578125,1.0147552490234375,0.0904388427734375
1780625919628128000,8.7371279296875,0.0464630126953125,1.0532073974609375,0.074371337890625
1780625919638123000,8.747123046875,0.01031494140625,1.094329833984375,0.080780029296875
1780625919648118000,8.757117919921875,-0.0170135498046875,1.117645263671875,0.095306396484375
1780625919658113000,8.767113037109375,-0.012115478515625,1.1027069091796875,0.10406494140625
1780625919668108000,8.77710791015625,0.00628662109375,1.0499267578125,0.11065673828125
1780625919678103300,8.787103271484375,0.0446624755859375,0.98638916015625,0.107330322265625
1780625919688098300,8.797098388671875,0.0512542724609375,0.94873046875,0.0876007080078125
1780625919698093000,8.807093017578126,0.0449371337890625,0.9569854736328125,0.088043212890625
1780625919708089000,8.817089111328125,0.0558319091796875,0.986328125,0.111480712890625
1780625919718084000,8.827083984375,0.087371826171875,0.99713134765625,0.1357421875
1780625919728079000,8.8370791015625,0.116943359375,0.9901580810546875,0.1491851806640625
1780625919738074000,8.84707421875,0.11932373046875,0.9876708984375,0.1517333984375
1780625919748070000,8.85706982421875,0.1162109375,1.0016632080078125,0.147857666015625
1780625919758065000,8.86706494140625,0.1057281494140625,1.012451171875,0.13104248046875
1780625919768060000,8.877059814453125,0.0832672119140625,1.012664794921875,0.0957489013671875
1780625919778055000,8.887054931640625,0.085968017578125,1.0126190185546875,0.0673370361328125
1780625919788050000,8.8970498046875,0.0919342041015625,1.014251708984375,0.0754852294921875
1780625919798045000,8.907044921875,0.05950927734375,1.01385498046875,0.0863037109375
1780625919808040000,8.9170400390625,-0.004425048828125,1.0087127685546875,0.1041107177734375
1780625919818035000,8.927034912109375,-0.0487213134765625,1.00152587890625,0.141326904296875
1780625919828030000,8.937030029296874,-0.0297393798828125,0.99639892578125,0.1882781982421875
1780625919838025000,8.94702490234375,0.053985595703125,0.9800567626953125,0.238433837890625
1780625919848019700,8.957019775390625,0.1588592529296875,0.9505615234375,0.280426025390625
1780625919858015700,8.967015625,0.21728515625,0.9150848388671875,0.288543701171875
1780625919868011000,8.977010986328125,0.2169036865234375,0.8898468017578125,0.259033203125
1780625919878006000,8.987006103515625,0.1915283203125,0.9109039306640625,0.194091796875
1780625919888001000,8.9970009765625,0.1825714111328125,0.95220947265625,0.0825653076171875
1780625919897996000,9.00699609375,0.2039642333984375,0.996337890625,-0.0132293701171875
1780625919907991000,9.016990966796875,0.2233123779296875,1.0258026123046875,-0.046478271484375
1780625919917985800,9.02698583984375,0.2151947021484375,1.0264129638671875,-0.0868377685546875
1780625919927980800,9.036980712890625,0.1851348876953125,1.0047760009765625,-0.127716064453125
1780625919937975800,9.046975830078125,0.1286468505859375,0.9988250732421875,-0.12994384765625
1780625919947970800,9.056970703125,0.096923828125,0.9983367919921875,-0.0904388427734375
1780625919957965800,9.0669658203125,0.1014862060546875,0.997161865234375,-0.029266357421875
1780625919967960800,9.0769609375,0.1067657470703125,0.983306884765625,0.023345947265625
1780625919977955800,9.086955810546876,0.1287841796875,0.964691162109375,0.066925048828125
1780625919987950800,9.096950927734374,0.1417999267578125,0.9548797607421875,0.07080078125
1780625919997947000,9.10694677734375,0.128997802734375,0.927337646484375,0.026458740234375
1780625920007942000,9.11694189453125,0.1097564697265625,0.9081268310546875,-0.0258636474609375
1780625920017937000,9.12693701171875,0.07537841796875,0.874298095703125,-0.0708465576171875
1780625920027932000,9.136931884765625,0.0717620849609375,0.852569580078125,-0.0695037841796875
1780625920037927000,9.146927001953125,0.076629638671875,0.8502197265625,-0.0418853759765625
1780625920047922000,9.156921875,0.0757293701171875,0.861785888671875,-0.008026123046875
1780625920057917000,9.1669169921875,0.069091796875,0.8787841796875,0.010101318359375
1780625920067912000,9.176911865234375,0.01678466796875,0.8957366943359375,0.00537109375
1780625920077907000,9.186906982421876,0.039825439453125,0.922149658203125,0.029754638671875
1780625920087902000,9.19690185546875,0.158203125,0.9846343994140625,0.0938262939453125
1780625920097896700,9.206896728515625,0.209716796875,1.053192138671875,0.1642303466796875
1780625920107891700,9.2168916015625,0.1575775146484375,1.08416748046875,0.201446533203125
1780625920117886700,9.22688671875,0.1611785888671875,1.027435302734375,0.2162933349609375
1780625920127882000,9.236882080078125,0.120147705078125,0.943206787109375,0.2217254638671875
1780625920137877000,9.246876953125,0.076019287109375,0.8869476318359375,0.2028045654296875
1780625920147873000,9.256873046875,0.0837249755859375,0.871734619140625,0.152984619140625
1780625920157868000,9.266867919921875,0.097320556640625,0.8929290771484375,0.0807647705078125
1780625920167862800,9.27686279296875,0.0110015869140625,0.9217071533203125,-0.0036468505859375
1780625920177857800,9.28685791015625,0.051116943359375,0.9064178466796875,-0.0174407958984375
1780625920187852800,9.296852783203125,0.2111968994140625,0.8482208251953125,-0.0027923583984375
1780625920197847800,9.306847900390625,0.1834716796875,0.8296356201171875,-0.0559539794921875
1780625920207842800,9.3168427734375,0.180511474609375,0.8468017578125,-0.14862060546875
1780625920217837800,9.326837890625,0.1767120361328125,0.894439697265625,-0.242645263671875
1780625920227832800,9.336832763671875,0.101959228515625,0.937347412109375,-0.3165740966796875
1780625920237827800,9.346827880859376,0.1268157958984375,0.9527130126953125,-0.30963134765625
1780625920247823000,9.356822998046875,0.1064453125,0.932891845703125,-0.2248992919921875
1780625920257817900,9.36681787109375,0.049407958984375,0.8680877685546875,-0.124725341796875
1780625920267812900,9.376812744140626,0.0630950927734375,0.821563720703125,-0.0284576416015625
1780625920277807900,9.386807861328125,0.0101470947265625,0.8405303955078125,0.026641845703125
1780625920287804000,9.396803955078125,0.0685882568359375,0.9172210693359375,0.0366058349609375
1780625920297799000,9.406798828125,0.15325927734375,1.009124755859375,0.0286865234375
1780625920307794000,9.4167939453125,0.1265716552734375,1.0769805908203125,0.025421142578125
1780625920317789000,9.426788818359375,0.2451171875,1.1209564208984375,0.0655059814453125
1780625920327784000,9.436783935546876,0.2564544677734375,1.136138916015625,0.0700225830078125
1780625920337778700,9.44677880859375,0.083099365234375,1.085540771484375,0.0111541748046875
1780625920347773700,9.456773681640625,0.01544189453125,1.011016845703125,-0.043182373046875
1780625920357768700,9.466768798828125,-0.047515869140625,0.9516754150390625,-0.0576934814453125
1780625920367764000,9.476763916015624,-0.13177490234375,0.9134063720703125,-0.047760009765625
1780625920377759000,9.486759033203125,-0.0301361083984375,0.9025115966796875,-0.01141357421875
1780625920387754000,9.49675390625,0.2321929931640625,0.938751220703125,0.047088623046875
1780625920397749000,9.5067490234375,0.2461090087890625,1.0451812744140625,0.097442626953125
1780625920407744000,9.516743896484375,0.1565399169921875,1.1519317626953125,0.093353271484375
1780625920417739000,9.526739013671875,0.067962646484375,1.1973724365234375,0.03546142578125
1780625920427734800,9.53673486328125,-0.071685791015625,1.1713714599609375,-0.0338897705078125
1780625920437729800,9.546729736328125,-0.0457000732421875,1.0948028564453125,-0.07965087890625
1780625920447724800,9.556724853515625,0.0041351318359375,1.034027099609375,-0.04644775390625
1780625920457719800,9.5667197265625,0.076629638671875,1.0122833251953125,0.04254150390625
1780625920467714800,9.57671484375,0.221038818359375,1.0126953125,0.11846923828125
1780625920477710000,9.5867099609375,0.2421112060546875,1.014190673828125,0.132659912109375
1780625920487705000,9.596705078125,0.1864166259765625,1.011932373046875,0.12432861328125
1780625920497700000,9.6067001953125,0.149993896484375,0.9959716796875,0.093536376953125
1780625920507694800,9.61669482421875,0.11761474609375,0.9502105712890625,0.044647216796875
1780625920517689900,9.62668994140625,0.0893707275390625,0.8936004638671875,0.0022430419921875
1780625920527684900,9.636684814453124,0.1083831787109375,0.8629913330078125,0.0019683837890625
1780625920537680000,9.646679931640625,0.1955413818359375,0.876312255859375,0.0489654541015625
1780625920547675000,9.6566748046875,0.216644287109375,0.92230224609375,0.0704498291015625
1780625920557670000,9.666669921875,0.2342071533203125,0.9818878173828125,0.0449066162109375
1780625920567666000,9.676666015625,0.3533935546875,1.0430145263671875,0
1780625920577660700,9.68666064453125,0.4976959228515625,1.08660888671875,-0.032806396484375
1780625920587655700,9.69665576171875,0.4363555908203125,1.1229400634765625,-0.05108642578125
1780625920597651000,9.70665087890625,0.1660003662109375,1.136993408203125,-0.0615997314453125
1780625920607646000,9.71664599609375,0.1286163330078125,1.107025146484375,-0.072418212890625
1780625920617641000,9.726640869140626,0.2473602294921875,1.05401611328125,-0.0628814697265625
1780625920627636000,9.736635986328125,0.2398223876953125,1.0013275146484375,-0.0020294189453125
1780625920637631000,9.746630859375,0.1479034423828125,0.972900390625,0.0857696533203125
1780625920647626000,9.7566259765625,-0.0153961181640625,0.996307373046875,0.225341796875
1780625920657621000,9.76662109375,-0.1688995361328125,1.0819854736328125,0.4756622314453125
1780625920667616000,9.776615966796875,-0.0916290283203125,1.1725616455078125,0.7723236083984375
1780625920677610800,9.78661083984375,0.30120849609375,1.19512939453125,0.8842010498046875
1780625920687605800,9.796605712890624,0.521820068359375,1.109710693359375,0.553497314453125
1780625920697600800,9.806600830078125,0.2649383544921875,1.0813446044921875,0.065216064453125
1780625920707595800,9.816595703125,-0.0858917236328125,1.2021942138671875,-0.216278076171875
1780625920717592000,9.826592041015624,0.0188140869140625,1.293609619140625,-0.2098541259765625
1780625920727587000,9.836587158203125,0.18316650390625,1.2779693603515625,-0.0138702392578125
1780625920737582000,9.84658203125,0.0846405029296875,1.213623046875,0.1529693603515625
1780625920747576800,9.856576904296874,0.0759429931640625,1.1334686279296875,0.2001800537109375
1780625920757571000,9.866571044921875,0.1568450927734375,1.1180877685546875,0.1822967529296875
1780625920767566000,9.876566162109375,0.163299560546875,1.1372528076171875,0.177215576171875
1780625920777561000,9.88656103515625,0.1420745849609375,1.1610260009765625,0.190185546875
1780625920787556000,9.89655615234375,0.1303863525390625,1.1671600341796875,0.2204437255859375
1780625920797551000,9.906551025390625,0.1075439453125,1.1555633544921875,0.2432098388671875
1780625920807546000,9.916546142578126,0.1293487548828125,1.1578521728515625,0.2404327392578125
1780625920817541000,9.926541015625,0.1792144775390625,1.1726531982421875,0.235992431640625
1780625920827536100,9.9365361328125,0.1602630615234375,1.189788818359375,0.2375030517578125
1780625920837531100,9.94653125,0.11798095703125,1.2071990966796875,0.2257232666015625
1780625920847526100,9.956526123046874,0.09466552734375,1.206298828125,0.229095458984375
1780625920857522000,9.96652197265625,0.0623016357421875,1.1579437255859375,0.2235260009765625
1780625920867517000,9.976516845703125,0.0368499755859375,1.100006103515625,0.21612548828125
1780625920877512200,9.98651220703125,0.0381011962890625,1.07861328125,0.232696533203125
1780625920887507200,9.996507080078125,0.0192413330078125,1.085662841796875,0.270599365234375
1780625920897502200,10.006502197265625,0.0063323974609375,1.1040802001953125,0.311553955078125
1780625920907497200,10.016497314453124,0.041534423828125,1.1299591064453125,0.3645782470703125
1780625920917492200,10.0264921875,0.012603759765625,1.144073486328125,0.404022216796875
1780625920927487200,10.0364873046875,-0.083831787109375,1.12646484375,0.4134368896484375
1780625920937482200,10.046482177734376,-0.135162353515625,1.11199951171875,0.4130859375
1780625920947477000,10.05647705078125,-0.1097869873046875,1.1278228759765625,0.43145751953125
1780625920957472000,10.066471923828125,-0.0804290771484375,1.1573028564453125,0.449859619140625
1780625920967467000,10.076467041015626,-0.0699920654296875,1.175384521484375,0.457550048828125
1780625920977462000,10.0864619140625,-0.070831298828125,1.16766357421875,0.465667724609375
1780625920987457000,10.09645703125,-0.0359039306640625,1.1229095458984375,0.462432861328125
1780625920997452000,10.1064521484375,0.0296173095703125,1.0552520751953125,0.4509735107421875
1780625921007448300,10.1164482421875,0.1016693115234375,0.9820556640625,0.4275665283203125
1780625921017443000,10.126443115234375,0.2249298095703125,0.9053955078125,0.3838043212890625
1780625921027438000,10.13643798828125,0.399139404296875,0.858428955078125,0.3155364990234375
1780625921037433000,10.14643310546875,0.579254150390625,0.87481689453125,0.2178497314453125
1780625921047428000,10.156427978515625,0.6901092529296875,0.907470703125,0.0703125
1780625921057423000,10.166423095703125,0.7153167724609375,0.8951568603515625,-0.10650634765625
1780625921067418000,10.176418212890624,0.4688720703125,0.8782958984375,-0.1114349365234375
1780625921077413000,10.1864130859375,0.2515106201171875,0.8514862060546875,-0.025726318359375
1780625921087408000,10.196408203125,0.433013916015625,0.7793121337890625,-0.065155029296875
1780625921097403100,10.206403076171876,0.67559814453125,0.726226806640625,-0.1883697509765625
1780625921107398100,10.216398193359375,0.647064208984375,0.739410400390625,-0.25738525390625
1780625921117393000,10.226392822265625,0.3068084716796875,0.7819976806640625,-0.1774749755859375
1780625921127388000,10.236387939453126,-0.053802490234375,0.827972412109375,0.01165771484375
1780625921137383000,10.2463828125,-0.184967041015625,0.859130859375,0.1562957763671875
1780625921147378200,10.256378173828125,-0.1598052978515625,0.865020751953125,0.2094879150390625
1780625921157374200,10.266374267578126,-0.122222900390625,0.8594512939453125,0.2158203125
1780625921167369200,10.276369140625,0.02313232421875,0.8962249755859375,0.1954345703125
1780625921177364200,10.2863642578125,0.438812255859375,0.990997314453125,0.087005615234375
1780625921187359000,10.29635888671875,0.6658782958984375,1.116241455078125,0.1020965576171875
1780625921197354000,10.30635400390625,0.5589447021484375,1.2217559814453125,0.298095703125
1780625921207349000,10.316348876953125,0.44989013671875,1.2448272705078125,0.459869384765625
1780625921217344000,10.326343994140625,0.4390411376953125,1.20269775390625,0.495513916015625
1780625921227339000,10.336339111328124,0.259796142578125,1.137786865234375,0.354217529296875
1780625921237334000,10.346333984375,0.2074432373046875,1.09307861328125,0.1016693115234375
1780625921247329000,10.3563291015625,0.388641357421875,1.1156158447265625,-0.107147216796875
1780625921257324300,10.36632421875,0.67303466796875,1.1739044189453125,-0.198486328125
1780625921267319300,10.3763193359375,0.8380126953125,1.2205963134765625,-0.1785736083984375
1780625921277314300,10.386314208984375,0.75738525390625,1.223419189453125,-0.0999908447265625
1780625921287309000,10.39630908203125,0.582000732421875,1.1993560791015625,-0.05078125
1780625921297305000,10.40630517578125,0.50360107421875,1.147552490234375,-0.0511932373046875
1780625921307300000,10.416300048828125,0.54681396484375,1.0953521728515625,-0.06732177734375
1780625921317295000,10.426295166015626,0.626312255859375,1.03912353515625,-0.1451568603515625
1780625921327290000,10.4362900390625,0.570556640625,0.9878387451171875,-0.244873046875
1780625921337285000,10.44628515625,0.343994140625,0.9633941650390625,-0.28704833984375
1780625921347280100,10.456280029296876,0.073150634765625,0.9557037353515625,-0.2382659912109375
1780625921357275100,10.466275146484374,-0.005615234375,0.909088134765625,-0.1336669921875
1780625921367270000,10.476269775390625,0.158203125,0.808685302734375,0.003387451171875
1780625921377265200,10.48626513671875,0.3260345458984375,0.6940765380859375,0.1693115234375
1780625921387260200,10.49626025390625,0.3251190185546875,0.558074951171875,0.260406494140625
1780625921397255200,10.506255126953125,0.218292236328125,0.3946990966796875,0.2780914306640625
1780625921407250200,10.516250244140625,0.0953216552734375,0.238494873046875,0.2805938720703125
1780625921417245200,10.5262451171875,0.00408935546875,0.1113433837890625,0.26068115234375
1780625921427240200,10.536240234375,-0.058197021484375,0.010650634765625,0.2264404296875
1780625921437235200,10.546235107421875,-0.095123291015625,-0.0626220703125,0.180145263671875
1780625921447231000,10.55623095703125,-0.2019500732421875,-0.1457366943359375,0.0888824462890625
1780625921457226000,10.56622607421875,-0.2572784423828125,-0.253662109375,-0.03106689453125
1780625921467221000,10.576220947265625,-0.1928863525390625,-0.3293609619140625,-0.115570068359375
1780625921477216000,10.586216064453126,-0.03485107421875,-0.3180389404296875,-0.17071533203125
1780625921487211000,10.5962109375,0.30560302734375,-0.239990234375,-0.2257232666015625
1780625921497206300,10.606206298828125,0.4571380615234375,-0.1046905517578125,-0.159820556640625
1780625921507201300,10.616201171875,0.2935333251953125,-0.0740814208984375,-0.069061279296875
1780625921517196300,10.6261962890625,0.5365142822265625,-0.076171875,-0.03192138671875
1780625921527191000,10.63619091796875,1.3308868408203125,0.273773193359375,-0.0455780029296875
1780625921537186000,10.64618603515625,0.8507232666015625,0.8082427978515625,-0.141845703125
1780625921547181000,10.65618115234375,0.2767486572265625,1.2101898193359375,-0.03759765625
1780625921557176000,10.666176025390625,0.8101348876953125,1.46063232421875,-0.2032012939453125
1780625921567171000,10.676171142578125,0.73077392578125,1.5028228759765625,-0.5363311767578125
1780625921577166000,10.686166015625,0.3790435791015625,1.3673095703125,-0.6934661865234375
1780625921587162000,10.696162109375,0.557708740234375,1.1519775390625,-0.906707763671875
1780625921597157000,10.7061572265625,0.8319854736328125,1.094085693359375,-0.8722686767578125
1780625921607151900,10.71615185546875,0.66033935546875,1.062835693359375,-0.6396484375
1780625921617147100,10.726147216796875,0.6153106689453125,0.9850921630859375,-0.6103363037109375
1780625921627142100,10.73614208984375,0.69488525390625,1.0108642578125,-0.602813720703125
1780625921637137200,10.74613720703125,0.7085723876953125,1.08135986328125,-0.5826873779296875
1780625921647132200,10.756132080078125,0.66900634765625,1.0981597900390625,-0.6262969970703125
1780625921657127200,10.766127197265625,0.6147613525390625,1.0365753173828125,-0.6602020263671875
1780625921667122200,10.7761220703125,0.56488037109375,0.91552734375,-0.6631622314453125
1780625921677117200,10.7861171875,0.6405029296875,0.7900238037109375,-0.656158447265625
1780625921687112200,10.7961123046875,0.7079620361328125,0.693634033203125,-0.6062469482421875
1780625921697107200,10.806107177734376,0.701751708984375,0.60498046875,-0.5838775634765625
1780625921707102000,10.81610205078125,0.617706298828125,0.588623046875,-0.597564697265625
1780625921717097000,10.826096923828125,0.4383544921875,0.6225128173828125,-0.59735107421875
1780625921727092000,10.836092041015625,0.3508453369140625,0.631256103515625,-0.59222412109375
1780625921737088300,10.846088134765624,0.2011260986328125,0.576904296875,-0.496124267578125
1780625921747083300,10.856083251953125,0.1445770263671875,0.46258544921875,-0.487213134765625
1780625921757078300,10.866078369140626,0.2252349853515625,0.3710174560546875,-0.474639892578125
1780625921767073300,10.8760732421875,0.19598388671875,0.303070068359375,-0.4586029052734375
1780625921777068300,10.886068359375,0.339599609375,0.27545166015625,-0.5214385986328125
1780625921787063300,10.896063232421875,0.466156005859375,0.368988037109375,-0.4809112548828125
1780625921797058300,10.906058349609374,0.5163421630859375,0.5092926025390625,-0.5307464599609375
1780625921807053300,10.91605322265625,0.4492034912109375,0.5985107421875,-0.5529937744140625
1780625921817048300,10.92604833984375,0.2834625244140625,0.5437164306640625,-0.5356597900390625
1780625921827043300,10.936043212890626,0.368499755859375,0.4651336669921875,-0.5498199462890625
1780625921837038300,10.946038330078125,0.3585662841796875,0.4763641357421875,-0.5589752197265625
1780625921847033300,10.956033447265625,0.6534423828125,0.5540771484375,-0.6058197021484375
1780625921857028400,10.9660283203125,0.739990234375,0.774139404296875,-0.4420318603515625
1780625921867023000,10.976023193359374,0.522857666015625,0.91162109375,-0.4225921630859375
1780625921877018000,10.98601806640625,0.461578369140625,0.950042724609375,-0.5743255615234375
1780625921887013000,10.99601318359375,0.333953857421875,0.935028076171875,-0.743988037109375
1780625921897009400,11.006009521484375,0.392578125,0.8753814697265625,-1.001251220703125
1780625921907004400,11.01600439453125,0.573883056640625,0.83465576171875,-1.1937103271484375
1780625921916999400,11.02599951171875,0.6312103271484375,0.8545989990234375,-1.2259674072265625
1780625921926994400,11.035994384765624,0.7877044677734375,0.9048309326171875,-1.3870391845703125
1780625921936989200,11.0459892578125,1.0084686279296875,1.0069580078125,-1.483856201171875
1780625921946984200,11.055984130859375,1.0751190185546875,1.18511962890625,-1.43115234375
1780625921956979200,11.065979248046874,1.228668212890625,1.36785888671875,-1.405426025390625
1780625921966974200,11.07597412109375,1.3254547119140625,1.4765167236328125,-1.391357421875
1780625921976969200,11.08596923828125,1.1693878173828125,1.4342803955078125,-1.35870361328125
1780625921986964200,11.095964111328126,0.857879638671875,1.2429351806640625,-1.314727783203125
1780625921996959200,11.105959228515625,0.6709136962890625,0.960296630859375,-1.2095947265625
1780625922006954200,11.115954345703125,0.5742034912109375,0.6755523681640625,-0.903076171875
1780625922016949200,11.12594921875,0.379302978515625,0.4223175048828125,-0.4666595458984375
1780625922026944300,11.1359443359375,0.2758636474609375,0.184906005859375,-0.18206787109375
1780625922036939300,11.145939208984375,0.2089691162109375,-0.0057373046875,-0.09161376953125
1780625922046935300,11.155935302734376,0.0484771728515625,-0.1366729736328125,-0.173614501953125
1780625922056930300,11.165930419921875,-0.06915283203125,-0.1247711181640625,-0.295440673828125
1780625922066925300,11.17592529296875,0.0934906005859375,0.0610198974609375,-0.389923095703125
1780625922076920300,11.18592041015625,0.3624420166015625,0.223388671875,-0.49163818359375
1780625922086915300,11.195915283203124,0.4559173583984375,0.24285888671875,-0.613555908203125
1780625922096910300,11.205910400390625,0.513702392578125,0.180023193359375,-0.71600341796875
1780625922106905300,11.2159052734375,0.5320281982421875,0.1248931884765625,-0.6833648681640625
1780625922116900000,11.225900146484374,0.462432861328125,0.08807373046875,-0.5539703369140625
1780625922126895000,11.23589501953125,0.2700958251953125,0.0225677490234375,-0.55712890625
1780625922136890000,11.24589013671875,0.222930908203125,-0.024627685546875,-0.6082916259765625
1780625922146885000,11.255885009765626,0.3332672119140625,0.009368896484375,-0.63311767578125
1780625922156880400,11.26588037109375,0.5407257080078125,0.096527099609375,-0.6846466064453125
1780625922166875400,11.27587548828125,0.8470306396484375,0.1610107421875,-0.63201904296875
1780625922176870400,11.285870361328126,0.7460479736328125,0.1404571533203125,-0.59649658203125
1780625922186865400,11.295865478515625,0.5074920654296875,0.066192626953125,-0.6021728515625
1780625922196861200,11.305861083984375,0.4433746337890625,0.0420379638671875,-0.6735382080078125
1780625922206856200,11.315856201171876,0.7171783447265625,0.1443328857421875,-0.6284332275390625
1780625922216851200,11.325851318359375,0.8786163330078125,0.303070068359375,-0.530487060546875
1780625922226846200,11.33584619140625,0.7328338623046875,0.3577117919921875,-0.576263427734375
1780625922236841200,11.34584130859375,0.4942474365234375,0.295684814453125,-0.6395416259765625
1780625922246836200,11.355836181640624,0.246337890625,0.1831817626953125,-0.6468963623046875
1780625922256831200,11.365831298828125,0.2580718994140625,0.0865631103515625,-0.5058135986328125
1780625922266826200,11.375826171875,0.343963623046875,0.03411865234375,-0.343902587890625
1780625922276821200,11.3858212890625,0.3386077880859375,0.0043792724609375,-0.20684814453125
1780625922286816300,11.395816162109375,0.3079376220703125,-0.0121002197265625,-0.184600830078125
1780625922296811300,11.405811279296875,0.41790771484375,0.0232391357421875,-0.2162322998046875
1780625922306806300,11.41580615234375,0.4048614501953125,0.03851318359375,-0.33447265625
1780625922316801300,11.42580126953125,0.2786407470703125,0.0124053955078125,-0.566802978515625
1780625922326796300,11.43579638671875,0.25189208984375,0.0153961181640625,-0.551544189453125
1780625922336791300,11.445791259765626,0.14013671875,0.0352020263671875,-0.4544525146484375
1780625922346786300,11.455786376953125,0.2430877685546875,0.022735595703125,-0.4291229248046875
1780625922356782000,11.465781982421875,0.6293182373046875,0.040008544921875,-0.3250579833984375
1780625922366777000,11.475777099609376,0.72283935546875,0.0887451171875,-0.2952423095703125
1780625922376772000,11.485772216796875,0.48486328125,0.1217193603515625,-0.4521331787109375
1780625922386767000,11.49576708984375,0.347564697265625,0.1552276611328125,-0.6121063232421875
1780625922396762400,11.505762451171876,0.5138397216796875,0.20721435546875,-0.779388427734375
1780625922406757400,11.51575732421875,0.85089111328125,0.338104248046875,-0.9112701416015625
1780625922416752400,11.52575244140625,1.0748748779296875,0.509429931640625,-0.96331787109375
1780625922426747400,11.535747314453126,1.0441131591796875,0.5268096923828125,-1.0454559326171875
1780625922436742400,11.545742431640624,0.817626953125,0.357666015625,-1.0922393798828125
1780625922446737400,11.5557373046875,0.6104736328125,0.1173858642578125,-1.0998077392578125
1780625922456732200,11.565732177734375,0.5555419921875,-0.035614013671875,-1.057403564453125
1780625922466727200,11.57572705078125,0.69879150390625,-0.0642242431640625,-0.9951324462890625
1780625922476722200,11.58572216796875,0.9119110107421875,0.051177978515625,-0.8933563232421875
1780625922486717200,11.59571728515625,0.9273834228515625,0.20269775390625,-0.8359222412109375
1780625922496712200,11.605712158203126,0.719024658203125,0.2139739990234375,-0.9251556396484375
1780625922506708500,11.61570849609375,0.427398681640625,0.11895751953125,-1.071533203125
1780625922516703500,11.625703369140625,0.2595367431640625,0.00390625,-1.049774169921875
1780625922526698200,11.6356982421875,0.3755950927734375,-0.1194610595703125,-0.776885986328125
1780625922536693200,11.645693359375,0.60662841796875,-0.1644439697265625,-0.3792877197265625
1780625922546688300,11.655688232421875,0.6362457275390625,-0.0877227783203125,-0.1717376708984375
1780625922556683300,11.665683349609376,0.32684326171875,-0.0218353271484375,-0.3579864501953125
1780625922566678300,11.67567822265625,0.1782989501953125,-0.0780792236328125,-0.797027587890625
1780625922576673300,11.68567333984375,0.318817138671875,-0.1912384033203125,-1.0269927978515625
1780625922586668300,11.695668212890626,0.4779815673828125,-0.258941650390625,-1.0340728759765625
1780625922596663300,11.705663330078124,0.5376434326171875,-0.2342529296875,-0.9109954833984375
1780625922606658300,11.715658203125,0.4936981201171875,-0.11260986328125,-0.7317047119140625
1780625922616653300,11.7256533203125,0.569580078125,0.0190277099609375,-0.559814453125
1780625922626648000,11.73564794921875,0.5340728759765625,0.0938873291015625,-0.46722412109375
1780625922636643000,11.74564306640625,0.3927459716796875,0.0898590087890625,-0.6828765869140625
1780625922646638000,11.75563818359375,0.5010986328125,0.0234832763671875,-0.9884796142578125
1780625922656634400,11.76563427734375,0.6396484375,-0.0767364501953125,-1.199920654296875
1780625922666629400,11.77562939453125,0.6585693359375,-0.13299560546875,-1.251983642578125
1780625922676624400,11.785624267578125,0.633209228515625,-0.1569061279296875,-1.17236328125
1780625922686619400,11.795619384765626,0.614990234375,-0.1431427001953125,-1.0533447265625
1780625922696614100,11.8056142578125,0.4994659423828125,-0.1029205322265625,-0.97943115234375
1780625922706609200,11.815609130859375,0.4687347412109375,-0.080780029296875,-0.9821624755859375
1780625922716604200,11.825604248046876,0.4466552734375,-0.0764923095703125,-1.097930908203125
1780625922726599200,11.83559912109375,0.4944610595703125,-0.1085205078125,-1.3311920166015625
1780625922736594200,11.84559423828125,0.6490325927734375,-0.1329803466796875,-1.4324188232421875
1780625922746589200,11.855589111328126,0.663330078125,-0.118438720703125,-1.327423095703125
1780625922756584400,11.86558447265625,0.565185546875,-0.1154632568359375,-1.1936798095703125
1780625922766579500,11.875579345703125,0.4579315185546875,-0.1085205078125,-1.057525634765625
1780625922776574500,11.885574462890625,0.309295654296875,-0.1331024169921875,-0.954437255859375
1780625922786569500,11.895569580078124,0.19146728515625,-0.204742431640625,-0.947967529296875
1780625922796564200,11.905564208984375,0.2216949462890625,-0.28985595703125,-1.002838134765625
1780625922806559200,11.915559326171875,0.3084716796875,-0.361053466796875,-1.0955047607421875
1780625922816554200,11.92555419921875,0.372528076171875,-0.3876190185546875,-1.148468017578125
1780625922826550500,11.935550537109375,0.3736724853515625,-0.374298095703125,-1.1040802001953125
1780625922836545500,11.945545654296875,0.242034912109375,-0.360992431640625,-1.0497894287109375
1780625922846540500,11.95554052734375,0.07830810546875,-0.3383636474609375,-1.007568359375
1780625922856535600,11.96553564453125,0.0123291015625,-0.29949951171875,-0.9229583740234375
1780625922866530300,11.9755302734375,0.0705718994140625,-0.2906341552734375,-0.8953704833984375
1780625922876525300,11.985525390625,0.2928924560546875,-0.3277130126953125,-0.933746337890625
1780625922886520300,11.995520263671875,0.4758148193359375,-0.343170166015625,-1.008819580078125
1780625922896515300,12.005515380859375,0.4341278076171875,-0.326416015625,-1.1152496337890625
1780625922906510300,12.01551025390625,0.3254241943359375,-0.3079376220703125,-1.142791748046875
1780625922916505300,12.02550537109375,0.2834625244140625,-0.286346435546875,-1.0440673828125
1780625922926500400,12.035500244140625,0.231353759765625,-0.3007659912109375,-0.974029541015625
1780625922936495400,12.045495361328125,0.2496337890625,-0.3590240478515625,-0.9398040771484375
1780625922946490400,12.055490478515624,0.2899169921875,-0.3994293212890625,-0.939544677734375
1780625922956485600,12.065485595703125,0.232666015625,-0.377471923828125,-0.9557952880859375
1780625922966480400,12.07548046875,0.2471466064453125,-0.3402252197265625,-0.907989501953125
1780625922976475400,12.085475341796876,0.2700653076171875,-0.331451416015625,-0.85955810546875
1780625922986471400,12.095471435546875,0.1951446533203125,-0.3563079833984375,-0.8874359130859375
1780625922996466400,12.105466552734375,0.1676788330078125,-0.4106903076171875,-0.96954345703125
1780625923006461400,12.11546142578125,0.2227630615234375,-0.457611083984375,-1.0270538330078125
1780625923016456400,12.12545654296875,0.216461181640625,-0.46295166015625,-1.0104827880859375
1780625923026451500,12.135451416015625,0.1125030517578125,-0.4772186279296875,-0.9368133544921875
1780625923036446200,12.1454462890625,0.029693603515625,-0.541656494140625,-0.8822021484375
1780625923046441200,12.155441162109375,0.0376739501953125,-0.57330322265625,-0.8745574951171875
1780625923056436200,12.165436279296875,0.0807342529296875,-0.5003204345703125,-0.8628387451171875
1780625923066431200,12.17543115234375,0.1457977294921875,-0.3909912109375,-0.80426025390625
1780625923076426500,12.185426513671874,0.237640380859375,-0.3173675537109375,-0.7773284912109375
1780625923086421500,12.19542138671875,0.2888946533203125,-0.2487335205078125,-0.8483123779296875
1780625923096416500,12.20541650390625,0.236358642578125,-0.181304931640625,-0.936614990234375
1780625923106411500,12.21541162109375,0.2427215576171875,-0.1440582275390625,-0.951904296875
1780625923116406500,12.225406494140625,0.2779083251953125,-0.12908935546875,-0.9102935791015625
1780625923126401500,12.235401611328125,0.22393798828125,-0.1318206787109375,-0.826812744140625
1780625923136396300,12.245396240234374,0.184844970703125,-0.187408447265625,-0.7531890869140625
1780625923146392300,12.255392333984375,0.15716552734375,-0.2912445068359375,-0.75531005859375
1780625923156387300,12.26538720703125,0.0941162109375,-0.358673095703125,-0.787384033203125
1780625923166382300,12.27538232421875,0.09637451171875,-0.37872314453125,-0.8231353759765625
1780625923176377300,12.28537744140625,0.16778564453125,-0.3678131103515625,-0.8813934326171875
1780625923186372400,12.295372314453125,0.27056884765625,-0.3289947509765625,-0.938323974609375
1780625923196367600,12.30536767578125,0.329437255859375,-0.2543792724609375,-0.95465087890625
1780625923206362400,12.3153623046875,0.2368621826171875,-0.1877288818359375,-0.9446868896484375
1780625923216357400,12.325357421875,0.1526031494140625,-0.18792724609375,-0.9605255126953125
1780625923226352400,12.335352294921876,0.1473388671875,-0.2408294677734375,-0.96173095703125
1780625923236347400,12.345347412109374,0.23077392578125,-0.3153533935546875,-0.9403839111328125
1780625923246342400,12.35534228515625,0.3170166015625,-0.3543548583984375,-0.9341278076171875
1780625923256337400,12.36533740234375,0.3519134521484375,-0.3314361572265625,-0.9678955078125
1780625923266332400,12.37533251953125,0.309051513671875,-0.29193115234375,-1.0348052978515625
1780625923276327400,12.385327392578125,0.2067413330078125,-0.2562103271484375,-1.063720703125
1780625923286322400,12.395322509765625,0.1507415771484375,-0.2421417236328125,-1.062164306640625
1780625923296317400,12.4053173828125,0.0790252685546875,-0.2817535400390625,-1.0554656982421875
1780625923306312400,12.4153125,-0.0469512939453125,-0.3487396240234375,-1.042724609375
1780625923316308500,12.42530859375,-0.1192626953125,-0.43731689453125,-1.052215576171875
1780625923326303500,12.435303466796874,-0.1465911865234375,-0.492279052734375,-1.0790557861328125
1780625923336298500,12.445298583984375,-0.0837554931640625,-0.5285186767578125,-1.123443603515625
1780625923346293500,12.45529345703125,0.053802490234375,-0.5165252685546875,-1.129913330078125
1780625923356288500,12.46528857421875,0.0983123779296875,-0.4361114501953125,-1.0536041259765625
1780625923366283500,12.475283447265625,-0.02459716796875,-0.4250030517578125,-0.9196319580078125
1780625923376278500,12.485278564453125,-0.221221923828125,-0.4734954833984375,-0.815673828125
1780625923386273300,12.495273193359376,-0.352874755859375,-0.5158233642578125,-0.8112640380859375
1780625923396268300,12.505268310546874,-0.3611907958984375,-0.5644683837890625,-0.8755035400390625
1780625923406263300,12.51526318359375,-0.2164459228515625,-0.5872650146484375,-0.958221435546875
1780625923416258300,12.52525830078125,-0.0411376953125,-0.571136474609375,-1.009368896484375
1780625923426253300,12.53525341796875,-0.024505615234375,-0.5430450439453125,-1.0194091796875
1780625923436248300,12.545248291015625,-0.0863800048828125,-0.5146026611328125,-1.0062103271484375
1780625923446243300,12.555243408203125,-0.1295928955078125,-0.5046234130859375,-0.9637298583984375
1780625923456238600,12.565238525390624,-0.09942626953125,-0.501861572265625,-0.866790771484375
1780625923466233600,12.575233642578125,-0.040924072265625,-0.490570068359375,-0.77410888671875
1780625923476229400,12.5852294921875,0.0164031982421875,-0.4700927734375,-0.7408294677734375
1780625923486224400,12.595224365234374,0.0884246826171875,-0.4560089111328125,-0.807525634765625
1780625923496219400,12.605219482421875,0.1066436767578125,-0.4249114990234375,-0.90728759765625
1780625923506214400,12.61521435546875,0.09454345703125,-0.3778533935546875,-0.9438934326171875
1780625923516209400,12.62520947265625,0.1111907958984375,-0.3631744384765625,-0.9268951416015625
1780625923526204400,12.635204345703125,0.0271148681640625,-0.3731842041015625,-0.88671875
1780625923536199400,12.645199462890625,-0.1054229736328125,-0.4252166748046875,-0.9066162109375
1780625923546194400,12.6551943359375,-0.186767578125,-0.4972686767578125,-0.9701995849609375
1780625923556189200,12.665189208984375,-0.1769256591796875,-0.5182952880859375,-1.017120361328125
1780625923566184200,12.67518408203125,-0.10284423828125,-0.491607666015625,-1.03179931640625
1780625923576179500,12.685179443359376,-0.03302001953125,-0.4174957275390625,-1.0142822265625
1780625923586174500,12.695174560546874,0.05126953125,-0.3618621826171875,-1.0185394287109375
1780625923596169500,12.70516943359375,0.0596160888671875,-0.3253173828125,-1.0021514892578125
1780625923606164500,12.71516455078125,-0.0340118408203125,-0.36395263671875,-0.98492431640625
1780625923616159500,12.725159423828124,-0.160125732421875,-0.444122314453125,-0.9468841552734375
1780625923626154500,12.735154541015625,-0.2000885009765625,-0.530975341796875,-0.900970458984375
1780625923636149500,12.7451494140625,-0.1834869384765625,-0.5770416259765625,-0.8590850830078125
1780625923646145300,12.755145263671874,-0.1497802734375,-0.555328369140625,-0.848876953125
1780625923656140300,12.765140380859375,-0.088958740234375,-0.4909515380859375,-0.88653564453125
1780625923666135300,12.77513525390625,-0.032318115234375,-0.4134521484375,-0.9266357421875
1780625923676130300,12.78513037109375,-0.08123779296875,-0.3866424560546875,-0.9163665771484375
1780625923686125300,12.795125244140625,-0.126800537109375,-0.459442138671875,-0.9150848388671875
1780625923696120600,12.80512060546875,-0.156646728515625,-0.5408172607421875,-0.9230499267578125
1780625923706115600,12.815115478515626,-0.209014892578125,-0.585357666015625,-0.91351318359375
1780625923716110600,12.825110595703125,-0.2096099853515625,-0.587432861328125,-0.8920135498046875
1780625923726105300,12.835105224609375,-0.1673126220703125,-0.5572967529296875,-0.865203857421875
1780625923736100400,12.845100341796876,-0.118927001953125,-0.505859375,-0.8054962158203125
1780625923746095400,12.855095458984374,-0.11700439453125,-0.47906494140625,-0.7363128662109375
1780625923756090600,12.865090576171875,-0.123321533203125,-0.49066162109375,-0.7170257568359375
1780625923766085600,12.875085693359376,-0.0738372802734375,-0.5064849853515625,-0.7100830078125
1780625923776080600,12.88508056640625,-0.022369384765625,-0.5154876708984375,-0.7061004638671875
1780625923786075600,12.89507568359375,0.039520263671875,-0.500640869140625,-0.7180633544921875
1780625923796070700,12.905070556640625,0.06097412109375,-0.4630889892578125,-0.7291107177734375
1780625923806065700,12.915065673828124,0.029388427734375,-0.4139404296875,-0.7498626708984375
1780625923816061400,12.9250615234375,-0.0218963623046875,-0.3778839111328125,-0.7960968017578125
1780625923826056700,12.935056640625,-0.052581787109375,-0.37451171875,-0.8463134765625
1780625923836051700,12.9450517578125,-0.017181396484375,-0.4060821533203125,-0.8851470947265625
1780625923846046700,12.955046630859375,0.0617218017578125,-0.46490478515625,-0.909332275390625
1780625923856041700,12.965041748046875,0.0908660888671875,-0.5023040771484375,-0.9149322509765625
1780625923866036700,12.97503662109375,0.060150146484375,-0.4974517822265625,-0.88653564453125
1780625923876031700,12.98503173828125,0.0209503173828125,-0.4808349609375,-0.8717041015625
1780625923886026500,12.995026611328125,0.028839111328125,-0.467559814453125,-0.89813232421875
1780625923896021500,13.005021484375,0.12603759765625,-0.453399658203125,-0.9430389404296875
1780625923906016500,13.0150166015625,0.2691192626953125,-0.4307861328125,-0.9635162353515625
1780625923916011500,13.025011474609375,0.329742431640625,-0.428070068359375,-0.950439453125
1780625923926006500,13.035006591796876,0.27484130859375,-0.4525299072265625,-0.92108154296875
1780625923936001500,13.04500146484375,0.190887451171875,-0.495635986328125,-0.8942413330078125
1780625923945996500,13.05499658203125,0.1573333740234375,-0.5466461181640625,-0.889739990234375
