time,seconds_elapsed,z,y,x
1780625910957413400,0.066413330078125,0.7307569915264844,0.24730010561048982,-0.21488222934752702
1780625910967408400,0.076408447265625,0.8949217178106308,0.03114244949966669,0.35144488215260206
1780625910977403400,0.0864033203125,1.0799264030277729,0.06605448066592216,0.8754778894111513
1780625910987398400,0.0963984375,1.0018412928283214,0.5573688020840287,1.3611404686778783
1780625910997393400,0.106393310546875,0.3377572061270475,1.7695368529126048,1.810960896321386
1780625911007388700,0.116388671875,-0.5161930343478918,3.2925735184207556,2.4498186256989833
1780625911017383700,0.1263837890625,-0.6220978793650865,2.2530007530912757,2.26866798556149
1780625911027378400,0.13637841796875,0.6214525671988725,1.0142270194098353,1.482377615122497
1780625911037373400,0.14637353515625,1.9030431138217447,1.4458175244882703,0.8959118978917598
1780625911047369500,0.156369384765625,1.4155530268669128,0.41758126894831654,0.6502127246718853
1780625911057364500,0.166364501953125,1.227496552863717,-0.06782032129466534,0.4882855481814593
1780625911067359500,0.176359375,0.8382517360836267,-0.1455672855809331,0.28704699132097883
1780625911077354500,0.1863544921875,0.7887988461285829,-0.3161298962086439,0.16253391021192073
1780625911087349500,0.196349609375,0.5361334140926599,-0.15667700087726116,0.10697433741223067
1780625911097344500,0.206344482421875,-0.6181827517479658,0.5626990571960806,-0.09136290851617232
1780625911107339300,0.21633935546875,-1.796463146021962,1.5081906862929462,-0.15667736620344222
1780625911117334300,0.226334228515625,-2.1982558942079544,2.026120627436042,-0.03253876269627362
1780625911127329500,0.23632958984375,-1.92806181974411,1.9580308415502308,0.11905172869693487
1780625911137324500,0.246324462890625,-0.6966746891826391,1.5455112399056552,-0.06951667688377201
1780625911147319600,0.256319580078125,0.08452361881434917,1.006728188087046,-0.3432703435253352
1780625911157314600,0.266314453125,0.23580197551846502,0.08307605035454034,-0.5931947332248091
1780625911167309600,0.2763095703125,0.24473756164610386,-1.566131418608129,-0.47117301227375863
1780625911177304600,0.2863046875,0.4030377798110246,-3.00167129471004,-0.2056234026148915
1780625911187299600,0.296299560546875,0.8160475030601024,-3.517147412960231,0.02903312919549644
1780625911197294600,0.306294677734375,2.100731339523196,-1.4427157590806483,0.6749630619816481
1780625911207289300,0.316289306640625,2.0984189709275958,0.11015665724277496,0.75662354644984
1780625911217285400,0.326285400390625,1.3040268348366022,0.8778133466213941,0.8231644954584538
1780625911227280400,0.3362802734375,0.15241232917010783,0.9634688920751213,0.8616779121175407
1780625911237275400,0.346275390625,-0.5249006569385528,0.6251382699742913,0.7945316906921565
1780625911247270700,0.356270751953125,-1.1443699413657187,0.3466965916469693,0.2785505455292761
1780625911257265700,0.366265625,-1.2834452345788478,0.12541092499792575,-0.4940072868291288
1780625911267260700,0.3762607421875,-0.7111024429857731,0.04354980339109897,-1.1030935627993195
1780625911277255400,0.38625537109375,0.034949732828140255,-0.22493396002352237,-1.1724401438131928
1780625911287250400,0.39625048828125,0.5381359860867262,-0.5260127098336815,-0.8041766671981662
1780625911297245400,0.406245361328125,0.48184769715368747,-0.622634178198874,-0.2957856118381023
1780625911307240400,0.416240478515625,-0.45757367211878297,-0.7372875623390078,-0.11709288624674082
1780625911317235500,0.4262353515625,-1.1227601671040057,0.3988330215975642,1.0569084424685686
1780625911327230500,0.43623046875,-1.3350263687342405,1.6445821472495794,2.0634844356685877
1780625911337225500,0.4462255859375,-0.6415799939483404,1.0942740773320196,0.22159758214242756
1780625911347220500,0.456220458984375,0.4391033649265766,1.1725082406133414,0.28504173417948186
1780625911357215500,0.466215576171875,0.6430418831944466,1.0639455745637416,-1.1706256417371332
1780625911367210500,0.47621044921875,-0.5849176110059022,0.392591204598546,-0.9582461889907717
1780625911377205200,0.486205322265625,-0.6075847853660583,1.3982576086729763,0.598037679743953
1780625911387201500,0.496201416015625,0.5930021332621574,0.7483636676266789,-0.351159635470435
1780625911397196500,0.506196533203125,1.1242121194779873,0.3314417393699288,0.07168156330008059
1780625911407191600,0.516191650390625,1.1502408792257308,-0.6327095820114016,-0.5837417356269434
1780625911417186600,0.5261865234375,0.855282365861535,-2.4647739105075597,-0.9613282267846166
1780625911427181600,0.536181640625,0.029660394248366355,-2.781213895578682,-1.0663788661252707
1780625911437176600,0.546176513671875,-1.4144810137212276,-1.175418282841146,-1.7134983009569347
1780625911447171300,0.55617138671875,-3.273611336058378,-0.9428902144268154,-1.685803215432167
1780625911457166300,0.566166259765625,-3.3087522075444458,-0.11274842730164528,-0.7845396543141454
1780625911467161300,0.576161376953125,-1.8857389277994632,0.3981175668045878,-0.9397139955434948
1780625911477156400,0.58615625,-1.0116524927467108,0.6266933904618024,-0.4799598010478541
1780625911487151400,0.5961513671875,-0.2724854002714157,0.6606444676414132,0.2667591315791011
1780625911497146400,0.606146484375,1.0589759694576262,0.7683560698196291,0.1520522636860609
1780625911507141600,0.6161416015625,1.9332599729090927,0.45900896561890836,-0.43796508161164815
1780625911517136600,0.62613671875,2.216313528946042,0.4464996126577258,-0.30687888745628294
1780625911527131600,0.636131591796875,1.7315186724245548,0.6521741609379649,-0.5902363948758691
1780625911537126700,0.646126708984375,0.8600029646426439,0.9508943649232386,-0.4414628605995327
1780625911547121400,0.656121337890625,0.4079845885634422,0.7141396187245845,-0.23964425709508358
1780625911557117400,0.666117431640625,0.5673410377830267,0.5809846554711461,-0.08122187385521829
1780625911567112400,0.676112548828125,1.4692787718355655,0.19130641570985316,0.3206630461262539
1780625911577107500,0.686107421875,2.7115461928516624,-0.4694672312691808,0.5655879105053842
1780625911587102500,0.6961025390625,3.829502759066224,-0.3507642794772982,0.1804983502412215
1780625911597097500,0.706097412109375,3.566559094122052,0.36755233267098664,0.02250732588963583
1780625911607092500,0.716092529296875,2.892332968112826,0.9891966230496764,0.23209807949922978
1780625911617087500,0.72608740234375,2.841478979188204,1.4518889533564447,-0.25069141028290615
1780625911627082500,0.73608251953125,3.0942221526354547,3.8255508065700528,-6.341655675864219
1780625911637077500,0.746077392578125,3.339014659339189,3.2764132417365905,-4.20181193087548
1780625911647072500,0.756072509765625,1.208399053683877,2.3439590811282396,0.8174018402785063
1780625911657067500,0.766067626953125,0.7211229017406702,3.35543475600332,-1.954771401362866
1780625911667062500,0.7760625,-0.34956688638627526,2.6897052401825783,-2.9251646858736873
1780625911677057500,0.7860576171875,0.06496434734165668,1.2425550057858228,-2.8162361091211436
1780625911687052500,0.796052490234375,1.7473089467525482,0.32771395101845263,-2.3550514068983492
1780625911697047600,0.806047607421875,3.544010577705502,0.4014911348909139,-1.9543552217774092
1780625911707042600,0.81604248046875,3.9682559807181357,1.893816435793042,-1.5132194742403924
1780625911717037300,0.826037353515625,2.945976880016923,3.259960119585693,-0.55878392957896
1780625911727032300,0.8360322265625,2.1616209847718477,3.908541224467754,-0.16258388683348893
1780625911737028400,0.8460283203125,2.0610265211224554,3.701557931676507,-0.7001563938185572
1780625911747022600,0.856022705078125,1.467985224893689,3.7282840260386463,-0.7762102904513478
1780625911757017600,0.866017578125,0.8685551044106483,3.887318988218903,0.044915538786351676
1780625911767012600,0.8760126953125,0.8565700675845146,3.485090186703205,0.9810817056551575
1780625911777007600,0.886007568359375,0.3819032218456268,3.227612385949492,1.2652876465976237
1780625911787002600,0.896002685546875,0.6247673908352851,4.01267204554975,0.5447989511072635
1780625911796997600,0.90599755859375,1.304071843022108,4.557583224859833,-0.1776233427941799
1780625911806992600,0.91599267578125,1.9409891058564186,4.7460494487077,-0.24894144307672977
1780625911816987400,0.9259873046875,2.050426216652989,4.956750300717354,-0.16942074711620805
1780625911826982400,0.935982421875,1.8017524846017359,4.666578437107801,0.25516426311433316
1780625911836977400,0.945977294921875,1.520317469677329,4.334968063172698,1.1289707121819257
1780625911846972700,0.95597265625,1.4772446361482143,4.881713179911673,2.2822505207121373
1780625911856967700,0.9659677734375,1.5591694706410169,5.478348408979177,2.4425977345347403
1780625911866962700,0.975962646484375,0.8829869498670101,5.3854667116642,0.7218342648804187
1780625911876957700,0.985957763671875,-0.788231859895587,4.780124736788869,-1.811196604773402
1780625911886952700,0.99595263671875,-1.8952298097223041,3.839614987757802,-2.8809745387524366
1780625911896947700,1.00594775390625,-1.8291981254100798,2.601056650392711,-2.05760531450212
1780625911906942700,1.015942626953125,-1.4242225094042718,1.7480092039763926,-1.0176783289074898
1780625911916938500,1.0259384765625,-0.6471931576550006,2.015003021094203,-0.5339116463899612
1780625911926933500,1.03593359375,-0.16855375502333045,2.8208973789304492,-0.4814443770498037
1780625911936928500,1.045928466796875,-0.822111333143711,3.185801535180211,-0.8951888443142175
1780625911946923500,1.055923583984375,-2.5713351736068724,2.545000124388933,-2.0630729322582484
1780625911956918800,1.065918701171875,-4.4875557489097115,0.8064690889842808,-4.245225248405337
1780625911966913800,1.075913818359375,-5.833417399913072,-0.21248978125303983,-6.078789752331375
1780625911976908800,1.08590869140625,-5.64826307709217,-0.2851515512295067,-6.3260875198543065
1780625911986903600,1.095903564453125,-4.173894288641214,-0.356361661092937,-5.373174216324091
1780625911996898600,1.105898681640625,-2.5171312897324563,-0.974446797685325,-5.602582691413164
1780625912006893600,1.1158935546875,-1.6918752288222312,-2.5124513152226804,-7.5444719609797
1780625912016888600,1.125888671875,-1.9675100330352782,-3.7313890063166615,-9.803024795240162
1780625912026883600,1.135883544921875,-6.176504861152171,-4.049965711155534,-12.018286769306659
1780625912036878600,1.145878662109375,-8.714219504708051,-2.891975240716338,-11.606086608874797
1780625912046873600,1.15587353515625,-6.044038172423839,-1.092675409963727,-8.831771532899142
1780625912056868600,1.16586865234375,-2.439510289913416,-0.4592845676898956,-5.450784110227227
1780625912066863600,1.175863525390625,0.005087678527832031,-1.00520112465024,-4.934053315740823
1780625912076858600,1.185858642578125,0.16716390810012816,-2.6563892460361123,-7.0077797439605
1780625912086853600,1.195853515625,-1.038844962511584,-4.2209120604038235,-9.188789319813251
1780625912096848400,1.205848388671875,-1.300481709575653,-4.440536223581433,-9.511488073018192
1780625912106844700,1.2158447265625,-0.4253086117973551,-3.7637469690859318,-7.9278984468698495
1780625912116839700,1.225839599609375,0.7396621825158596,-3.408132619228959,-6.809246299606562
1780625912126834700,1.235834716796875,1.5510615675091743,-3.6495512655854223,-6.386434144267439
1780625912136829700,1.24582958984375,2.023690185418725,-3.529334986621141,-5.616289729726314
1780625912146824700,1.25582470703125,2.897833319094777,-2.9230981087327,-4.291579003301263
1780625912156819500,1.2658193359375,3.670781685140729,-2.2690058392137287,-2.7495827857792374
1780625912166814500,1.275814453125,4.049137443637847,-1.970231566953659,-1.7103525502771137
1780625912176809500,1.2858095703125,3.306435747295618,-2.173084628072381,-1.848810003852844
1780625912186804500,1.295804443359375,2.162253875847906,-2.391896305823326,-2.717819866293669
1780625912196799500,1.305799560546875,1.0278386345244943,-2.7377193295061586,-3.646051733031869
1780625912206794500,1.31579443359375,-0.3779255503863096,-2.8611183301597833,-4.581279157745838
1780625912216789500,1.32578955078125,-0.8793740200668573,-2.2424299669772387,-3.842670868197083
1780625912226784800,1.33578466796875,-0.9659043025285005,-1.5414391681611537,-2.511512280806899
1780625912236779800,1.34577978515625,-0.6669488284826278,-1.1242495288789272,-1.7144108857572078
1780625912246774800,1.35577490234375,-0.4745274372681975,-1.0954238318890333,-1.56503807041347
1780625912256769500,1.36576953125,-0.906119842042774,-1.5351766006350516,-1.7458295218497513
1780625912266764500,1.3757646484375,-1.2797469645828008,-1.4715341495469212,-1.6679185991734264
1780625912276759600,1.385759521484375,-1.5798644681453704,-1.047363273075223,-1.341950030517578
1780625912286754600,1.395754638671875,-1.5690560738831758,-0.8062433174043894,-1.2175345462977885
1780625912296750600,1.40575048828125,-0.8502168991655111,-0.77015435141325,-0.6499363188832998
1780625912306745600,1.41574560546875,-0.1897127167776227,-0.34250673874169585,0.2540513334363699
1780625912316740600,1.42574072265625,0.7633274280026554,0.11825783837288617,1.0636059673458338
1780625912326735600,1.435735595703125,1.9822274174347518,0.4308291653171181,1.9796903001725672
1780625912336730600,1.445730712890625,2.4920836499765513,0.33328970532417296,2.223658046489954
1780625912346725600,1.4557255859375,2.106490925963223,0.41530221810042856,2.5103619417279956
1780625912356720600,1.465720703125,1.0702739008024333,0.9885513108834624,2.4189590847939253
1780625912366715600,1.475715576171875,1.0069327707484363,1.5758865044251082,2.669189398637414
1780625912376710700,1.485710693359375,4.000303270103037,1.7496332980468867,3.980105408465862
1780625912386705700,1.49570556640625,6.820106131795049,1.0409183347195385,3.995020069003105
1780625912396700700,1.50570068359375,6.14055150423944,0.1213283318594098,2.544939918634295
1780625912406695700,1.51569580078125,3.991157256095111,0.30959260339438915,2.082420606806874
1780625912416690700,1.525690673828125,2.4347610495597123,0.6983128117784857,2.2534651557326315
1780625912426685700,1.535685791015625,2.138168212991953,0.7794111323192715,3.2867455429196357
1780625912436680400,1.545680419921875,2.4811677036866544,0.5465060472860932,4.381436968880892
1780625912446675500,1.555675537109375,2.3498580760389567,-0.1549525151722133,4.744886250147223
1780625912456670500,1.56567041015625,0.9918100204184651,-0.9851051159523427,3.603744038656354
1780625912466665500,1.57566552734375,-0.16200784051120282,-1.7598915110804139,1.820404578101635
1780625912476661800,1.585661865234375,-0.7775915156766772,-1.8174080266341566,0.5182324312210083
1780625912486656800,1.59565673828125,-0.4201370909109711,-1.0118804562836885,-0.3848445359945297
1780625912496651800,1.60565185546875,-0.16271949591189622,-0.3214497760571539,-0.7994114255577325
1780625912506646500,1.615646484375,-0.11625380507409572,0.1471058933250606,-0.958721113026142
1780625912516641500,1.6256416015625,0.07285305476486682,0.5446411301970482,-0.7530044791698456
1780625912526636500,1.635636474609375,0.18983897350579498,0.5933342878259719,-0.638479105323553
1780625912536631600,1.645631591796875,0.22058014872819184,0.2933564849950373,-0.9712631992131471
1780625912546626600,1.65562646484375,0.05094575886130333,0.1514614581860602,-1.180727787426114
1780625912556621600,1.66562158203125,0.6940291431099176,-0.124784755923599,-1.0234148267328738
1780625912566616600,1.675616455078125,1.0832423957079649,-0.11794424237906932,-0.47184302048981186
1780625912576611600,1.685611572265625,1.2360945776000618,-1.0490094328470527,-0.5047206232190132
1780625912586606600,1.695606689453125,1.9447575184792278,-3.051386342732608,-1.9126561608195303
1780625912596601600,1.7056015625,-1.8022908292621374,-0.4848175067447126,-1.7908955750226974
1780625912606596600,1.7155966796875,0.5397051350995898,0.7658245055153966,-0.41446635179817676
1780625912616591600,1.725591552734375,0.06078063191622495,-0.626213936381787,0.17706746247708796
1780625912626586600,1.735586669921875,-0.5114776962637901,1.0328042941078543,0.5418395167797804
1780625912636581600,1.74558154296875,0.16333996589779853,0.7471991538919508,0.5940519345760346
1780625912646576600,1.75557666015625,0.5937161267504095,0.22672172022312878,1.5779951671421526
1780625912656571600,1.765571533203125,0.6594920827358961,-0.16088818883150816,1.6730729131966828
1780625912666567700,1.775567626953125,0.05038841723948717,0.14874737692177295,2.500864045542478
1780625912676562400,1.7855625,-0.260125392653048,0.997245635601133,3.172922179862857
1780625912686557400,1.795557373046875,0.15226649095863104,1.9833942692570388,3.4452830769717693
1780625912696552400,1.805552490234375,0.10099281531721353,2.497222474169731,3.111420540195703
1780625912706547500,1.81554736328125,-0.9076303927361965,1.8638468294650314,1.5123077662229536
1780625912716542500,1.82554248046875,-0.9340200947508215,1.5355148926787077,-0.38562195010781286
1780625912726537700,1.835537841796875,0.2953770310372114,1.3422361539825796,-0.9211386936068534
1780625912736532700,1.84553271484375,1.151031445081532,0.7839313862226903,-0.15493921729922294
1780625912746528000,1.855528076171875,1.244738779565692,0.9673238139376044,0.3892325418204069
1780625912756523000,1.86552294921875,0.8757881244041025,1.160173659697175,0.989514310696721
1780625912766517800,1.875517822265625,0.2521329325944185,1.0499221637777985,0.9638327569514512
1780625912776512800,1.8855126953125,-0.35161885048002,1.0153403874792157,0.6766682584643363
1780625912786507800,1.8955078125,-1.0918979958504438,0.9725057466201483,-0.06884732625484466
1780625912796502800,1.905502685546875,-0.9212655348569154,0.9103791069224476,-0.5285135867387056
1780625912806497800,1.915497802734375,0.5936382392086088,0.7727347232952714,0.5769897406160831
1780625912816492800,1.925492919921875,1.3158242401361464,0.4886293201178312,1.081138116905093
1780625912826487800,1.93548779296875,0.5215934320867062,0.09814327110499144,-0.07919979344308375
1780625912836482800,1.94548291015625,-0.3572648935429752,-0.39529578738212584,-0.4731523495227098
1780625912846478800,1.955478759765625,-1.1698001506984232,-0.6929520153976977,-1.17450613643229
1780625912856473900,1.965473876953125,-0.738794167509675,-0.7680240613862872,-0.8227882094919681
1780625912866468900,1.97546875,0.353081031987071,-0.49114305650442835,0.12232172681093215
1780625912876463900,1.9854638671875,1.2099918758332728,0.05467033234238624,0.8107108182072639
1780625912886459000,1.995458984375,1.2440475824311374,0.035333763709664345,0.5192857396662235
1780625912896454000,2.005453857421875,-1.1991367198199032,-0.3392430607706308,0.10066402175426482
1780625912906449000,2.015448974609375,-2.5394413212180136,-0.9391767468616365,-1.7251029601633547
1780625912916444000,2.02544384765625,-2.2985510826498268,-1.1389192747443915,-3.443308562028408
1780625912926439000,2.03543896484375,-1.1620258634351193,-1.406855925670266,-3.5815111640602346
1780625912936434000,2.045433837890625,-0.30982626601979135,-0.9553656651183963,-2.396707505497336
1780625912946428700,2.0554287109375,0.4234156741902232,-0.06319850671291351,-0.9677946463197469
1780625912956423700,2.065423583984375,0.7972218065589666,-0.12849427796602247,-0.05633095903098583
1780625912966418700,2.075418701171875,0.7107385781094432,-0.47869040216654535,-0.3881611131966114
1780625912976414000,2.0854140625,0.20299232345893978,-0.7905047732636332,-1.022138815447688
1780625912986409000,2.095408935546875,-0.26124767468124627,-1.1731015303313732,-1.0424082810163497
1780625912996404000,2.105404052734375,0.12077288993373513,-1.0941437289506197,-1.1737854209423064
1780625913006399000,2.11539892578125,0.9668652565151452,-0.8501587392374873,-0.8266524837046861
1780625913016394000,2.12539404296875,0.9803228501118719,-0.6828966314598918,-0.3210305277317762
1780625913026389000,2.135388916015625,-0.07876607820093631,-0.510101439474523,-0.45819268079996106
1780625913036384800,2.145384765625,-0.557454872932285,-0.28994360781162976,-0.2537678403198719
1780625913046379800,2.1553798828125,-0.9666934070795774,-0.2991331687003374,-1.0533248118281364
1780625913056374800,2.165374755859375,-1.3641170002706349,-0.5309010663971304,-1.8674673580497503
1780625913066369800,2.175369873046875,-1.7981014147482812,-1.0271785631805659,-2.6645962256282565
1780625913076364800,2.18536474609375,-2.0274198734663424,-1.770601267273724,-3.448796638050675
1780625913086359800,2.19535986328125,-1.049019223588705,-1.4967594839572906,-2.851243417355418
1780625913096355000,2.20535498046875,-0.21517989711984992,-0.6232295137435198,-1.7160913861900566
1780625913106349800,2.215349853515625,-0.0402373178422451,0.08795037839263677,-0.9732295308500528
1780625913116344800,2.2253447265625,-0.07653130488619207,0.5709358474045991,-0.6476748036921024
1780625913126339800,2.23533984375,-0.3898227627985179,0.7776765636116266,-0.7383698046177625
1780625913136334800,2.2453349609375,-0.7124561226170509,0.7368029936924576,-0.9462819026917219
1780625913146329900,2.255329833984375,-1.1057108326256275,0.2710454305961728,-0.43988896234631536
1780625913156324900,2.265324951171875,0.13429394068811087,-1.0704010343134402,-0.8231430142790078
1780625913166319900,2.27531982421875,1.1516256115823984,-0.847249866053462,-1.8348545437365769
1780625913176315000,2.28531494140625,-0.7694272061824798,-0.9432309906885027,-1.020954574099183
1780625913186310000,2.295309814453125,-1.8761749806404113,-1.4776687067791818,0.2131020679324865
1780625913196305000,2.305304931640625,-1.1531132197916507,-0.09700842185616493,0.8563421040475367
1780625913206300000,2.3152998046875,-0.9325824631631374,-0.14775895040631293,0.6739969934284686
1780625913216296000,2.3252958984375,-0.1971685857415199,-0.711559539103508,0.6913029330164193
1780625913226291000,2.335291015625,0.5415570465765893,-0.6847159558415412,1.1171475879192352
1780625913236286000,2.345285888671875,2.630279530006647,-0.29443770436048505,1.6670283723354338
1780625913246281000,2.355281005859375,-0.6886930427789688,-0.2757715823352337,1.7355735007733106
1780625913256276000,2.36527587890625,0.20566285784244537,-2.1462422138541934,2.7183751620888708
1780625913266271000,2.37527099609375,2.4966172017529606,-4.359885062286257,2.6243378649979827
1780625913276266000,2.385265869140625,0.8190433238752186,-3.845226982420683,0.8501046709626913
1780625913286260700,2.3952607421875,0.39937575017213817,-3.1590655039459463,-0.7845429422497748
1780625913296255700,2.405255859375,1.0669786586493253,-2.898300936606526,-0.8969137684106826
1780625913306250800,2.415250732421875,0.4914798872433602,-2.625999076208472,-0.6685930885583162
1780625913316245800,2.425245849609375,0.3324912484228611,-2.079527807974815,-0.0275321500480175
1780625913326240800,2.43524072265625,0.34373949540704485,-1.2127408822804688,0.6640051762461662
1780625913336235800,2.44523583984375,0.1582414737150073,-0.3830664204061031,0.7979021900385618
1780625913346230800,2.455230712890625,0.11283815141171216,0.35229952622056004,0.6536801815867423
1780625913356226000,2.46522607421875,-0.047962651397287843,1.2294739904165268,1.2268395502597094
1780625913366221000,2.475220947265625,0.34275662184953687,1.4699275911331176,0.9319973567515611
1780625913376215800,2.4852158203125,0.2928533577784896,1.0018722724884748,0.34170272888243197
1780625913386210800,2.4952109375,-0.2575605106011033,-0.42284313499927517,-0.013141221123933792
1780625913396206800,2.505206787109375,-0.30341508380323645,-1.68472506480664,-0.5196282694935799
1780625913406201900,2.515201904296875,0.1336181968510151,-2.3804554588764906,-1.1279618274003267
1780625913416196900,2.52519677734375,0.8721244873300195,-2.0729382004514334,-0.7591168245702982
1780625913426192000,2.53519189453125,1.1889087557941675,-1.074138759537041,0.5363847585052252
1780625913436187000,2.545186767578125,-0.8395838614702225,-0.3854775732010603,0.5517991852581501
1780625913446182000,2.555181884765625,-2.9269524460732934,0.40671500701904295,0.33065935682058334
1780625913456176600,2.5651767578125,-2.482410689485073,1.1195341907948255,0.21755495568811892
1780625913466171600,2.575171630859375,-3.0129362005680798,1.0723322946369647,-0.17564006002247332
1780625913476167000,2.5851669921875,-2.7584342007547615,0.5495739104241132,-0.4890408235281706
1780625913486162000,2.595161865234375,-1.6188658144518733,-0.045831776848435396,-0.4249591042399406
1780625913496157000,2.605156982421875,-0.7697802574038505,-0.5094119959056377,0.025928221982717513
1780625913506152000,2.61515185546875,-0.2544444244071841,-0.0988783073812723,1.0777286007225513
1780625913516147000,2.62514697265625,0.08446078271120787,0.6384691684514284,1.8779022428244352
1780625913526142000,2.635141845703125,2.03821876924783,2.216604620847106,2.4602245766401287
1780625913536137000,2.645136962890625,2.6879931755676862,2.4446277790576216,2.3455869745910167
1780625913546132000,2.655132080078125,2.0411247198224065,1.756954726976156,1.7139298242419958
1780625913556126700,2.665126708984375,1.441614227579534,0.9328840764582157,0.9322872796088456
1780625913566121700,2.675121826171875,0.7451900060266256,0.014893033227324486,0.29596389101445675
1780625913576117800,2.68511767578125,0.5027937468096614,-0.6626210284113884,-0.19394728560745714
1780625913586112800,2.69511279296875,0.8761138492271303,-0.982548563337326,-0.33211247823834417
1780625913596108000,2.70510791015625,1.2678484369963408,-1.1763497184723615,-0.2392027238726616
1780625913606103000,2.71510302734375,1.2527335777118802,-1.355682203271985,0.06521043105721473
1780625913616098000,2.72509814453125,0.4947381583869457,-1.76722360753417,0.27869769891500473
1780625913626092800,2.7350927734375,-0.03165916685014963,-1.832073388585448,0.4460837253332138
1780625913636087800,2.745087890625,-0.26786387795060873,-1.6438023950487375,0.5168266560763121
1780625913646082800,2.755082763671875,-0.3158171769976616,-1.207940204000473,0.656185442405939
1780625913656077800,2.765077880859375,-0.5282803625047207,-0.7964566674053668,0.9265835150092839
1780625913666072800,2.77507275390625,-0.3238309721052646,-1.0217466012597083,0.8048755361825227
1780625913676067800,2.78506787109375,0.14863339515328405,-1.1475117465227842,0.5609335088282823
1780625913686062800,2.795062744140625,0.614377806507051,-1.3029764490008353,-0.1051437975168228
1780625913696057900,2.805057861328125,1.1566083684310315,-1.732764288571477,-1.003343514084816
1780625913706052900,2.815052978515625,1.196511632013321,-1.337418232306838,-2.1317396412491796
1780625913716048000,2.8250478515625,0.7770017330899834,-0.059523033070564266,-3.514586330300569
1780625913726042600,2.835042724609375,1.157717206455767,0.9169026634722948,-3.1196424250960346
1780625913736038000,2.845037841796875,1.1809914067983627,1.0177262597024441,-2.9169933621168136
1780625913746033200,2.855033203125,1.6736536356940865,1.6748995441019534,-2.2748510581105945
1780625913756028200,2.865028076171875,2.445723465339839,1.5106968238949774,-1.4244868594288824
1780625913766023200,2.875023193359375,2.9472619513913987,0.7212719548225403,-0.3080079645514488
1780625913776018400,2.885018310546875,3.383477193661034,0.14706570744514463,1.129999470707774
1780625913786013400,2.895013427734375,3.909794731660187,-0.12922317676246164,2.1224866597354413
1780625913796008400,2.905008544921875,3.893563435566425,-0.018575521132349965,1.9386229612469672
1780625913806003500,2.91500341796875,3.483031208346784,-0.03602525310516357,0.5501590168356895
1780625913815998200,2.924998291015625,2.544936703763902,-0.20442542500197886,-0.3803869720637798
1780625913825993200,2.9349931640625,1.1961267243489622,-0.061245034557580944,-0.6775444567769765
1780625913835988200,2.94498828125,-0.16117051290422676,0.24306349095404148,-0.564682632228732
1780625913845983200,2.954983154296875,-1.4643676189184187,0.7316226684451103,-0.021797990310192108
1780625913855978200,2.964978271484375,-2.281200427137315,1.0668845506250857,0.4700678275108337
1780625913865973200,2.97497314453125,-2.6578172330126164,1.3943161775708197,0.9605921675950289
1780625913875968300,2.98496826171875,-2.4576903819873928,1.6305939539074896,1.6467624138981103
1780625913885963300,2.99496337890625,-1.7806801782175898,1.7197960859268904,2.180613270011544
1780625913895958300,3.004958251953125,-0.40285511672049756,1.8104934249401092,2.315141567444801
1780625913905953300,3.014953369140625,0.10059709399789571,0.9567869300931692,1.6396096195340155
1780625913915948000,3.024947998046875,-3.2674890537858006,0.5064408711403608,0.9036889616340398
1780625913925944300,3.0349443359375,-6.681386812412739,0.6678957539439201,1.0378460876673459
1780625913935939300,3.044939208984375,-1.9818799191713332,0.5897884319126606,1.4438386256307363
1780625913945934300,3.054934326171875,-0.4580731460735202,0.5342565143048763,1.2704168261796236
1780625913955929300,3.064929443359375,-1.1332488278925419,-0.48833121395409107,0.7754869446128606
1780625913965924400,3.07492431640625,-0.9673319972440599,-0.31416590265929695,0.5030278478264808
1780625913975919400,3.08491943359375,-0.25463527080416676,0.20484803432822227,0.18054478319883346
1780625913985914000,3.0949140625,0.3416927920103073,0.22353519914150236,-0.4379004188776016
1780625913995909000,3.1049091796875,0.45527474752664565,0.7009422834992408,-0.6791723502397536
1780625914005904100,3.114904052734375,0.24802666631937026,1.3101222291022538,-0.8328191896408795
1780625914015899100,3.124899169921875,-0.3239648276180029,1.5444517939805984,-0.8326812424749136
1780625914025894100,3.13489404296875,-0.9770438284412026,1.7969073826581239,-0.745230338037014
1780625914035889200,3.14488916015625,-1.3705159075275062,1.629451798135042,-0.7566583255022764
1780625914045884400,3.154884521484375,-1.48871324788481,1.2498264580935239,-0.8208353218585253
1780625914055879400,3.16487939453125,-1.419156458186358,0.8554127142429351,-0.7877817780405283
1780625914065874400,3.17487451171875,-1.279909169407189,0.37521395334005353,-0.5700549729168415
1780625914075869400,3.184869384765625,-1.3485326237782835,-0.05127659825086593,-0.2862216646790504
1780625914085864200,3.1948642578125,-1.5287570889815687,-0.19689269140958784,-0.1042816277295351
1780625914095860200,3.204860107421875,-1.6539669384494422,0.041723172485828394,0.3316027751505375
1780625914105855200,3.214855224609375,-1.5503297461032866,0.07656769137382508,0.8250701829493046
1780625914115850200,3.224850341796875,-1.31962246337533,0.06358955185711383,1.3039853337824343
1780625914125845200,3.23484521484375,-1.2928247650817035,0.41585985198318953,1.8211118495881555
1780625914135840300,3.24484033203125,-1.2013866907037793,0.7767723082482815,1.9702508561760186
1780625914145835300,3.254835205078125,-0.8452151453554629,0.8663800984591246,1.9883955846756696
1780625914155830300,3.264830322265625,-0.625390491169691,1.257674248984456,2.459785016179085
1780625914165825300,3.2748251953125,-0.8096656930685043,1.280972122463584,2.8955595289438962
1780625914175820300,3.2848203125,-1.1466940003991126,0.8569108438462019,2.7958815956175327
1780625914185815300,3.294815185546875,-1.044971994024515,0.3581698795586824,2.4186352596670386
1780625914195810300,3.304810302734375,-0.2160717313930392,-0.3021633301764726,1.759170649459958
1780625914205805300,3.314805419921875,0.3397682536885142,-1.0374456901729106,0.623814620155096
1780625914215800300,3.32480029296875,0.2699449220083654,-1.2404010426223278,-0.5772013375401497
1780625914225795300,3.33479541015625,-0.03750876966118812,-1.3003238886654376,-2.0246622453212737
1780625914235790300,3.344790283203125,-0.6295723068989812,-1.3455652984052895,-3.3413796349048615
1780625914245785300,3.354785400390625,-0.8433937751471996,-1.3640835363924502,-4.322986533477902
1780625914255780000,3.364780029296875,-0.5413631314396858,-1.7001678408712149,-4.228589170902967
1780625914265776000,3.374776123046875,-0.7238637248814106,-0.823951992574334,-2.8666917463779447
1780625914275771400,3.384771484375,-0.613676672500372,-0.06303484058380127,-0.9470563941955565
1780625914285766400,3.394766357421875,0.025855595137923956,-0.10071019898355006,1.1089742183357476
1780625914295761400,3.404761474609375,0.3233062175787985,-0.4978659350186586,1.9980010328888893
1780625914305756400,3.41475634765625,1.0215947716988623,-0.37767011432051656,1.8886960240393875
1780625914315751400,3.42475146484375,0.9813887257777154,-0.733102093347907,0.9159107298254966
1780625914325746200,3.43474609375,0.5529366648554802,-1.0514596024781464,-0.5207517205655574
1780625914335741200,3.4447412109375,0.49374549408778545,-0.2756231137752533,-1.6090803334966302
1780625914345736200,3.454736083984375,-0.047432782304286956,0.4159381779164076,-2.2761045653030276
1780625914355731200,3.464731201171875,-0.5425368513941764,0.5697592048406601,-2.229275301849842
1780625914365726200,3.474726318359375,-0.8415420098006725,0.6199240424573421,-1.8497870321914553
1780625914375721200,3.48472119140625,-0.6557036502383649,0.4294067312985658,-1.751981030216813
1780625914385716200,3.49471630859375,-0.41624855903983116,0.2959574612736702,-1.6013398023724554
1780625914395711200,3.504711181640625,0.08195113797783851,0.5242442388564348,-0.41253772182315585
1780625914405706200,3.514706298828125,0.5237396503351629,0.059870823594927784,0.7057502683028578
1780625914415701200,3.524701171875,0.532281999361515,-0.06642682110965252,1.5332006243869662
1780625914425696300,3.5346962890625,1.3104139055252075,-0.6075473759651183,1.7954434475854038
1780625914435692300,3.5446923828125,1.5740309396862984,-2.0180624086648224,1.2531000729367137
1780625914445687300,3.554687255859375,-0.4368796975277364,0.45187049204111096,2.0332824818894264
1780625914455682300,3.564682373046875,-1.0416391232747584,1.0629109708189963,2.029242558848858
1780625914465677300,3.57467724609375,-0.42799050782509146,0.6450894633740186,1.1916776359856127
1780625914475672300,3.58467236328125,0.495246692430973,0.3923901290684938,0.47832741407305
1780625914485667300,3.594667236328125,0.34344168150424953,-0.10558277345597743,-0.7312554425679146
1780625914495662300,3.604662353515625,0.1852911009430885,-0.469675613322854,-1.5984486109755933
1780625914505657000,3.614656982421875,0.23223281179480254,-0.6418161407917737,-1.984500623063743
1780625914515652000,3.624652099609375,-0.045866336705163116,-0.589783755737543,-2.127430399747938
1780625914525647000,3.634647216796875,-0.3677566961366683,-0.7644020714968442,-1.9724809533156453
1780625914535642400,3.644642333984375,-0.12294957638569176,-1.970867526769638,-2.066611335517466
1780625914545637400,3.654637451171875,0.37534846643991765,-3.3705782568603753,-2.1656695295102892
1780625914555632400,3.66463232421875,0.4661327530842274,-4.4657840620845555,-2.4983885953396556
1780625914565627400,3.67462744140625,0.3873532308798283,-5.247727050969004,-3.1072745264321564
1780625914575622400,3.684622314453125,-0.2956850740730762,-6.020560266202688,-3.8217248185411092
1780625914585617400,3.694617431640625,-0.7864087361216545,-6.24221272033751,-3.75932973716557
1780625914595612200,3.704612060546875,-1.0465116246819495,-5.2276984084188935,-2.7819237974137065
1780625914605608200,3.714608154296875,-1.2897697614252566,-2.3918390226781368,-1.2043047701075673
1780625914615603200,3.724603271484375,-1.4836884054601192,0.7230512394547463,0.39509968028813597
1780625914625598200,3.73459814453125,-2.3494997641205786,3.653810092073679,1.775858457149565
1780625914635593200,3.74459326171875,-2.880143933147192,6.8093789860755205,2.6161077967911956
1780625914645588200,3.754588134765625,-2.567230660897493,9.684169283235072,3.0618019382849333
1780625914655583500,3.76458349609375,-1.2134253574132918,11.49565405730009,2.934955719786882
1780625914665578200,3.774578125,0.8061410260736942,9.639205521392821,0.4817407296478748
1780625914675573200,3.7845732421875,2.1127321584403513,5.381226589876413,-3.587929798930883
1780625914685568300,3.794568359375,2.5400644215524193,2.94396787828207,-5.3238177724808455
1780625914695563300,3.804563232421875,1.9264953010797499,2.1588485974490643,-4.604907870614529
1780625914705558300,3.814558349609375,0.6306523572206497,1.5835884571045635,-3.2278900338470935
1780625914715553300,3.82455322265625,-0.45302901442646976,1.0420032073467969,-1.4700079628929494
1780625914725548300,3.83454833984375,-0.8603659527361393,0.6021943244993686,0.1962935564726591
1780625914735543300,3.844543212890625,-0.7516600788235664,0.13784253654778003,1.5883467575475572
1780625914745539000,3.8545390625,-0.5108510887980461,-0.2595277190208435,2.5807401308119298
1780625914755533800,3.864533935546875,-0.30584291373835876,-0.1993395000398159,3.43313115914613
1780625914765529900,3.87452978515625,0.14319500349164008,0.11854746896922588,4.066071042782068
1780625914775524900,3.88452490234375,0.7454103707790374,0.5492863256543874,4.560478654040396
1780625914785519900,3.894519775390625,1.2217068635463715,0.8319242866277694,4.558276467821002
1780625914795515000,3.904514892578125,1.307210725569725,0.851515122282505,3.9617981828808784
1780625914805510000,3.914510009765625,1.0153975244939326,0.44999008512198924,2.7578993632256985
1780625914815505000,3.9245048828125,0.729150140851736,0.19486147784292696,2.286420792134106
1780625914825499600,3.934499755859375,0.5470634619731456,0.11144845061898231,2.171849825580418
1780625914835494700,3.94449462890625,0.4164684123355895,0.10247662413418292,2.1071865070119498
1780625914845489700,3.95448974609375,0.5697356778346002,-0.1271434478789568,1.7492258862897754
1780625914855485000,3.96448486328125,0.4287246673185378,-0.7646230207711457,0.8200722285315394
1780625914865480000,3.97447998046875,0.11987849837727844,-0.5948597438275813,0.3293257701292634
1780625914875475000,3.984474853515625,-0.026637977687269446,-0.9495534717082976,-0.6180705235451459
1780625914885470000,3.994469970703125,-0.23553791775479913,-0.963290320637822,-1.2933002736389636
1780625914895465000,4.00446484375,-0.06826748054027557,-1.2093401339262724,-1.9185510640770196
1780625914905460000,4.0144599609375,-0.14525018245577812,-1.5932722312510013,-2.4817121858268973
1780625914915455000,4.024455078125,-0.15184695037230847,-1.5359066684752702,-2.711110431782901
1780625914925450800,4.03445068359375,0.12748422414064406,-1.161141627946496,-2.587440797494352
1780625914935445800,4.04444580078125,0.5987139350377023,-0.6287509075134993,-2.3072142815768717
1780625914945440800,4.054440673828125,0.9918142582021653,0.02841010192632675,-1.9199203066036103
1780625914955435800,4.064435791015625,0.808203073170036,0.33107027570903297,-1.47766315382123
1780625914965430800,4.0744306640625,0.36667628048881884,0.46350540025532244,-0.8107417978674173
1780625914975426000,4.084426025390625,-0.044917876873910426,0.6730646810144185,0.129658937831223
1780625914985421000,4.094421142578125,-0.17253332617878914,1.113697739726305,1.0949848559498787
1780625914995415800,4.104415771484375,0.10641659393161534,0.9304378523498773,1.2016422729000449
1780625915005410800,4.114410888671875,0.383330478169769,0.2567611769169569,0.564259438380599
1780625915015405800,4.12440576171875,0.4885705756679177,-0.11679741043150424,0.17758184174001215
1780625915025400800,4.13440087890625,0.3711256611131131,-0.5396347002118825,-0.15446867717802523
1780625915035395800,4.144395751953125,-0.296123757751286,-0.6936223158746957,0.005952770924568176
1780625915045390800,4.154390869140625,-1.174224689142406,-0.5528782126665115,0.5342395631700754
1780625915055385900,4.1643857421875,-1.5705740772306918,-0.15327332991361617,0.8439356269389391
1780625915065380900,4.174380859375,-1.3145040974482893,0.00909223799407482,0.9159937319338322
1780625915075375900,4.1843759765625,-1.2450807248711586,-0.1124772091448307,0.9636211600273847
1780625915085371600,4.19437158203125,-1.093454869903624,-0.2494061379790306,1.0894148007325828
1780625915095367000,4.204366943359375,-0.6709928431764245,-0.4052069405436516,1.2182384567834437
1780625915105362000,4.21436181640625,-0.19970044230669737,-0.45547523853480815,1.384752668803185
1780625915115357000,4.22435693359375,0.07623422163575887,-0.3350964624851942,1.4317055586360394
1780625915125352000,4.23435205078125,0.0352639133438468,-0.247823837223649,1.3857619919762014
1780625915135347000,4.244346923828125,-0.3135661832004785,-0.2243096906453371,1.328437491863221
1780625915145342000,4.254342041015625,-0.7579591789677739,-0.33786475815474987,1.2194400876581668
1780625915155337000,4.2643369140625,-1.0961527306854724,-0.4789274257928133,1.1341473841674625
1780625915165332000,4.27433203125,-1.148781912589073,-0.6059697513848543,1.0945770058013498
1780625915175326700,4.28432666015625,-0.8604840261578559,-0.7872884415656328,0.9980309407599269
1780625915185321700,4.29432177734375,-0.35819647530466314,-0.8991951573461293,0.8422351066313684
1780625915195316700,4.304316650390625,0.05362871433496475,-0.9869909296989441,0.6425124524928629
1780625915205311700,4.314311767578125,0.2646282570302486,-1.036283076134324,0.4119911938562989
1780625915215306800,4.324306640625,0.19834289021790028,-1.048223104774952,0.19464111309051513
1780625915225301800,4.3343017578125,-0.006873977422714233,-1.0441770442545413,0.05689210004508495
1780625915235297000,4.344297119140625,-0.18992256013602019,-1.0568044706374407,-0.02099748758226633
1780625915245292800,4.354292724609375,-0.2264808972045779,-1.0688596500903367,-0.06435922105535864
1780625915255287800,4.364287841796875,-0.22984365163594483,-0.9585077625364065,-0.037948330122232435
1780625915265282800,4.37428271484375,-0.1493532338604331,-0.7782102320969104,-0.028353695563971996
1780625915275277800,4.38427783203125,-0.09025514820367098,-0.5941659163445234,-0.01089694932848215
1780625915285272800,4.39427294921875,-0.1262476680830121,-0.4172603664308786,-0.027625089028477667
1780625915295267800,4.404267822265625,-0.19752748218178748,-0.29064649538397785,-0.01138780158534646
1780625915305262800,4.414262939453125,-0.31744682402610774,-0.2863677951514721,0.01855988517180085
1780625915315257900,4.4242578125,-0.368887088406086,-0.34414427681565285,0.12997311834692954
1780625915325252900,4.4342529296875,-0.2411997429087758,-0.4444926567494869,0.25942966547384855
1780625915335248000,4.444247802734375,0.00006488192975521087,-0.6260907483935356,0.3604835633285343
1780625915345242600,4.45424267578125,0.31655133649110795,-0.9176964441984892,0.34204701227545736
1780625915355238000,4.46423779296875,0.7276923432588577,-1.1904080544412134,0.20582140940502286
1780625915365233000,4.47423291015625,1.255355742909014,-1.4083037863910197,0.005520955378562212
1780625915375228000,4.484227783203125,1.8080466163098812,-1.538417189991474,-0.3119796446613967
1780625915385223000,4.494222900390625,1.9686139026239513,-1.3178531156152486,-0.8297123096667229
1780625915395218000,4.504218017578125,2.031929313714802,-0.7549421692341566,-1.2923812590979038
1780625915405214000,4.5142138671875,2.156955915570259,-0.15248480988442897,-1.597776556932926
1780625915415208700,4.524208740234375,2.337082181096077,0.37944998347461223,-1.7139568583793938
1780625915425203700,4.53420361328125,2.6862007391929623,0.9188748403280973,-1.5709918642513454
1780625915435198700,4.54419873046875,3.1774151073679326,1.3755132774233818,-1.2654713326014577
1780625915445193700,4.55419384765625,3.6097067464530466,1.503146554645896,-0.9596034488186239
1780625915455188700,4.564188720703125,3.584863397097587,1.0467138692557811,-0.8357064355149865
1780625915465183700,4.574183837890625,2.932458350013196,0.4515034122943878,-0.5465479867316783
1780625915475179000,4.584178955078125,2.215970414596796,0.24428105005025863,0.018697101685404775
1780625915485174000,4.594174072265625,1.7259509552948176,0.3917939167410135,0.45248906233087177
1780625915495169000,4.6041689453125,0.9998761302351951,0.7285685415714979,0.7489682093910872
1780625915505164000,4.6141640625,-0.1943324855327606,0.9474076918512582,1.1450681527629494
1780625915515158800,4.62415869140625,-1.2570378507770597,0.7939519911080598,1.6412787217900155
1780625915525153800,4.63415380859375,-2.0516960904583335,0.0277414088845253,1.9267586281910538
1780625915535148800,4.644148681640625,-2.7445994444087147,-1.0070189877271651,2.007830352985859
1780625915545143800,4.654143798828125,-2.9338404520213603,-1.6530080302894115,2.1866982890136537
1780625915555138800,4.664138916015625,-2.4591233373999595,-1.7602087603360415,2.4720044462829827
1780625915565134800,4.674134765625,-1.50018273640424,-1.3210972121030091,2.9520977009847758
1780625915575129900,4.6841298828125,-0.10371990219354629,-0.45688568985462186,3.3988770073667167
1780625915585124900,4.694124755859375,0.5360851910367608,0.5578507403820753,3.2293408171772957
1780625915595119900,4.704119873046875,-0.38276685293763874,1.446996797400713,2.672618788564205
1780625915605115000,4.714114990234375,-1.6514985025092959,1.8539304156064986,1.8833276288740335
1780625915615110000,4.72410986328125,-2.2515663363739846,1.5243237827092408,0.8204071595743299
1780625915625105000,4.73410498046875,-1.962222301890701,0.710414460721612,-0.08895341795533895
1780625915635100000,4.744099853515625,-1.5447791262388229,-0.05228314494490623,-0.6789039085619151
1780625915645095000,4.754094970703125,-1.512172011014074,-0.4973445414930582,-0.9204201700739562
1780625915655090000,4.76408984375,-1.824090427007526,-0.5336386746674776,-0.6903665289491414
1780625915665085000,4.7740849609375,-2.4285433440886437,-0.3563420796096325,-0.04905132341682911
1780625915675080000,4.784079833984375,-2.525035194724798,-0.3063993603110313,0.5050178525999188
1780625915685074700,4.79407470703125,-1.9760792700685559,-0.3826397194266319,0.7996933112390339
1780625915695069700,4.804069580078125,-1.4094859819129109,-0.4375479521781206,0.7835013242423534
1780625915705064700,4.814064697265625,-0.9059376173436641,-0.35318916853666305,0.5496395230062305
1780625915715059700,4.824059814453125,-0.45361236727237697,-0.20216449433267114,0.2766967343561351
1780625915725056000,4.834055908203125,-0.07607669298648834,0.08038929548859595,0.3289060834124684
1780625915735051000,4.844051025390625,0.21920053093805908,0.36160160757303234,0.6644573039278387
1780625915745045500,4.85404541015625,0.16924378311410546,0.33803485402464867,0.9768353002570569
1780625915755040500,4.86404052734375,-0.14358765607103705,-0.01542261005938053,1.055862659742683
1780625915765035300,4.87403515625,-0.4301214554391801,-0.29749650740921496,0.9433793131180107
1780625915775030300,4.8840302734375,-0.5043266554653645,-0.531274868145585,0.5539059482790529
1780625915785025300,4.894025390625,-0.4640718750316649,-0.6591916384845972,-0.012358546313643455
1780625915795020300,4.904020263671875,-0.30342655504532157,-0.5367910012185573,-0.5155751947104931
1780625915805015300,4.914015380859375,-0.02708104527965188,-0.2764192325890064,-0.8015328016258776
1780625915815010300,4.92401025390625,0.11773308384642005,0.08284253385961056,-0.8390373335033655
1780625915825005300,4.93400537109375,0.11147548475638032,0.4344599230349064,-0.6216895908251404
1780625915835000300,4.944000244140625,0.017678426162153482,0.6623994946151971,-0.22172902650237084
1780625915844995600,4.95399560546875,-0.18518121082782743,0.5937181725770234,0.1676616284891963
1780625915854990600,4.963990478515625,-0.4218097733635455,0.31248072605133054,0.34528131802156564
1780625915864985300,4.9739853515625,-0.6420493650257587,0.07392974408566952,0.30101036074906584
1780625915874980400,4.98398046875,-0.8401251287400722,-0.1307633919417858,0.18313143869116902
1780625915884976400,4.993976318359375,-0.9002597178377211,-0.3027823388576507,0.12165113407298922
1780625915894971400,5.003971435546875,-0.7520704862553625,-0.3785486507207155,0.1819810996122658
1780625915904966400,5.01396630859375,-0.5399931582607329,-0.3629500995725393,0.3383103099651634
1780625915914961400,5.02396142578125,-0.3878817117333412,-0.30169220553338527,0.5042455530531704
1780625915924956400,5.033956298828125,-0.3263479233622551,-0.10806874505281448,0.7582580157838761
1780625915934951400,5.043951416015625,-0.37766894527673717,0.06848024650812148,0.9668247783742845
1780625915944946200,5.0539462890625,-0.6312287688691168,-0.016783961540460586,0.9694345224812626
1780625915954941400,5.06394140625,-0.7986591458857059,-0.29251287377774715,0.8684080971553921
1780625915964936400,5.0739365234375,-0.8576117586571723,-0.42230771294832226,0.7003136302068829
1780625915974931500,5.083931396484375,-0.8198633350212127,-0.45801498614549635,0.45934199696555733
1780625915984926500,5.093926513671875,-0.7377450237829237,-0.4079144459366798,0.2781682682134211
1780625915994921500,5.10392138671875,-0.6162870741944759,-0.2203670904994011,0.1533458106279373
1780625916004916500,5.11391650390625,-0.49110119012407955,0.03802256440222263,0.03194412127137184
1780625916014911500,5.123911376953125,-0.4780511544149369,0.3613292203724384,-0.032924656741321084
1780625916024906500,5.133906494140625,-0.5814087261021137,0.6138935301214457,-0.03241363847926259
1780625916034901500,5.143901611328125,-0.6255027924377471,0.6400678358197212,0.047184945023059845
1780625916044897300,5.153897216796875,-0.5586568691331892,0.38975276630222794,0.02737666722536087
1780625916054892300,5.163892333984375,-0.42317631247639653,-0.057229953697323796,-0.16343641200959683
1780625916064887300,5.17388720703125,-0.2695148600280285,-0.34175708941817284,-0.28722777298167346
1780625916074882600,5.183882568359375,-0.3543218988936394,-0.2526215928941965,-0.3318791078738868
1780625916084877600,5.193877685546875,-0.5758346522968262,-0.013020225092768668,-0.40020430995076894
1780625916094872600,5.20387255859375,-0.803020775161311,0.27947277494072914,-0.35438144706115127
1780625916104867600,5.21386767578125,-0.9756255591411143,0.39528585051000115,-0.22399463334679603
1780625916114862300,5.2238623046875,-1.1237187830030917,0.17067746917903423,-0.15250103036686777
1780625916124857300,5.233857421875,-1.119515997551009,-0.09813479553759097,-0.13642960100993512
1780625916134852400,5.243852294921875,-0.8381425035554915,-0.24751228705644607,-0.30238194136321545
1780625916144847400,5.253847412109375,-0.29138766914010045,-0.2643120306879282,-0.5849734328463673
1780625916154842400,5.26384228515625,0.3123345955789089,-0.12514847466945647,-0.8133261152721941
1780625916164837400,5.27383740234375,0.7584709278821945,0.16089958700835705,-0.9266181479312479
1780625916174832400,5.283832275390625,0.9935877706807106,0.5077613060891628,-0.9906560280777513
1780625916184827400,5.293827392578125,1.0739760432559997,0.7392588624119758,-1.030196888088435
1780625916194822400,5.303822509765625,0.9414846584778278,0.7952034524738788,-1.072666787288338
1780625916204818400,5.313818359375,0.5266495464324951,0.5484785164028406,-1.088006102978438
1780625916214813400,5.3238134765625,0.1830045243758708,0.18552023352384567,-0.8604964472480118
1780625916224808400,5.333808349609375,-0.0021288287222385404,-0.04084346704185009,-0.4694115555591881
1780625916234803500,5.343803466796875,-0.1282136343937367,-0.14399462943673133,-0.06013298166245222
1780625916244798500,5.353798583984375,-0.15109649733118713,-0.18319032927155493,0.23913009702786803
1780625916254793500,5.36379345703125,-0.15933357980065047,-0.27853403278589245,0.4308740273721516
1780625916264788500,5.37378857421875,-0.21188801596760748,-0.33821313320100305,0.5559558665461838
1780625916274783500,5.383783447265625,-0.2730745983362198,-0.3238029150545597,0.687522391564399
1780625916284778200,5.3937783203125,-0.30077625973224636,-0.2398077040284872,0.7177237608216702
1780625916294773200,5.403773193359375,-0.2411632102906704,-0.21308277871012687,0.6218216927722096
1780625916304768300,5.413768310546875,-0.23493337599039077,-0.2565864048719406,0.37719416737183925
1780625916314763300,5.42376318359375,-0.30364626221060753,-0.29492519561648367,0.033605332481861115
1780625916324758300,5.43375830078125,-0.29885077156238254,-0.23298574905395505,-0.1428008896075189
1780625916334753300,5.443753173828125,-0.04587101288028061,-0.1487011996924877,-0.19830285046845672
1780625916344748500,5.45374853515625,0.27288755133152004,-0.046858197286725044,-0.21442191835939883
1780625916354743600,5.46374365234375,0.37465157021693885,0.13008300846219062,-0.2199675697878003
1780625916364739300,5.4737392578125,0.25295411278419194,0.2802332379192114,-0.25109949789345265
1780625916374734300,5.483734375,0.16349895585179328,0.41862990121841426,-0.28478315630853174
1780625916384729300,5.493729248046875,0.10299743313789367,0.44032501567602156,-0.3814037478908896
1780625916394724400,5.503724365234375,-0.0011363105535507202,0.09425181662440299,-0.5728552711598575
1780625916404719400,5.51371923828125,-0.142104322178103,-0.35414252373874183,-0.6566326016515494
1780625916414714400,5.52371435546875,-0.23270510548166928,-0.5278828876197338,-0.6228001824155449
1780625916424709400,5.53370947265625,-0.24658983844928442,-0.4429623784422874,-0.5379413402974605
1780625916434704400,5.543704345703125,-0.19102058450579643,-0.1495470028668642,-0.3612285364769399
1780625916444699400,5.553699462890625,-0.06847673937678336,0.19043840070366858,-0.09889657369032502
1780625916454694400,5.5636943359375,0.037438627034425735,0.4138537728577852,0.16485314693972467
1780625916464689400,5.573689453125,0.16738482084181158,0.430898431161046,0.415551224425435
1780625916474684400,5.583684326171875,0.32197102345228196,0.18645254593789576,0.5284951742991805
1780625916484679400,5.593679443359375,0.6014098595907912,-0.1339835230320692,0.3718137895077467
1780625916494674400,5.60367431640625,0.9209609989523887,-0.2610334474086761,0.14107655003294348
1780625916504669400,5.61366943359375,0.9920097077090293,-0.26380758829712864,-0.09377893841564655
1780625916514665500,5.62366552734375,0.7447732419192791,-0.10606441949307918,-0.25805501611977816
1780625916524660200,5.63366015625,0.5737760392665863,0.06539280188679694,-0.3997651878811419
1780625916534655200,5.6436552734375,0.5921919859230518,0.21294483154416083,-0.6298020240016281
1780625916544650200,5.653650146484375,0.6648258449792862,0.49222529878318305,-0.8256406763136387
1780625916554645200,5.663645263671875,0.7047697328329086,0.6503513294249773,-1.026055696630478
1780625916564640300,5.67364013671875,0.5618646521985531,0.5386620557874441,-1.1864460189424455
1780625916574635500,5.683635498046875,0.28416878726985306,0.2995306435853243,-1.1500453566536306
1780625916584630500,5.693630615234375,-0.021321020448207852,0.07359832017421722,-0.9760730837129056
1780625916594625500,5.70362548828125,-0.3477496443638578,-0.05353811344206333,-0.6838442875735461
1780625916604620500,5.71362060546875,-0.6739630911588669,-0.07753916675448418,-0.31082272971123454
1780625916614615600,5.723615478515625,-0.8719231195390224,-0.1359264737933874,0.07307195821255445
1780625916624610300,5.7336103515625,-0.9250234260857104,-0.21735271111428736,0.43583661821559067
1780625916634605300,5.743605224609375,-0.8243582352876663,-0.22590601992607115,0.6900079247698188
1780625916644600300,5.753600341796875,-0.7634990582425147,-0.16372750391066074,0.843920721630752
1780625916654595300,5.76359521484375,-0.7444505858361721,-0.09691723644137382,0.8029374077267944
1780625916664590300,5.77359033203125,-0.676185370318219,-0.062037646239995956,0.7176325754068792
1780625916674586400,5.78358642578125,-0.5879377625446767,-0.08389233517348765,0.6466521826460957
1780625916684581400,5.793581298828125,-0.47433841750212014,-0.14651041164994238,0.6653031071022153
1780625916694576400,5.803576416015625,-0.35532040841169654,-0.20590718799233435,0.8008626472793519
1780625916704571400,5.8135712890625,-0.33431970595903693,-0.3136030080795288,0.8991809826903044
1780625916714566400,5.82356640625,-0.3301707695860415,-0.33453765955865383,0.9022859629683196
1780625916724561400,5.8335615234375,-0.26339031273312863,-0.32333529754281043,0.7790970979340374
1780625916734556400,5.843556396484375,-0.24173257114384322,-0.33425650452971456,0.6045527241937816
1780625916744552000,5.853552001953125,-0.30788989112973214,-0.3043891895323992,0.4410707194767892
1780625916754547000,5.863546875,-0.35086620548181235,-0.19951193399727343,0.31373014159053564
1780625916764542000,5.8735419921875,-0.4387491446614265,-0.11575520790219307,0.19380539291873572
1780625916774537000,5.883536865234375,-0.47170916497707366,-0.1137403609484434,0.07679433973655105
1780625916784531700,5.89353173828125,-0.4044504961531609,-0.09514321250617504,0.02585530287697911
1780625916794526700,5.903526611328125,-0.26924959668796505,-0.006856441766023636,0.06420403049364685
1780625916804521700,5.913521728515625,-0.17944705109000206,0.11175532461106777,0.1966702808305621
1780625916814516700,5.923516845703125,-0.11341251723356545,0.18410159889757632,0.24946795116886494
1780625916824512000,5.933511962890625,-0.011110592079162597,0.15903963835537432,0.25293007432147857
1780625916834508000,5.943508056640625,0.14138305869884787,0.018343465942144394,0.16130962911397217
1780625916844503000,5.9535029296875,0.21765019622351972,-0.1489104585289955,-0.023893793545663355
1780625916854497800,5.963497802734375,0.18038462420105933,-0.2535655957460403,-0.14997019671499728
1780625916864492800,5.973492919921875,0.08615732096340507,-0.30192835237681864,-0.2288895657815039
1780625916874487800,5.98348779296875,0.08614563052561133,-0.25354864461123944,-0.3083138156302273
1780625916884482800,5.99348291015625,0.06900043445732444,-0.19302666363120077,-0.3780228732809424
1780625916894477800,6.003477783203125,0.04145308684017509,-0.12884440657794474,-0.37187516430616374
1780625916904472800,6.013472900390625,0.019410875977948307,-0.02851473134458065,-0.22715762742236256
1780625916914467800,6.0234677734375,0.012852467310428618,0.11735621335804462,0.00464636450111866
1780625916924462800,6.033462890625,-0.021878654330968854,0.16724398759901524,0.1463701263964176
1780625916934457900,6.043457763671875,0.05055179110765457,0.16179975071847438,0.20455445820912718
1780625916944453000,6.053453125,0.10014613536000251,0.14249357722401618,0.29618264833167196
1780625916954448000,6.06344775390625,0.11594576203823088,0.022037644284963607,0.3834621417254209
1780625916964443000,6.07344287109375,0.1656734503466636,-0.2044984902381897,0.3150800948947668
1780625916974438000,6.08343798828125,0.26631401816010475,-0.38878596709668634,0.15377090417221187
1780625916984434000,6.093433837890625,0.2930127130586654,-0.437218866354227,-0.0464886333219707
1780625916994429000,6.103428955078125,0.16270634416937826,-0.37320436708331106,-0.20884367983564733
1780625917004424000,6.113423828125,0.06001870763301849,-0.16818857497274875,-0.21678937814310192
1780625917014419000,6.1234189453125,0.03096442605163902,0.07512275326251983,-0.08180705333203077
1780625917024414000,6.1334140625,0.038114334338903426,0.251072609886527,0.09344020798057318
1780625917034408700,6.14340869140625,0.01794372603483498,0.3478215040236711,0.24343787722438573
1780625917044403700,6.15340380859375,-0.012888634602352976,0.31073475916683674,0.2939762243285775
1780625917054398700,6.163398681640625,-0.05068045898862183,0.17376491380035877,0.3550166762247681
1780625917064394000,6.17339404296875,-0.04493687383532524,-0.07610358099341392,0.4295286041125655
1780625917074389000,6.183388916015625,-0.009063596421480179,-0.3442775478065014,0.37210049749463797
1780625917084384000,6.193384033203125,0.01548288887925446,-0.46652036416232584,0.28535686454325915
1780625917094379000,6.20337890625,-0.05395370850563049,-0.3683738781869411,0.2113514248728752
1780625917104374000,6.2133740234375,-0.27761640648432073,-0.15852058291733265,0.14338643441051244
1780625917114369000,6.223369140625,-0.4367033180475235,-0.02435293549001217,0.14240356085300446
1780625917124363800,6.23336376953125,-0.4485445624887943,0.01150865148603916,0.18264380130469798
1780625917134359800,6.24335986328125,-0.39810032340884205,0.00836859989464283,0.2656307120710611
1780625917144354800,6.253354736328125,-0.34068851033858955,-0.010000000488758086,0.35355186436921354
1780625917154349800,6.263349853515625,-0.3066214786291122,-0.03768529527187347,0.4356470869928598
1780625917164344800,6.2733447265625,-0.25897593035697936,-0.06047872636020183,0.45905455832630393
1780625917174340000,6.283340087890625,-0.223586710133031,-0.10022679938077926,0.4044625519171357
1780625917184335000,6.293335205078125,-0.23097506681866942,-0.14178104504048825,0.2760276029229164
1780625917194329900,6.303329833984375,-0.2018143657207489,-0.2136129400640726,0.18659370797425506
1780625917204324900,6.313324951171875,-0.15562661504149436,-0.2038876648634672,0.19404636206775902
1780625917214319900,6.32331982421875,-0.10854571491479872,-0.13883447019457817,0.27252690132558344
1780625917224315000,6.33331494140625,-0.08046879046559334,-0.10763444528877734,0.3010606296315789
1780625917234310000,6.343309814453125,-0.08516608143635093,-0.07586860319375992,0.2936512301579118
1780625917244305000,6.353304931640625,-0.0911761355061084,-0.026456629770994184,0.21230244198739529
1780625917254300000,6.3632998046875,-0.09600421324968338,-0.03107785983085632,0.13227233520001172
1780625917264295000,6.373294921875,-0.06079955581240356,-0.038815760606527326,0.058603287877142425
1780625917274290000,6.3832900390625,-0.09832476515173912,-0.0009101005822420119,-0.032333412849903105
1780625917284285000,6.393284912109375,-0.17229023813791572,0.06512158372998238,-0.10276040951162577
1780625917294281000,6.403281005859375,-0.25531565428376196,0.13464929346442223,-0.15430121165663002
1780625917304276000,6.41327587890625,-0.28351752028688787,0.15315408744812012,-0.1341845985621214
1780625917314271000,6.42327099609375,-0.26593064486570656,0.10878829149901867,-0.11357347994893789
1780625917324266000,6.433265869140625,-0.18558577304072676,0.019663316369056702,-0.15547142447978257
1780625917334261000,6.443260986328125,-0.126834381929785,-0.09138824388682841,-0.21266952173411846
1780625917344256000,6.453256103515625,-0.0431881304718554,-0.04806172785758972,-0.25406390065699813
1780625917354251000,6.4632509765625,-0.04471826264858245,0.07330664375126361,-0.1924400959149003
1780625917364246000,6.47324609375,-0.058253451526165005,0.08496785545051097,-0.11917641452252864
1780625917374240800,6.48324072265625,-0.061143327748775476,-0.007870002722740172,-0.07775251724421978
1780625917384235800,6.49323583984375,-0.09916048532351851,-0.1535690979897976,-0.07466039644777775
1780625917394230800,6.503230712890625,-0.22287688136324285,-0.21896657605171202,-0.038324469958245753
1780625917404225800,6.513225830078125,-0.4240637628354132,-0.22078093199729917,0.035386078418791295
1780625917414220800,6.523220703125,-0.5121208164729177,-0.23171090681254863,0.09889350495040417
1780625917424215800,6.5332158203125,-0.4632883965037763,-0.2915443210065365,0.08302636599391698
1780625917434212000,6.543212158203125,-0.398276702889055,-0.3330482977837324,0.06958060896545648
1780625917444206800,6.553206787109375,-0.4005227282501757,-0.3774251996487379,0.09978811570256949
1780625917454201900,6.563201904296875,-0.5026771346926688,-0.41488428494930263,0.13438070565611124
1780625917464196900,6.57319677734375,-0.6412566072128713,-0.34938393103480336,0.1820221622750163
1780625917474192000,6.58319189453125,-0.795082894834131,-0.161690445125103,0.28257483260929583
1780625917484187000,6.593186767578125,-0.8814483421228826,0.16059738919138908,0.4322065911501646
1780625917494182000,6.603181884765625,-0.8194527814589441,0.43050504792928695,0.5524433283805846
1780625917504177000,6.613177001953125,-0.5916494034789502,0.408428825199604,0.5203533688977361
1780625917514172000,6.623171875,-0.3100863782607019,0.2587637489110231,0.44496816530674693
1780625917524167000,6.6331669921875,-0.15879472368359565,0.032841362372040744,0.2579886728852987
1780625917534162000,6.643161865234375,-0.1510064078949392,-0.13098492573797701,0.14158815281689166
1780625917544156700,6.65315673828125,-0.1997742381952703,-0.2385965746730566,0.2084033887222409
1780625917554151700,6.663151611328125,-0.2569488084435463,-0.19814006112217902,0.5156839157819748
1780625917564147000,6.67314697265625,-0.3645290393270552,-0.09257599236667155,0.9281111629679799
1780625917574142000,6.683141845703125,-0.5092414616443216,0.004587912312150002,1.1998650340944528
1780625917584137000,6.693136962890625,-0.6546857053674757,-0.006078443130850791,1.265300213818252
1780625917594133000,6.703133056640625,-0.8644098212994634,-0.05632160668075084,1.1970397475406527
1780625917604128000,6.7131279296875,-1.0913108436122536,-0.08595803553164005,1.1462564857646822
1780625917614122800,6.723122802734375,-1.180817511536181,-0.20516952136754987,1.0139780130848288
1780625917624117800,6.73311767578125,-1.0250327833235264,-0.4204968641340732,0.901258519616723
1780625917634112800,6.74311279296875,-0.6468762006603181,-0.7354021869838238,0.7383686355739831
1780625917644107800,6.753107666015625,-0.2711702260196209,-1.0297603963673114,0.6105179162085056
1780625917654102800,6.763102783203125,0.026084873849153516,-1.2169319042295217,0.5474462507456541
1780625917664097800,6.773097900390625,0.22535993035063145,-1.1906348489344118,0.49000177751481533
1780625917674093000,6.783093017578125,0.2266881102144718,-0.9647387658804655,0.4598170671314001
1780625917684088000,6.793088134765625,0.07209259178638458,-0.6497469337910413,0.33424130696058274
1780625917694083000,6.8030830078125,-0.08722133346572518,-0.2540232763856649,0.15159604435116053
1780625917704078000,6.813078125,-0.19329919696226716,0.20186405008137226,0.13196049277186392
1780625917714072800,6.82307275390625,-0.20906375232711433,0.5797650505483151,0.08939677780866623
1780625917724067800,6.83306787109375,-0.12775748812407253,0.7753150951772928,0.03767214352935552
1780625917734062800,6.843062744140625,0.03698971422314644,0.7123509817421436,0.04306494248360395
1780625917744059000,6.853058837890625,0.24020459439158437,0.4211217180341482,0.034524200892448426
1780625917754053000,6.86305322265625,0.3954397258974611,0.05853168394565582,0.02096212400794029
1780625917764048400,6.87304833984375,0.4232746582843363,-0.20432079558372496,0.08496785545051097
1780625917774043400,6.88304345703125,0.33720717102885245,-0.2766729150891304,0.21634996381253002
1780625917784038400,6.893038330078125,0.1599156905375421,-0.27812662102878094,0.3801461490452289
1780625917794033400,6.903033447265625,-0.10989596047997474,-0.3619207565248012,0.5896969542369246
1780625917804028200,6.913028076171875,-0.4688274720609188,-0.5164268431037664,0.8759382003992795
1780625917814023200,6.923023193359375,-0.8152410089828074,-0.5224544328302144,1.1738713456600904
1780625917824018200,6.93301806640625,-0.9466800351638346,-0.4980933140337467,1.2737474319070576
1780625917834013200,6.94301318359375,-0.8873652380164713,-0.5560246939986944,1.0908990479409695
1780625917844008200,6.95300830078125,-0.7232127866920083,-0.5247556955099105,0.8811325541719793
1780625917854003200,6.963003173828125,-0.4873053780376911,-0.4683130927979946,0.6920978827863932
1780625917863998200,6.972998291015625,-0.22540924938507376,-0.372195482301712,0.5587821760132908
1780625917873993200,6.9829931640625,0.012543839752674101,-0.23574469237327575,0.5384536737337708
1780625917883988200,6.99298828125,0.21417576157860457,-0.06926233679652213,0.6835436971917748
1780625917893984300,7.002984375,0.29890812777280806,0.14514672208130358,0.9159276809602975
1780625917903979300,7.012979248046875,0.33078225254788995,0.31694121259152885,1.0299275696277619
1780625917913974300,7.022974365234375,0.35633396936841305,0.20797698000371456,0.9575789572536945
1780625917923969300,7.03296923828125,0.3577437631011009,-0.035739421901106835,0.7372624278977513
1780625917933964300,7.04296435546875,0.33206571648716926,-0.27700901517570015,0.38599341376870866
1780625917943959300,7.052959228515625,0.22794256725497541,-0.45981122191250323,-0.05329875172823667
1780625917953954300,7.062954345703125,0.06909172946996986,-0.4614847080826759,-0.4309229810804128
1780625917963949300,7.07294921875,-0.17331548953242598,-0.3190063284277916,-0.6814911485761403
1780625917973944000,7.082944091796875,-0.38913609570860863,0.05098199921846389,-0.7550751479640603
1780625917983939000,7.09293896484375,-0.33641923552155495,0.6371212609738112,-0.6296864347979426
1780625917993934000,7.10293408203125,-0.10500818843841551,1.1456617347419262,-0.504741666007042
1780625918003929000,7.11292919921875,0.21034597415737807,1.404133222708106,-0.4643889050915837
1780625918013924000,7.122924072265625,0.6151917532384396,1.3374082954347133,-0.5210384285524488
1780625918023919400,7.13291943359375,1.1005297036606818,0.976716788443923,-0.8483835462585091
1780625918033914400,7.142914306640625,1.5202549258351326,0.5545873546719551,-1.1638368583798409
1780625918043910100,7.15291015625,1.7162018608272074,0.15403087028264997,-1.565041869805753
1780625918053905200,7.1629052734375,1.6495581820964813,-0.08821136741638183,-1.9253841249674557
1780625918063900200,7.172900146484375,1.4457704704761505,-0.14266893379092216,-2.0984534577190876
1780625918073895200,7.182895263671875,1.1888426317553966,-0.015469371810555457,-2.0625819338709115
1780625918083890200,7.19289013671875,0.9091863169413059,0.3222773129224777,-1.8853598653540014
1780625918093885200,7.20288525390625,0.6402876160502433,0.7098889755427837,-1.6995771815016865
1780625918103880200,7.212880126953125,0.4686181766917929,0.9394108478784561,-1.396477154996991
1780625918113875200,7.222875244140625,0.4308008525380865,0.9271165989726782,-0.929595556306839
1780625918123870200,7.2328701171875,0.5222995345294476,0.7189397124826907,-0.41851884205937384
1780625918133865200,7.242865234375,0.7626397379994392,0.38102526996731756,0.03158025639504194
1780625918143860200,7.252860107421875,1.056434468281269,-0.04809036943018436,0.2937722261890769
1780625918153855200,7.262855224609375,1.2742846075236796,-0.4623930550992489,0.3080626173481345
1780625918163850200,7.272850341796875,1.4082067557573317,-0.6551257042199373,0.03626607612371444
1780625918173845200,7.28284521484375,1.3680232139289379,-0.6319815599977969,-0.42191082258522505
1780625918183841300,7.29284130859375,1.145733046412468,-0.4366869514346122,-0.9619298459395765
1780625918193836300,7.302836181640625,0.8428057461261749,-0.23959318449497222,-1.3457885857671499
1780625918203831300,7.312831298828125,0.5325964721381664,-0.06973579952716827,-1.2825748814851046
1780625918213826300,7.322826416015625,0.3936614641785621,0.037734395110607145,-0.9013912060856819
1780625918223821000,7.332821044921875,0.4837959086120128,0.03339724268913269,-0.49763943278640504
1780625918233816000,7.342816162109375,0.6848176626503467,-0.033383798685669895,-0.2149409737974405
1780625918243811000,7.35281103515625,0.8416647593975066,-0.1170779809385538,-0.1130915416508913
1780625918253806000,7.36280615234375,0.9417185402989386,-0.16458558204472065,-0.2023991798713803
1780625918263801300,7.37280126953125,0.9857248552858829,-0.16197393824160097,-0.4828635961979627
1780625918273796400,7.38279638671875,0.9746049108564853,-0.031117022797465324,-0.8049372032418847
1780625918283791400,7.392791259765625,0.9195505476325749,0.0838601864695549,-1.0790843992456793
1780625918293786400,7.402786376953125,0.9346434873461723,0.1416214705646038,-1.2018097384214401
1780625918303781400,7.412781494140625,0.9411989003390073,0.16487375133633614,-1.2511071455538272
1780625918313776000,7.422776123046875,0.8918190756201744,0.2012824508011341,-1.2154945649027824
1780625918323771100,7.432771240234375,0.8136673299252987,0.23651918387711046,-1.0745189910262822
1780625918333767200,7.44276708984375,0.7057657581329345,0.234940390253067,-0.8404390169948339
1780625918343762200,7.45276220703125,0.5816220765918493,0.1861328124642372,-0.5073465878084301
1780625918353757200,7.462757080078125,0.5071849675059318,0.2357382626324892,-0.18565321225374937
1780625918363752200,7.472752197265625,0.5866127610186115,0.4261714026391506,0.14275310494303703
1780625918373747200,7.482747314453125,0.7253074939489365,0.6242600258350371,0.37038112635612486
1780625918383742200,7.4927421875,0.8082073109537362,0.7286965518653392,0.4637041376978159
1780625918393737200,7.5027373046875,0.876502264022827,0.6390121892869473,0.4127051873445511
1780625918403732200,7.512732177734375,0.9086059597700834,0.4313403297096491,0.25956863555312154
1780625918413727200,7.522727294921875,0.8080459829121828,0.2081967602342367,0.0659568655103445
1780625918423722200,7.53272216796875,0.6143418584108352,0.13606500548124312,-0.04932254157364368
1780625918433717200,7.54271728515625,0.42371933331191536,0.09428396532833576,-0.04555675929933786
1780625918443712300,7.552712158203125,0.25087562600970265,0.007489478972554206,0.010037117628753185
1780625918453707300,7.562707275390625,0.17408698536157607,-0.05427168841361999,0.048208442851901054
1780625918463702300,7.572702392578125,0.22136896101832387,-0.04028700220286846,0.08124415875226258
1780625918473697300,7.582697265625,0.32968671239614483,-0.03710135790407657,0.027948037372529506
1780625918483693000,7.592693115234375,0.43327685073018074,-0.0528115527331829,-0.06307400355041026
1780625918493688000,7.60268798828125,0.40181554453969,-0.0985480525135994,-0.11647329304367303
1780625918503683300,7.612683349609375,0.2705728446483612,-0.1710094776123762,-0.04169365413039922
1780625918513678300,7.62267822265625,0.1740168427348137,-0.24588790072500705,0.10104220741689204
1780625918523673300,7.63267333984375,0.20649170988202095,-0.30266075830459593,0.21613602880090474
1780625918533668400,7.64266845703125,0.32820436488389965,-0.29628654709756375,0.27173925807923077
1780625918543663400,7.652663330078125,0.4508955095291137,-0.23766250869333744,0.21436931138932705
1780625918553658400,7.662658447265625,0.5514332745552063,-0.12984686161875725,0.0818883018746972
1780625918563653000,7.672653076171875,0.5897030917167663,-0.05288403344750404,-0.055471419592201705
1780625918573648100,7.682648193359375,0.5713689781248569,-0.032433950614929194,-0.1779763940155506
1780625918583643100,7.69264306640625,0.5113526085793971,-0.027371406528353688,-0.2279781500250101
1780625918593638100,7.70263818359375,0.41227381018996234,0.010855740535259246,-0.19791706602126358
1780625918603633200,7.712633056640625,0.27094346805904057,0.05502981330454349,-0.11609481512010097
1780625918613628200,7.722628173828125,0.1794704319655895,0.07922901953756809,-0.02451630935817957
1780625918623623200,7.732623046875,0.0962730933189392,0.063643327870965,0.12649842797368765
1780625918633619200,7.742619140625,0.07918751848340035,-0.01889993078112602,0.25213819329142567
1780625918643614200,7.7526142578125,0.08702011180520057,-0.1519949805408716,0.3142974200844765
1780625918653609200,7.762609130859375,0.06771802996397018,-0.29871815815865993,0.37783027331829067
1780625918663604200,7.772604248046875,0.015418518406152725,-0.4513292247712612,0.35421471219211814
1780625918673599200,7.78259912109375,-0.026972105012461542,-0.5408370617389678,0.3828711900949478
1780625918683594200,7.79259423828125,-0.09722820208668709,-0.5609066208213568,0.44173400569111104
1780625918693589200,7.80258935546875,-0.205645395250991,-0.4756237080723047,0.4801224807962775
1780625918703584300,7.812584228515625,-0.23386611208505928,-0.33070144239664073,0.5035854817092419
1780625918713579300,7.822579345703125,-0.12160042679905891,-0.22411913650929927,0.5070601720824838
1780625918723574300,7.83257421875,-0.05254274572916329,-0.13404197522103786,0.43904841986894605
1780625918733569000,7.842569091796875,-0.018011530574038623,-0.028140052813291547,0.34245997699052094
1780625918743564000,7.85256396484375,-0.06329203021526336,0.08852817828059197,0.2934834723755717
1780625918753559000,7.86255908203125,-0.37510757035613057,0.16469547215998173,0.28136925621181724
1780625918763554000,7.872553955078125,-0.8443336863458156,0.10960369953513145,0.20145897641181945
1780625918773550000,7.882550048828125,-0.8173110932551324,0.026382980012893676,0.16675328147262333
1780625918783545000,7.892545166015625,-0.42832726549878714,-0.012616320466995238,0.10249386752992867
1780625918793540000,7.9025400390625,0.05102167364172637,-0.05692074161767959,0.05756634604483842
1780625918803535000,7.91253515625,0.37477336996570226,-0.1424269417285919,0.005467033234238625
1780625918813530000,7.922530029296875,0.2842143434446305,-0.22516484616994856,-0.2123214389488101
1780625918823525000,7.932525146484375,0.11234393815398215,-0.1997837366759777,-0.3954454249858856
1780625918833520000,7.94252001953125,0.10409633429050445,-0.10243570760190486,-0.44745910533964633
1780625918843515100,7.95251513671875,0.11421791533231734,-0.025130934125185012,-0.4300701636433601
1780625918853510100,7.96251025390625,0.024463556257635355,-0.05536006817221641,-0.44667233887612817
1780625918863505200,7.972505126953125,-0.042048166656494135,-0.16661562656760215,-0.529921115449071
1780625918873500200,7.982500244140625,-0.0037013387359678745,-0.24745617295503614,-0.4998299285680055
1780625918883495200,7.9924951171875,0.1299133509837091,-0.31297347800433634,-0.45978404164463277
1780625918893490200,8.002490234375,0.13176394728645682,-0.39773967340290545,-0.3378802479848265
1780625918903485200,8.012485107421876,0.09147168438658118,-0.44287002398371694,-0.10527239233255385
1780625918913480000,8.02247998046875,-0.011401830110698938,-0.45327392909824843,0.13158055354356765
1780625918923476200,8.032476318359375,-0.04985854814648628,-0.4918967974811792,0.23919980126321314
1780625918933471200,8.04247119140625,0.032410569739341734,-0.5105757789880037,0.18724574214220047
1780625918943466200,8.05246630859375,0.1510112302005291,-0.505370027038455,0.017413199354708194
1780625918953461200,8.062461181640625,0.19806275810226798,-0.4609364265501499,-0.132133803512156
1780625918963456300,8.072456298828126,0.16117022064328193,-0.4065723836779594,-0.1984215084120631
1780625918973451300,8.082451171875,0.18985840885862706,-0.3294990808695554,-0.13040040384829044
1780625918983446000,8.092446044921875,0.3659315996013581,-0.2995896802961826,0.004035831387341022
1780625918993441000,8.10244091796875,0.6476793337367475,-0.3153928141057491,0.12145166597813367
1780625919003436000,8.11243603515625,0.7848983315587044,-0.400582787874341,0.13296587042212485
1780625919013431000,8.12243115234375,0.7585923623047769,-0.50912791826725,0.03090396456867456
1780625919023426000,8.132426025390625,0.5970366494752466,-0.5695756649672985,-0.1471370191156864
1780625919033421000,8.142421142578126,0.4271042995750904,-0.600461217096448,-0.30842268283218144
1780625919043416000,8.152416015625,0.2504148766301572,-0.6250730957835913,-0.39841888783872126
1780625919053411000,8.1624111328125,0.15580401743501424,-0.7001572706013918,-0.3762307291671633
1780625919063407000,8.172406982421874,0.11621683406457305,-0.7775450461864472,-0.2322609419107437
1780625919073402000,8.182402099609375,0.12768179253935813,-0.800100576865673,-0.024601357293128966
1780625919083397000,8.192397216796875,0.2154756651960313,-0.7880325379312038,0.11842559615522623
1780625919093392100,8.20239208984375,0.3974712317250669,-0.6260942555248737,0.20506196933984755
1780625919103387100,8.21238720703125,0.677722735953331,-0.21853402985334394,0.2909349569365382
1780625919113382100,8.222382080078125,0.6871392374657094,0.24153145908117293,0.417315603749454
1780625919123377200,8.232377197265626,0.11215557597503066,0.44490065302848814,0.5676712926506996
1780625919133372200,8.2423720703125,-0.5383902531087398,0.561444965481758,0.5929883969977497
1780625919143367200,8.2523671875,-1.3124889582335948,0.49405894395112987,0.24002836104184389
1780625919153362000,8.26236181640625,-1.9202968848310409,0.3926999256700277,-0.1570107628762722
1780625919163357000,8.27235693359375,-1.6814916358433663,0.4244160834044218,-0.11423866585940122
1780625919173352000,8.28235205078125,-0.9061505294419825,0.31872868053019043,0.1472416485339403
1780625919183347000,8.292346923828125,-0.041377135527133936,0.43346740486621854,0.84456325731799
1780625919193342200,8.30234228515625,0.08265358715876936,0.8318389464318752,1.917742962564528
1780625919203338200,8.312338134765625,-0.6472760136328637,0.751990918213129,2.210782636695355
1780625919213333200,8.322333251953125,-1.5702961370721458,0.6542424916446209,2.0816225882969794
1780625919223328000,8.332327880859374,-2.0668542043626306,0.5263356581777334,1.8104307349674402
1780625919233323000,8.342322998046875,-2.0406782912291583,0.48358372716605663,1.8309626508645713
1780625919243318000,8.352318115234375,-1.32082993946895,0.2949023992627859,1.7629563054785131
1780625919253313000,8.36231298828125,-0.1348562872786075,-0.24686814393401144,1.1754802421614527
1780625919263308000,8.37230810546875,0.7651600502572953,-0.7089572476506233,0.6204080265820026
1780625919273303000,8.382302978515625,1.2445746750451623,-0.8385212006747722,0.35804508413523434
1780625919283298000,8.392298095703126,1.518369404349476,-0.84052085005939,0.031161738722026346
1780625919293293000,8.40229296875,1.1889257069289683,-0.6638701516896486,-0.3271083863407373
1780625919303288000,8.4122880859375,0.3585783142291009,-0.2993202157050371,-0.5239290354274213
1780625919313283300,8.422283447265626,-0.527318385604769,-0.05705342808663845,-0.6804873783610761
1780625919323278000,8.432278076171874,-1.2861327200971544,-0.04339665865600109,-0.8441020695470273
1780625919333273000,8.442273193359375,-1.5486207502283156,-0.1221586452037096,-0.8616770353347063
1780625919343268000,8.45226806640625,-1.3761854775965212,-0.14852116695046425,-0.5710292247764766
1780625919353264000,8.46226416015625,-0.9519115060765295,-0.11410334904193878,-0.024916999113559723
1780625919363259100,8.472259033203125,-0.7280605920493602,-0.15495266130268573,0.47413960699439045
1780625919373254100,8.482254150390625,-0.3533867369353771,-0.2195774014264345,0.7620369498006999
1780625919383249200,8.492249267578124,0.4437082283735275,-0.19314239896535873,0.7100615556307137
1780625919393244000,8.502243896484375,1.1243710363667458,-0.12982114265561104,0.41238472321853037
1780625919403239000,8.512239013671875,1.554989554607868,-0.11504735189378261,0.10425284002646804
1780625919413234000,8.52223388671875,1.641816774189472,-0.09584989947080612,-0.09358049323409795
1780625919423229200,8.532229248046875,1.3782652064800263,-0.09579670797884464,-0.06157061325013637
1780625919433224200,8.54222412109375,0.8370282587032765,-0.020216274076700208,0.18055077454820273
1780625919443219200,8.55221923828125,0.46457207963876423,0.14757541053295134,0.46090924628227947
1780625919453214200,8.562214111328124,0.28920499133877453,0.2412935586720705,0.6863885652288794
1780625919463209200,8.572209228515625,0.22573066335916517,0.15770225227177143,0.7578612715512514
1780625919473204200,8.582204345703126,0.19671974599547684,-0.06365910996198654,0.8253541144572198
1780625919483199200,8.59219921875,0.22586977956891058,-0.3280506356269121,0.8833927541889249
1780625919493195000,8.602195068359375,0.3059271396894008,-0.4164496345698833,0.8001068604759871
1780625919503190000,8.61218994140625,0.3007516367476433,-0.47963002110421654,0.6530128037191927
1780625919513185000,8.62218505859375,0.16873276485204697,-0.48978725798130035,0.4084295558519661
1780625919523180000,8.632179931640625,0.02044080354757607,-0.4414537274450063,0.18762042067348955
1780625919533175000,8.642175048828125,-0.14652918941564858,-0.34501287634372707,0.04678396300673485
1780625919543170300,8.65217041015625,-0.48420624297857284,-0.11040507904589175,-0.05499444973021746
1780625919553165300,8.662165283203125,-1.0154302577197551,0.2197860757410526,-0.16963614343255756
1780625919563160000,8.67216015625,-1.4739865111351012,0.41090953609943387,-0.2735429465003312
1780625919573155000,8.682155029296876,-1.5560744272351263,0.3235007172375917,-0.39489699732288713
1780625919583150000,8.692150146484375,-1.4354852233052253,0.02093698956668377,-0.48482364422455426
1780625919593145000,8.70214501953125,-1.2277964125931262,-0.28118951573073864,-0.5422147798329592
1780625919603140000,8.71214013671875,-0.7697206361711024,-0.36273791812658307,-0.6786722917631268
1780625919613135000,8.722135009765625,-0.3030594022333622,-0.07448270179331302,-0.7879113957695663
1780625919623130000,8.732130126953125,-0.04776132013890892,0.3171060477644205,-0.8712773689813912
1780625919633125000,8.742125,-0.07603811454176902,0.6912088249921798,-1.0060520423911512
1780625919643121000,8.752120849609375,-0.4496959975462407,1.09009591486454,-0.9125859693169593
1780625919653116000,8.762115966796875,-0.7302337713699787,1.312951315048337,-0.7328693075053393
1780625919663111200,8.772111083984376,-0.6894307094037533,1.159841651263833,-0.6057224986255169
1780625919673106200,8.782106201171874,-0.5155612392503768,0.6356599562495947,-0.49910848242565986
1780625919683101200,8.79210107421875,-0.14945866699628532,0.006585808131098747,-0.4909462187580764
1780625919693096200,8.80209619140625,-0.1003027141612023,-0.3680395316660404,-0.6446148315995931
1780625919703091200,8.81209130859375,-0.1798678337853402,-0.29190789362192154,-0.6015900749959051
1780625919713086200,8.822086181640625,-0.08895129906348884,-0.00877425808608532,-0.333904183960706
1780625919723081200,8.832081298828125,0.2054782219905406,0.09291267697513103,-0.059934098089486354
1780625919733076000,8.842075927734374,0.47826633153557774,0.02085807911157608,0.10604016183465718
1780625919743071000,8.852071044921875,0.48121575592570004,-0.006610358050465583,0.16359993200823664
1780625919753066800,8.862066650390625,0.4312192606132477,0.12777823865115642,0.15694135090187192
1780625919763062000,8.87206201171875,0.3155973237019032,0.2303998242139816,0.023296119913458823
1780625919773057000,8.88205712890625,0.09068155692219734,0.22852876964509486,-0.2892161703199148
1780625919783052800,8.892052734375,0.11801621163673698,0.22333237004578113,-0.5302540737304836
1780625919793047800,8.9020478515625,0.18247019830346106,0.2337035419344902,-0.40716954585351045
1780625919803042800,8.912042724609375,-0.11996617666073142,0.22276479929089546,-0.24988975677751002
1780625919813037800,8.922037841796875,-0.717070411479473,0.16378011088073252,-0.01656001659147441
1780625919823032800,8.93203271484375,-1.1071744754374027,0.08387538403868675,0.4108934617474675
1780625919833027800,8.94202783203125,-0.8688018457133323,0.02444645899236202,0.9323578606270253
1780625919843022800,8.95202294921875,0.0002570800336077809,-0.14341829085350036,1.4778563383057712
1780625919853017900,8.962017822265626,1.0617863507032395,-0.43800621733963485,1.931510206632316
1780625919863012900,8.972012939453125,1.6523814228236675,-0.7890724023729563,2.0387645665623246
1780625919873007900,8.9820078125,1.6564894426643848,-1.0381751734912394,1.7645801072880625
1780625919883003000,8.9920029296875,1.4106956499636172,-0.8325877189725637,1.137417418814078
1780625919892998000,9.001997802734374,1.3239327277898787,-0.4286608813673258,0.05775229707099497
1780625919902993000,9.011992919921875,1.53213942489624,0.002514028647542,-0.8598902980484068
1780625919912988000,9.02198779296875,1.7181401354134083,0.28957097510695456,-1.1576646725509314
1780625919922983000,9.03198291015625,1.6322434746801853,0.29332711277008056,-1.5172211110971867
1780625919932979000,9.04197900390625,1.3293769646704197,0.07852876231372356,-1.8723250272139906
1780625919942974000,9.051973876953125,0.7691687744420022,0.017245733833312987,-1.8408201741427181
1780625919952969000,9.061968994140624,0.45578324503805484,0.009536474630236625,-1.3983081698164344
1780625919962963700,9.071963623046875,0.5014391173303127,-0.004528875601291656,-0.7481830503627658
1780625919972958700,9.081958740234375,0.5541209062039851,-0.14229074812829492,-0.19127934503983704
1780625919982953700,9.09195361328125,0.7686229040622711,-0.32600597805678844,0.26577457752116024
1780625919992949000,9.101948974609375,0.8904828585803508,-0.4227414281904697,0.32467684834487737
1780625920002944000,9.111944091796875,0.7546868062335997,-0.6929477776139974,-0.09281893427707254
1780625920012939000,9.12193896484375,0.5543547149598598,-0.8814759607821703,-0.5844971205715089
1780625920022934000,9.13193408203125,0.2091513575453311,-1.2137614574998616,-0.9954504227474331
1780625920032929000,9.141928955078125,0.1707387709122151,-1.4277987604558466,-0.9435537198368459
1780625920042924000,9.151924072265626,0.21852931714560836,-1.451877555179596,-0.6308042598467319
1780625920052918800,9.161918701171874,0.20998945233728736,-1.3392360953837632,-0.26140823553781956
1780625920062913800,9.171913818359375,0.14520342070460318,-1.1730360638797281,-0.055838663735706354
1780625920072909800,9.181909912109376,-0.36901108011193573,-1.006980409282446,-0.08480884723020717
1780625920082904800,9.19190478515625,-0.15153503487892447,-0.7475719327270984,0.16014237543288617
1780625920092899800,9.20189990234375,0.9887328049302101,-0.1335556530088186,0.7821537820909172
1780625920102894800,9.211894775390626,1.4603566297113895,0.5409837767332792,1.4570793616063893
1780625920112890000,9.22189013671875,0.9054313483219594,0.847779442885518,1.8052793435536323
1780625920122884900,9.231884765625,0.8981482055764645,0.29451836838126183,1.939095254933834
1780625920132880000,9.2418798828125,0.4643793335456401,-0.5290764813184737,1.9837983200132845
1780625920142875000,9.251875,0.008947934152558446,-1.0789157646805048,1.7885814528614281
1780625920152870000,9.261869873046875,0.06422032404132187,-1.2263128960371017,1.2885749986827373
1780625920162865000,9.271864990234375,0.17873970653824506,-1.0167997925072907,0.5716198841460048
1780625920172860000,9.28185986328125,-0.6829905202884227,-0.7333113521844148,-0.2584086701293476
1780625920182855000,9.29185498046875,-0.30785365077257154,-0.8817483479827642,-0.39388424008376893
1780625920192850000,9.301849853515625,1.2426537899851797,-1.4507505969762802,-0.2543504990460351
1780625920202845000,9.311844970703126,0.9495756835401058,-1.63100370375216,-0.7835441404707729
1780625920212840000,9.32183984375,0.8905494210105389,-1.4598358207076787,-1.6992475111559033
1780625920222835700,9.331835693359375,0.8138285849016159,-0.9890402634441852,-2.6209727724790572
1780625920232831000,9.3418310546875,0.03835983353257179,-0.5644412246882915,-3.3349060549765825
1780625920242826000,9.351825927734374,0.2406218699555844,-0.4099398142844438,-3.250954975353181
1780625920252821000,9.361821044921875,0.0035607612214982507,-0.6006973639398813,-2.406600392349809
1780625920262816000,9.37181591796875,-0.5898338784895837,-1.2326783394157885,-1.4161140217505395
1780625920272811000,9.38181103515625,-0.4858489686843008,-1.6856085696429013,-0.4686933608198538
1780625920282806000,9.391805908203125,-1.0327835435807704,-1.4964572861403227,0.07308708271645009
1780625920292801000,9.401801025390625,-0.4913958622217178,-0.7406418412029743,0.17099899275097996
1780625920302795800,9.411795654296874,0.29882278757691383,0.16552198611199856,0.09251010578991845
1780625920312790800,9.421790771484375,-0.015309651204198598,0.837656108278036,0.05715254107955843
1780625920322785800,9.431785888671875,1.0833877955280244,1.2775783883720635,0.4401727842563763
1780625920332780800,9.44178076171875,1.1297509027741848,1.4357511807650327,0.4726346092589199
1780625920342775800,9.45177587890625,-0.627147563970089,0.9479121342420578,-0.10796438962919637
1780625920352772000,9.461772216796875,-1.3375041570246218,0.2239385192453861,-0.630418913790956
1780625920362767000,9.47176708984375,-1.9890135704435408,-0.35318156975209714,-0.7488317965950816
1780625920372761900,9.481761962890625,-2.8405145180702207,-0.7250450436204672,-0.6183160958040506
1780625920382756900,9.4917568359375,-1.8767922357559204,-0.8269879992693662,-0.23026118292827158
1780625920392751900,9.501751953125,0.6422295438982546,-0.46290918792784214,0.3622521439036354
1780625920402747000,9.511746826171875,0.7135879761911929,0.5920154603123664,0.859250611905381
1780625920412742000,9.521741943359375,-0.22938392516970632,1.6505442705243825,0.8123170843601226
1780625920422737000,9.53173681640625,-1.1483737701795995,2.105598653298616,0.23663407896105199
1780625920432732000,9.54173193359375,-2.5509362364396453,1.8569301819443702,-0.445676240510866
1780625920442727000,9.551726806640625,-2.3229881892919537,1.1111907253414393,-0.8896048336368053
1780625920452722000,9.561721923828125,-1.862132134501636,0.5206003293961287,-0.5592413179576396
1780625920462717000,9.571717041015624,-1.184346270184219,0.31404607567191123,0.30768435862027105
1780625920472711700,9.581711669921875,0.19165537527799606,0.3264993145316839,1.0330998429883271
1780625920482706700,9.591706787109375,0.360752735658735,0.34938802268803115,1.1439594608686863
1780625920492702000,9.601701904296876,-0.2089817731320858,0.3328384544253349,1.0278919721469282
1780625920502698000,9.611697998046875,-0.5720388402104377,0.17834931898117065,0.6900504487372935
1780625920512693000,9.62169287109375,-0.8776055490896105,-0.2721194895684719,0.1777541660996154
1780625920522688000,9.63168798828125,-1.1286392882704734,-0.8319003212302922,-0.2672028932912275
1780625920532683000,9.64168310546875,-0.9131482793748378,-1.1370984890580176,-0.30131201057676227
1780625920542677800,9.651677734375,-0.03680851243734359,-1.0093921465992928,0.11754333342798054
1780625920552672800,9.6616728515625,0.17887772676944733,-0.5579366650998592,0.2735074733281508
1780625920562667800,9.671667724609375,0.34489831005334853,0.03073416095972061,-0.042563422702252864
1780625920572662800,9.681662841796875,1.4931912700816987,0.6382242537796496,-0.5540703085279092
1780625920582657800,9.69165771484375,2.88334565179795,1.0751309854447841,-0.9445566132690757
1780625920592652800,9.70165283203125,2.277037462238967,1.4362743278563022,-1.1806256422258914
1780625920602647800,9.711647705078125,-0.3493454987205565,1.5718746384352444,-1.3241767656788228
1780625920612643000,9.72164306640625,-0.6796876062855124,1.2728922763824462,-1.4605344704963266
1780625920622638000,9.73163818359375,0.5145359147906303,0.7496177593410015,-1.398827225254476
1780625920632633000,9.741633056640625,0.46174745067209005,0.23231939409971236,-0.8448992843393236
1780625920642628900,9.75162890625,-0.4216425270378589,-0.04492459887564182,-0.040814021751657124
1780625920652624000,9.761623779296874,-2.0021207431674,0.1878887162208557,1.251491760957241
1780625920662619000,9.771618896484375,-3.477152379441261,1.0342729053556918,3.5932130000308153
1780625920672614000,9.78161376953125,-2.684558232682943,1.9360195007503032,6.336189227151871
1780625920682609000,9.79160888671875,1.1880033313870428,2.181652549931407,7.232991351881623
1780625920692604000,9.80160400390625,3.3566239657878874,1.3702315376281737,3.819759655947983
1780625920702599000,9.811598876953125,0.8500022335015237,1.1059311973780392,-1.0616355440557002
1780625920712594000,9.821593994140626,-2.551559629034996,2.28901460801959,-3.8500285374835133
1780625920722588700,9.831588623046875,-1.463333161304146,3.1767157269269224,-3.7983606018275022
1780625920732584000,9.841583984375,0.2164239058315754,3.0179122354149817,-1.9095159630976617
1780625920742579000,9.851578857421876,-0.6910908977009356,2.388425999364257,-0.3319641558088362
1780625920752573000,9.861572998046874,-0.7299076812207699,1.6076830339193344,0.06661547554954886
1780625920762568000,9.87156787109375,0.11224793043360114,1.4604144973784685,-0.16315174984931946
1780625920772563200,9.881563232421875,0.24169746329784392,1.6473551190942526,-0.254868933429569
1780625920782558200,9.89155810546875,0.11550737062096596,1.876384239476919,-0.16202859103828668
1780625920792554200,9.90155419921875,0.08646247792243957,1.9323691615492105,0.10238763067647814
1780625920802549200,9.91154931640625,-0.057168578898906704,1.8158774560660123,0.29371728113144635
1780625920812544000,9.9215439453125,0.22890454415492711,1.837211920517683,0.23462986299917102
1780625920822539000,9.9315390625,0.7847743398528546,1.9825299075126648,0.15888532457649707
1780625920832534000,9.941533935546875,0.6654932959120721,2.1512287700951096,0.14202347549423575
1780625920842529000,9.951529052734376,0.31858554573245346,2.3224615350693463,-0.0024792495951056477
1780625920852524000,9.96152392578125,0.15662373632006346,2.314045004379749,0.004745440961420536
1780625920862519000,9.97151904296875,-0.09452427689023316,1.8400363302886484,-0.07239975803941488
1780625920872514000,9.98151416015625,-0.27895371950268744,1.271943597355485,-0.16459581117779015
1780625920882509000,9.991509033203124,-0.20362989071011542,1.0628004961818456,-0.021513912671804428
1780625920892504300,10.00150439453125,-0.32770985936522484,1.1337994475126265,0.3281330532133579
1780625920902499000,10.0114990234375,-0.3956932987997308,1.3180273031383751,0.702852647165209
1780625920912494000,10.021494140625,0.010619630224443972,1.577407138121128,1.1893771039582788
1780625920922489000,10.031489013671875,-0.2029155684283003,1.7227309703350067,1.5383448554076253
1780625920932485000,10.041485107421876,-1.0695207443475723,1.5571026012390852,1.5939537837743758
1780625920942480100,10.051480224609374,-1.489824716258049,1.4220254377514123,1.5576444530308247
1780625920952475100,10.06147509765625,-1.15913847143054,1.5842425370991229,1.7071698285877703
1780625920962470100,10.07147021484375,-0.793358701390028,1.8811200358271598,1.857283233165741
1780625920972465200,10.081465087890624,-0.6171773740977049,2.067261616119742,1.9011472170725463
1780625920982460000,10.0914599609375,-0.5550701697528362,2.0015888282477854,1.9470912221238017
1780625920992455000,10.101454833984375,-0.14740122300982475,1.5740584122151136,1.8789613964885472
1780625921002450000,10.111449951171876,0.5511468222966417,0.9231465262979268,1.7271061166793107
1780625921012445200,10.121445068359375,1.2974872039347887,0.21885259428322315,1.4548039640203116
1780625921022440200,10.131440185546875,2.5192957742899655,-0.5194669414520263,0.9812325123026967
1780625921032435200,10.141435302734376,4.207435908237099,-0.9680196872472763,0.269256501352787
1780625921042430200,10.15143017578125,5.923605035838484,-0.7978922531664371,-0.72452686496526
1780625921052425200,10.16142529296875,6.929934872257709,-0.4738941078007221,-2.1894053560152646
1780625921062420200,10.171420166015626,7.065554472059011,-0.5982382803499698,-3.9158436564356087
1780625921072415200,10.181415283203124,4.518687384754419,-0.7719201920419931,-3.9361686515837904
1780625921082411000,10.191410888671875,2.2274667911231516,-1.0454296746641396,-3.051376698121428
1780625921092406000,10.201406005859376,3.7789246644735335,-1.764746988287568,-3.369638637922704
1780625921102401000,10.211401123046874,5.830322941029071,-2.293037872186303,-4.473709594386816
1780625921112396000,10.22139599609375,5.135030646115541,-2.1592799746036526,-5.003821848493814
1780625921122391000,10.23139111328125,1.3632543920919298,-1.7210393639862536,-4.041311864578724
1780625921132386300,10.24138623046875,-2.5424071852862835,-1.2408593077838421,-2.0051494433388113
1780625921142381300,10.25138134765625,-4.08559290485382,-0.9103589409172534,-0.431253674339503
1780625921152376000,10.2613759765625,-3.9858360610723493,-0.8399673078298568,0.2095239171847701
1780625921162371000,10.27137109375,-3.690245679545402,-0.8931956246703863,0.36402386628389355
1780625921172366000,10.281365966796875,-2.330961360128224,-0.5316051230132579,0.25674963260963557
1780625921182361000,10.291361083984375,1.6008648783370851,0.4165846591264009,-0.6778619982935488
1780625921192356000,10.301356201171876,3.5785122745051976,1.6937673261791466,-0.35677871746122836
1780625921202351000,10.31135107421875,2.2281135645940897,2.8036954842388626,1.758137214758992
1780625921212346000,10.32134619140625,0.8856929939553141,3.1106162380754947,3.5191704432204363
1780625921222342000,10.331341796875,0.5820306573927402,2.7619495153993365,4.0106911008656025
1780625921232337000,10.3413369140625,-1.3110200547248125,2.169855729153752,2.7694807876870033
1780625921242332000,10.351331787109375,-1.9385417127043008,1.7679273718893527,0.4899269952455535
1780625921252327200,10.3613271484375,-0.28503187037259337,2.0333874035686255,-1.2849841345839201
1780625921262322200,10.371322265625,2.3717855379477144,2.6643425431281327,-1.8543140080966054
1780625921272317200,10.381317138671875,3.862020880833268,3.194292884671688,-1.3238435882017017
1780625921282312200,10.391312255859376,2.9494477709978817,3.3046307437002658,-0.23912286356948315
1780625921292307200,10.40130712890625,1.0967699858009814,3.1692771013587713,0.5425022184722125
1780625921302302200,10.41130224609375,0.17118278835266829,2.7885657196462152,0.8336924653440714
1780625921312297200,10.421297119140625,0.4133966767400503,2.4314222605258227,0.9572989712685346
1780625921322292000,10.4312919921875,0.9930880775302648,2.0580653332293033,0.45406507947593927
1780625921332287000,10.441286865234375,0.24535306319594383,1.7483149089246988,-0.27533216800466176
1780625921342282000,10.451281982421875,-2.152013782992959,1.7008166601687669,-0.4430344207651913
1780625921352277000,10.461277099609376,-4.942269355422258,1.802242898467183,0.2775844769760966
1780625921362272000,10.47127197265625,-5.816697151258587,1.5063614250391721,1.532492183856666
1780625921372268300,10.481268310546875,-4.303094669049978,0.6751543467700482,3.0753955793514844
1780625921382263300,10.49126318359375,-2.757072264751792,-0.30000761344730853,4.856059390956163
1780625921392258000,10.501258056640625,-2.875048655834794,-1.490042742922902,5.858866313946247
1780625921402253000,10.511253173828125,-4.034795614552498,-2.9536458072096106,6.112713649243116
1780625921412248000,10.521248046875,-5.348624881479144,-4.3524429295867675,6.203631353008746
1780625921422243000,10.5312431640625,-6.342184083652496,-5.472292177680134,6.070395433473586
1780625921432238000,10.541238037109375,-7.03929774877429,-6.342617214372754,5.793186511811614
1780625921442233000,10.551233154296876,-7.469142871490121,-6.9645303848207,5.388683920145034
1780625921452228000,10.56122802734375,-8.554330556046962,-7.716708934560418,4.5351907757878305
1780625921462223000,10.57122314453125,-9.096442460027337,-8.747740666037798,3.4062793925777077
1780625921472218000,10.581218017578125,-8.424003217434883,-9.489610587731002,2.6500384157046675
1780625921482213000,10.591213134765624,-6.802071877932548,-9.390761506444216,2.2115499678060413
1780625921492208000,10.6012080078125,-3.378046693044901,-8.647054432451725,1.7765350412368774
1780625921502203000,10.611202880859375,-1.8001923956781625,-7.366579153594374,2.494400402486324
1780625921512199200,10.62119921875,-3.3086867410928007,-7.12686029689312,3.4365453515037894
1780625921522194200,10.631194091796875,-0.8588526255637406,-7.187576923662424,3.83806103631407
1780625921532189200,10.641189208984375,6.963770506364106,-3.781305422130227,3.7122321781650185
1780625921542184200,10.65118408203125,2.3252543806582686,1.404119778704643,2.783086995974183
1780625921552179200,10.66117919921875,-3.1876398565232753,5.2542035535067315,3.8265547229155894
1780625921562174200,10.67117431640625,2.1840514277666805,7.626144866538048,2.2646406297415496
1780625921572169000,10.6811689453125,1.5646873572796582,7.977821292424202,-0.8897937072724104
1780625921582164000,10.6911640625,-1.7288047372907398,6.610707594555616,-2.295147411686182
1780625921592159000,10.701158935546875,0.16603168919980524,4.50486578015089,-4.210677958898246
1780625921602154000,10.711154052734376,2.9725130047649144,3.961535732552409,-3.7096558979362246
1780625921612149000,10.72114892578125,1.3760586363464593,3.683043200820684,-1.2989981930196284
1780625921622144000,10.73114404296875,0.9989689522624016,2.9537995364665983,-0.9022188890814781
1780625921632139300,10.74113916015625,1.8250374985992908,3.2365795362591743,-0.7445201439410447
1780625921642134300,10.75113427734375,1.9924644415497779,3.9556133567661043,-0.47990357734858985
1780625921652129300,10.76112939453125,1.6306985833257437,4.151376167362928,-0.8438689914435148
1780625921662125000,10.771125,1.1185814201146365,3.583083527943492,-1.113899399778247
1780625921672120000,10.7811201171875,0.6443479973569513,2.438098669549823,-1.0781447803080082
1780625921682115000,10.791114990234375,1.392937290433049,1.2559779664605855,-0.9451163660436868
1780625921692110000,10.801110107421875,2.0434873573005197,0.36351591676175593,-0.4035217639356851
1780625921702105000,10.81110498046875,1.9514795202106237,-0.44632980904877184,-0.14302666118741034
1780625921712100000,10.82110009765625,1.0838345163822174,-0.5427554625809192,-0.24314181688725947
1780625921722095000,10.83109521484375,-0.7215577860265969,-0.14466975221931933,-0.2090244432300329
1780625921732090000,10.841090087890626,-1.6251725133806465,0.002769464713335037,-0.13146189559996127
1780625921742085000,10.851085205078125,-3.130031717163324,-0.4749357258081436,0.8381126198738813
1780625921752080100,10.861080078125,-3.7072406534880398,-1.5442057102650404,0.9605606034129858
1780625921762075100,10.8710751953125,-2.9315871201366184,-2.3952403555542228,1.1195838751554488
1780625921772070100,10.881070068359374,-3.230385942316055,-3.0154268483400344,1.3141273730903864
1780625921782065200,10.891065185546875,-1.8407079459398983,-3.2428158003002405,0.7258417469561099
1780625921792060400,10.901060302734376,-0.6295312442362309,-2.290801491436362,1.1319599571257828
1780625921802055400,10.911055419921874,-0.1719371138513088,-0.8878723838210105,0.639631782490015
1780625921812051200,10.92105126953125,-0.8688999723255634,0.009532967498898506,0.40935821500420566
1780625921822046200,10.931046142578126,-2.53109259506762,-0.509060698249936,0.5647206261515617
1780625921832041200,10.941041259765624,-1.7150205420881508,-1.2715823628276586,0.4176607639253139
1780625921842036200,10.9510361328125,-1.8074878133833407,-1.1617846020251512,0.3320756533592939
1780625921852031200,10.96103125,1.0908154613107441,-0.4052776676923036,-0.12693243547677993
1780625921862026200,10.971026123046874,1.9317852241814135,1.7298539540827274,1.4489993693947791
1780625921872021200,10.981021240234375,-0.20207213987410066,3.0461148320704696,1.6028694961577652
1780625921882016300,10.991016357421875,-0.7852753481775522,3.3900779071003195,0.09751578685641288
1780625921892011300,11.00101123046875,-1.9910352855294942,3.2129923244446514,-1.554976695126295
1780625921902006300,11.01100634765625,-1.3394441851764916,2.6187714630424974,-4.017995870921015
1780625921912001300,11.021001220703125,0.540674564653635,2.24147602725327,-5.793326212543249
1780625921921996300,11.030996337890626,1.2207032394617796,2.48487854090333,-5.963378827822208
1780625921931991300,11.0409912109375,2.8902731129735706,3.05366685488522,-7.3628592562884085
1780625921941986300,11.050986328125,5.198489849591255,4.166505347433686,-8.103608649519085
1780625921951981300,11.060981201171876,5.9860460021823645,6.0563277451544995,-7.3696478935152285
1780625921961977300,11.070977294921875,7.598301750844716,8.017005301821232,-6.90997812590003
1780625921971972400,11.080972412109375,8.601710731381177,9.277703867062925,-6.589055734717846
1780625921981967000,11.090967041015626,7.058295879232883,9.084396632924676,-6.1190820152312515
1780625921991962000,11.100962158203124,3.9379178333386777,7.449781752938032,-5.566123723065853
1780625922001957000,11.11095703125,2.003423057937622,4.926202017718553,-4.441777163553238
1780625922011952000,11.1209521484375,0.9153335144594311,2.362300208982825,-1.3886924924701451
1780625922021947400,11.130947509765624,-1.1703104383081198,0.07373422151356936,2.8876386728167533
1780625922031942400,11.1409423828125,-2.364839956593513,-2.088803293581307,5.646724615478515
1780625922041937400,11.1509375,-3.1765123133093116,-3.8171547341465946,6.498676375612616
1780625922051932400,11.160932373046874,-4.857088734003901,-4.978853995975852,5.67955837906599
1780625922061927400,11.170927490234375,-6.058017597937583,-4.745938974070548,4.50680522378087
1780625922071922200,11.180922119140625,-4.472141906678677,-2.8009564146637915,3.630940673139691
1780625922081917200,11.190917236328126,-1.8417372889876364,-1.0763649111539124,2.687273921382427
1780625922091912200,11.200912109375,-0.9461042080372571,-0.7464794613152742,1.535558293429017
1780625922101907200,11.2109072265625,-0.40901393161118027,-1.2148878311812876,0.5692828195005655
1780625922111902200,11.220902099609376,-0.2609960380077362,-1.5998995404362677,0.925968013459444
1780625922121898200,11.230898193359375,-0.9759136553674935,-1.800042465813458,2.229362395611405
1780625922131893200,11.240893310546875,-2.8934043967366216,-2.2819576752454043,2.229851640433073
1780625922141888300,11.25088818359375,-3.3804759660184382,-2.5880191819041967,1.7597446499556302
1780625922151883300,11.26088330078125,-2.3107962317168713,-2.095747267500311,1.5539093581557273
1780625922161878300,11.270878173828125,-0.28742344168424605,-1.0770160685390233,1.0849977149426937
1780625922171873300,11.280873291015626,2.6870120555758477,-0.27925401762351393,1.621111839812994
1780625922181868300,11.290868408203124,1.644066014420986,-0.3181700237341225,1.9684177955299615
1780625922191863300,11.30086328125,-0.7430921569645405,-0.8814477576009929,1.9120289688318968
1780625922201858300,11.3108583984375,-1.4007628694921732,-0.9509836506418883,1.2219459329992532
1780625922211853300,11.320853271484374,1.2572504706144332,0.21689218093045054,1.671286029779911
1780625922221848300,11.330848388671875,2.786311218717694,1.9309660167530178,2.6142110232591627
1780625922231843300,11.34084326171875,1.28027069619596,2.6203935112863777,2.126791078931093
1780625922241838300,11.35083837890625,-1.1284849744915961,2.1641890816941856,1.469303906276822
1780625922251833000,11.3608330078125,-3.608556991896033,1.2039796298064291,1.3714981965631245
1780625922261828000,11.370828125,-3.5290830576866865,0.3830017942046746,2.7358243095397947
1780625922271824400,11.380824462890626,-2.7202351107418536,-0.027610074122436344,4.302757984441518
1780625922281819400,11.3908193359375,-2.8056355123907326,-0.24614346465496345,5.623698544678092
1780625922291814400,11.400814453125,-3.1329017196416853,-0.3603320625612512,5.822233158075809
1780625922301809400,11.410809326171876,-2.077016117414832,0.01980084340991452,5.4947904252141715
1780625922311804400,11.420804443359375,-2.225934759250283,0.1905624837410636,4.318734721252322
1780625922321799200,11.430799072265625,-3.4775855101615187,-0.057775093424692746,2.0292244386702776
1780625922331794200,11.440794189453126,-3.7454344828039408,-0.043075226415600625,2.1739695942133666
1780625922341789200,11.4507890625,-4.839759413540363,0.11095502281254156,3.126305974638462
1780625922351784200,11.4607841796875,-3.819994341486692,-0.06723976319404319,3.3810867913931606
1780625922361779200,11.470779296875,-0.01897182697355747,0.03989464188441634,4.409913121780753
1780625922371774200,11.480774169921874,0.9164876529306173,0.4531869449345395,4.713934647044539
1780625922381769200,11.490769287109375,-1.3805489335030317,0.7077615350600331,3.2009254545539614
1780625922391764200,11.50076416015625,-2.6646932562619448,0.9701059920020401,1.6772937457621098
1780625922401759500,11.510759521484376,-0.9450409627199172,1.4404880000285802,0.10349369222223759
1780625922411754500,11.52075439453125,2.472352236807346,2.7274261912897226,-1.1042968741744756
1780625922421750300,11.530750244140625,4.782130231392383,4.448030378729105,-1.5281681831777094
1780625922431745300,11.540745361328124,4.577953228193521,4.685185522422194,-2.2593816863000393
1780625922441740300,11.550740234375,2.4387182627528903,3.116505588375032,-2.6559569920986887
1780625922451735300,11.5607353515625,0.4759072011888027,0.8743214128524065,-2.678340088820457
1780625922461730300,11.570730224609376,-0.0026958149552345273,-0.49275392576716837,-2.218535296648741
1780625922471725300,11.580725341796875,1.4595909060359,-0.6320407428391277,-1.568455185380578
1780625922481720300,11.59072021484375,3.6062469613879915,0.6352447995774447,-0.5344184268683195
1780625922491715000,11.600715087890626,3.7975375950068235,2.245137910761684,0.05140811567604541
1780625922501710000,11.6107099609375,1.771820872196555,2.47190712338835,-0.8168459599614143
1780625922511705000,11.620705078125,-1.0671066689431667,1.6516519395053386,-2.2447540260106322
1780625922521700400,11.630700439453125,-2.6750053914397953,0.6274453778728842,-2.0138918449819085
1780625922531695400,11.6406953125,-1.5024708473414181,-0.49836730866953727,0.6774187845706939
1780625922541690400,11.6506904296875,0.7789321166306734,-0.8846133089598268,4.581713457509875
1780625922551685400,11.660685302734375,1.0897142220705747,-0.09954057068228721,6.626786622697114
1780625922561680400,11.670680419921876,-1.8972376424133777,0.570358047516644,4.827200376218557
1780625922571675400,11.68067529296875,-3.2852222788751124,0.05401398732550442,0.5599836607575416
1780625922581670400,11.69067041015625,-1.8451549884766338,-0.9979966731641441,-1.664046141654253
1780625922591666200,11.700666259765624,-0.24796646056473254,-1.5940091672234236,-1.7194547251433132
1780625922601661200,11.7106611328125,0.35513562642931934,-1.3070888527557254,-0.5070879368722438
1780625922611656200,11.72065625,-0.048806993266940116,-0.11421952276751399,1.2668641021341085
1780625922621651200,11.730651123046876,0.7615940283387899,1.1524008337385951,2.993366407701373
1780625922631646200,11.740646240234375,0.5121458047837019,1.85920090335533,3.9598172381967305
1780625922641641500,11.750641357421875,-0.7594213604748249,1.8019664196133613,1.9091858543604612
1780625922651636500,11.760636474609376,0.4206155220776796,1.1642688200563192,-1.027262149810791
1780625922661631200,11.77063134765625,1.8859134075835347,0.23572131149768827,-3.0523347294986247
1780625922671626200,11.780626220703125,2.1566502106219527,-0.23723602690957485,-3.5297838994324207
1780625922681621200,11.790621337890625,1.9792606765836476,-0.39263745489306745,-2.724238501164317
1780625922691616300,11.8006162109375,1.8778467132449148,-0.1955725487217307,-1.5285294177055357
1780625922701611300,11.810611328125,0.8529635675251483,0.2387107025720179,-0.7590455128997564
1780625922711606300,11.820606201171875,0.7015735671401023,0.49124958561882376,-0.7238029346048831
1780625922721601300,11.830601318359374,0.6394803913205862,0.5876939438514411,-1.8011060033917425
1780625922731596300,11.84059619140625,1.241066520793736,0.3581717792548239,-4.047317826995253
1780625922741592000,11.850592041015625,2.85133284920454,0.22263912708461284,-5.019784556779265
1780625922751587300,11.86058740234375,3.0403990847721696,0.4658699374295771,-3.9888241369724273
1780625922761582300,11.870582275390625,2.109133549426496,0.5770962697304785,-2.6804922984182835
1780625922771577300,11.880577392578125,1.0979857913315296,0.7063805290304124,-1.341700439670682
1780625922781572400,11.890572265625,-0.3039607349872589,0.5138149070397019,-0.31964871798455713
1780625922791567400,11.9005673828125,-1.3942469117268919,-0.1416788998402655,-0.24196575884521007
1780625922801562400,11.910562255859375,-1.0304840344667434,-0.9260866714030503,-0.7664929062962531
1780625922811557400,11.920557373046876,-0.12143909875750541,-1.5708030636809764,-1.666378968515992
1780625922821552400,11.930552490234374,0.5473723087266087,-1.77948599999696,-2.1831746449321505
1780625922831547400,11.94054736328125,0.5724395299658179,-1.6034233306482433,-1.7533850517958403
1780625922841542400,11.95054248046875,-0.7200266309365629,-1.4332856674343346,-1.2306260830610989
1780625922851537400,11.960537353515624,-2.30883136138469,-1.17427744224295,-0.819556387963891
1780625922861532400,11.970532470703125,-2.9049115869179367,-0.7579267380028962,0.018935002094507217
1780625922871527400,11.98052734375,-2.2548843748807905,-0.6381601025022566,0.3074807258069515
1780625922881522400,11.9905224609375,0.013893793056905268,-0.9705255325883626,-0.04825695816874504
1780625922891517400,12.000517333984375,1.8737535987123846,-1.092883353625983,-0.7712538370877504
1780625922901513200,12.01051318359375,1.4992822804331778,-0.902030673032999,-1.8111825762480496
1780625922911508200,12.02050830078125,0.45311961531937117,-0.6937602630406617,-2.082156402912736
1780625922921503200,12.030503173828125,0.06172638833373785,-0.449738740709424,-1.1162760657817126
1780625922931498200,12.040498291015625,-0.4182338876381516,-0.554609858764708,-0.42975919799804685
1780625922941493500,12.050493408203126,-0.19451134923100472,-1.0885660749487578,-0.09102057961821555
1780625922951488500,12.060488525390625,0.24648382079154252,-1.4462670218214393,-0.08563947110176086
1780625922961483500,12.0704833984375,-0.26476825002282856,-1.1956921323239802,-0.24047464350461958
1780625922971478500,12.080478515625,-0.07222557051628828,-0.7999535696104169,0.23387714493572712
1780625922981473500,12.0904736328125,0.1967129509285092,-0.6845590117141604,0.7125918047606945
1780625922991468500,12.100468505859375,-0.4891533439919352,-0.894117415690422,0.44251171206533907
1780625923001463300,12.11046337890625,-0.6984472518131136,-1.3849948069959879,-0.3592687807112932
1780625923011458300,12.120458251953124,-0.09933335767239332,-1.795221329267323,-0.9229057032793759
1780625923021453300,12.130453369140625,-0.10770210369750857,-1.7939593465074897,-0.7631582089155912
1780625923031448300,12.1404482421875,-1.0716497192002832,-1.8762734725788235,-0.044808863541483876
1780625923041443300,12.150443359375,-1.8234530058868228,-2.443662441156804,0.484866168192029
1780625923051438300,12.160438232421875,-1.6722607200309634,-2.6812206126928326,0.5532809482485056
1780625923061433300,12.170433349609375,-1.163338553468883,-1.8899226432248948,0.66250587759912
1780625923071429400,12.180429443359374,-0.43793549019098277,-0.7459846635356545,1.2312462607860564
1780625923081424400,12.19042431640625,0.5308510897755623,0.045885845123231406,1.485116976958513
1780625923091419400,12.20041943359375,1.0796877719663083,0.7940954912319779,0.7716343608379364
1780625923101414400,12.210414306640626,0.6133142689287662,1.5366282607480883,-0.11432780544757842
1780625923111409400,12.220409423828125,0.7375612647138535,1.9844252197399734,-0.2834071917802095
1780625923121404400,12.230404296875,1.147055234926939,2.2110642301157117,0.10577975733280182
1780625923131399400,12.2403994140625,0.6734859751664102,2.2590677980452774,0.9048884005516767
1780625923141394400,12.25039453125,0.33917467170953747,1.7825664303556084,1.6077186897546052
1780625923151389400,12.260389404296875,0.1161727026619017,0.8245239472433924,1.5702572663664818
1780625923161384400,12.270384521484376,-0.4536952232502401,0.21220102743953465,1.2430758147895336
1780625923171379200,12.280379150390624,-0.38040801485180853,0.053364802701771255,0.8843786964863538
1780625923181374200,12.290374267578125,0.3766284963130951,0.1901867640301585,0.3086795802026987
1780625923191369200,12.300369140625,1.4466577747046947,0.5966501343756914,-0.2520101829975843
1780625923201364200,12.3103642578125,2.089672916022688,1.3484554668888449,-0.4121019607543945
1780625923211359500,12.320359375,1.243010494468361,2.0153806222349404,-0.3125216425836086
1780625923221354500,12.3303544921875,0.46514147702455516,2.023473912319541,-0.46646483458280563
1780625923231350500,12.3403505859375,0.46293446849957104,1.5130714440718291,-0.4763584520876407
1780625923241345300,12.35034521484375,1.3403122001826762,0.7859013711214065,-0.26230828965008257
1780625923251340300,12.36034033203125,2.246136420279741,0.39891456240117545,-0.19302257197797298
1780625923261335300,12.370335205078124,2.645245628470182,0.6142106332466006,-0.514801287728548
1780625923271330300,12.380330322265625,2.28233819899559,0.993455157276988,-1.1624831056833267
1780625923281325300,12.3903251953125,1.3316390643835068,1.3394172971695661,-1.4399585693269967
1780625923291320300,12.4003203125,0.8226420059543103,1.478962545982003,-1.4223533545315266
1780625923301315300,12.4103154296875,0.15421192593798042,1.098097142751515,-1.3574451212912797
1780625923311310300,12.420310302734375,-1.0447861160635947,0.454811513929069,-1.2359183442503212
1780625923321305300,12.430305419921876,-1.711616871124506,-0.39394086564183234,-1.3349410285383463
1780625923331300600,12.440300537109374,-1.9281483289837835,-0.9066098175168037,-1.6066507682621478
1780625923341295400,12.45029541015625,-1.2587258038640021,-1.2290659941375255,-2.05365160844028
1780625923351290400,12.460290283203125,0.13698621197938918,-1.0743816283822059,-2.131379575765133
1780625923361285400,12.470285400390624,0.6181728148758411,-0.24600801997333763,-1.3990461287021636
1780625923371280400,12.4802802734375,-0.5347276389479637,-0.0957937853693962,-0.10208791707754135
1780625923381275400,12.490275390625,-2.4025498017847537,-0.532386628779769,0.901286576667428
1780625923391270400,12.5002705078125,-3.6299008086979385,-0.9109946084722876,0.9290297391176223
1780625923401266400,12.510266357421875,-3.6435002949833866,-1.3522268021211028,0.28328853383660313
1780625923411261400,12.520261474609375,-2.1483575985729693,-1.5401248706921935,-0.5442617754906416
