time,seconds_elapsed,z,y,x
1780625910957413400,0.066413330078125,-1.2706965208053589,-1.1185791492462158,1.1755938529968262
1780625910967408400,0.076408447265625,-1.1352647542953491,-1.2424606084823608,1.120164155960083
1780625910977403400,0.0864033203125,-0.9164180159568787,-1.3345186710357666,1.0179650783538818
1780625910987398400,0.0963984375,-0.5318618416786194,-1.2254297733306885,0.8439616560935974
1780625910997393400,0.106393310546875,0.14920727908611298,-0.6862512230873108,0.4991123676300049
1780625911007388700,0.116388671875,0.7899768948554993,0.022898783907294273,0.10019160807132721
1780625911017383700,0.1263837890625,1.0991929769515991,0.3976498246192932,-0.2528737783432007
1780625911027378400,0.13637841796875,1.2330242395401,0.33197227120399475,-0.4018656611442566
1780625911037373400,0.14637353515625,1.2311158180236816,0.2331371009349823,-0.46605369448661804
1780625911047369500,0.156369384765625,1.1712841987609863,-0.011027890257537365,-0.43106719851493835
1780625911057364500,0.166364501953125,1.0809882879257202,-0.24313271045684814,-0.30212002992630005
1780625911067359500,0.176359375,0.9742234349250793,-0.5292070508003235,-0.14038093388080597
1780625911077354500,0.1863544921875,0.860562801361084,-0.8499535322189331,0.030377432703971863
1780625911087349500,0.196349609375,0.7532099485397339,-0.9351515173912048,0.25997358560562134
1780625911097344500,0.206344482421875,0.7011950612068176,-0.796306312084198,0.5508877038955688
1780625911107339300,0.21633935546875,0.7024747133255005,-0.6441428661346436,0.8680709600448608
1780625911117334300,0.226334228515625,0.736384928226471,-0.544761598110199,1.2121601104736328
1780625911127329500,0.23632958984375,0.7425562143325806,-0.6327604055404663,1.4956634044647217
1780625911137324500,0.246324462890625,0.6949496865272522,-0.8669013977050781,1.70827054977417
1780625911147319600,0.256319580078125,0.5603926777839661,-1.0987179279327393,1.8539071083068848
1780625911157314600,0.266314453125,0.3356628715991974,-1.2272398471832275,1.8303825855255127
1780625911167309600,0.2763095703125,0.11860672384500504,-1.1145659685134888,1.5156147480010986
1780625911177304600,0.2863046875,-0.08660556375980377,-0.3739255368709564,0.8774805665016174
1780625911187299600,0.296299560546875,-0.09315560758113861,-0.19755451381206512,0.5854766368865967
1780625911197294600,0.306294677734375,0.007083807606250048,-0.08809492737054825,0.18718412518501282
1780625911207289300,0.316289306640625,0.11687741428613663,0.05348830670118332,-0.0902022048830986
1780625911217285400,0.326285400390625,0.2817496359348297,0.24870501458644867,-0.20534035563468933
1780625911227280400,0.3362802734375,0.464751660823822,0.35949039459228516,-0.23087073862552643
1780625911237275400,0.346275390625,0.5692831873893738,0.436273455619812,-0.16312843561172485
1780625911247270700,0.356270751953125,0.568447470664978,0.5316793322563171,-0.035013873130083084
1780625911257265700,0.366265625,0.47105079889297485,0.5592157244682312,0.08700546622276306
1780625911267260700,0.3762607421875,0.31211546063423157,0.4871998727321625,0.16599643230438232
1780625911277255400,0.38625537109375,0.16251249611377716,0.3537340760231018,0.1766805201768875
1780625911287250400,0.39625048828125,0.057487811893224716,0.16544830799102783,0.17074327170848846
1780625911297245400,0.406245361328125,-0.0000741463154554367,0.08641064912080765,0.22047357261180878
1780625911307240400,0.416240478515625,-0.024629024788737297,-0.022660978138446808,0.3067932724952698
1780625911317235500,0.4262353515625,0.12794364988803864,0.09646400064229965,0.3708948493003845
1780625911327230500,0.43623046875,0.3448922038078308,0.6411811113357544,0.1485840082168579
1780625911337225500,0.4462255859375,0.6401106119155884,0.9379023313522339,-0.3515221178531647
1780625911347220500,0.456220458984375,0.7807484269142151,1.0371003150939941,-0.7793496251106262
1780625911357215500,0.466215576171875,0.7972272038459778,1.2857601642608643,-1.0515210628509521
1780625911367210500,0.47621044921875,0.9711886048316956,1.5195269584655762,-1.22066330909729
1780625911377205200,0.486205322265625,1.012424111366272,1.5060474872589111,-1.383423924446106
1780625911387201500,0.496201416015625,0.9369987845420837,1.329346776008606,-1.5372201204299927
1780625911397196500,0.506196533203125,0.7869971394538879,1.089707374572754,-1.5710852146148682
1780625911407191600,0.516191650390625,0.6261520981788635,0.7614014744758606,-1.4677906036376953
1780625911417186600,0.5261865234375,0.3846043646335602,0.4233090877532959,-1.2222603559494019
1780625911427181600,0.536181640625,-0.06229669600725174,0.37617966532707214,-0.9386067390441895
1780625911437176600,0.546176513671875,-0.5360503196716309,0.5654207468032837,-0.5747159719467163
1780625911447171300,0.55617138671875,-0.8086863160133362,0.902755856513977,-0.1772705614566803
1780625911457166300,0.566166259765625,-0.9231614470481873,1.0977472066879272,0.13584506511688232
1780625911467161300,0.576161376953125,-0.8259701728820801,1.219119668006897,0.36041000485420227
1780625911477156400,0.58615625,-0.6149161458015442,1.3250665664672852,0.49411505460739136
1780625911487151400,0.5961513671875,-0.4645937979221344,1.272930383682251,0.5361519455909729
1780625911497146400,0.606146484375,-0.47279685735702515,0.9798454642295837,0.5423972606658936
1780625911507141600,0.6161416015625,-0.5212571024894714,0.5794516801834106,0.5561679005622864
1780625911517136600,0.62613671875,-0.5384311676025391,0.22781795263290405,0.6315209865570068
1780625911527131600,0.636131591796875,-0.39536747336387634,-0.08199264109134674,0.75577312707901
1780625911537126700,0.646126708984375,-0.14607080817222595,-0.42611196637153625,0.9006807208061218
1780625911547121400,0.656121337890625,0.15353348851203918,-0.6293473839759827,1.0120177268981934
1780625911557117400,0.666117431640625,0.46104592084884644,-0.7322530746459961,1.0132547616958618
1780625911567112400,0.676112548828125,0.6614514589309692,-0.9073300957679749,0.8332133293151855
1780625911577107500,0.686107421875,0.6968894004821777,-1.1885325908660889,0.508522629737854
1780625911587102500,0.6961025390625,0.7560496926307678,-1.3899112939834595,0.17892499268054962
1780625911597097500,0.706097412109375,0.9646989703178406,-1.3479151725769043,-0.052134230732917786
1780625911607092500,0.716092529296875,1.254044532775879,-1.1582616567611694,-0.27458301186561584
1780625911617087500,0.72608740234375,0.7103386521339417,-0.4838990569114685,-0.613192081451416
1780625911627082500,0.73608251953125,0.07373742759227753,-0.6007236838340759,-0.9984156489372253
1780625911637077500,0.746077392578125,0.3575374186038971,-1.6556124687194824,-0.8351752161979675
1780625911647072500,0.756072509765625,0.7481938004493713,-2.4150538444519043,-0.3863183856010437
1780625911657067500,0.766067626953125,0.9048337936401367,-2.534562110900879,0.24998882412910461
1780625911667062500,0.7760625,0.7800590991973877,-2.5516932010650635,0.7689076066017151
1780625911677057500,0.7860576171875,0.4959021210670471,-2.7134532928466797,1.039064645767212
1780625911687052500,0.796052490234375,0.18495382368564606,-2.9132776260375977,0.9079319834709167
1780625911697047600,0.806047607421875,0.09911992400884628,-3.0718295574188232,0.5640771985054016
1780625911707042600,0.81604248046875,0.2905586063861847,-3.0611350536346436,0.2442222237586975
1780625911717037300,0.826037353515625,0.6536322832107544,-3.0432350635528564,0.08829750865697861
1780625911727032300,0.8360322265625,0.9790135622024536,-3.2338218688964844,0.09189064055681229
1780625911737028400,0.8460283203125,1.2370959520339966,-3.523998498916626,0.24437732994556427
1780625911747022600,0.856022705078125,1.4492374658584595,-3.7975025177001953,0.452953964471817
1780625911757017600,0.866017578125,1.6578843593597412,-4.125996112823486,0.6539050340652466
1780625911767012600,0.8760126953125,1.86383056640625,-4.262014389038086,0.7705743908882141
1780625911777007600,0.886007568359375,2.097121477127075,-4.342086315155029,0.7832966446876526
1780625911787002600,0.896002685546875,2.326873302459717,-4.457400321960449,0.6806980967521667
1780625911796997600,0.90599755859375,2.5582356452941895,-4.699538707733154,0.4754685163497925
1780625911806992600,0.91599267578125,2.8290281295776367,-4.97765588760376,0.21934883296489716
1780625911816987400,0.9259873046875,3.118067741394043,-5.226851940155029,-0.03174305707216263
1780625911826982400,0.935982421875,3.4250667095184326,-5.457693576812744,-0.20360535383224487
1780625911836977400,0.945977294921875,3.810206174850464,-5.8120808601379395,-0.298264741897583
1780625911846972700,0.95597265625,4.226264476776123,-6.336872100830078,-0.3580090403556824
1780625911856967700,0.9659677734375,4.501757621765137,-6.597311019897461,-0.3671534061431885
1780625911866962700,0.975962646484375,4.554247856140137,-6.327077388763428,-0.33132001757621765
1780625911876957700,0.985957763671875,4.482594966888428,-5.789113521575928,-0.23575128614902496
1780625911886952700,0.99595263671875,4.388001918792725,-5.309375286102295,-0.11757804453372955
1780625911896947700,1.00594775390625,4.311686992645264,-4.949176788330078,-0.010090003721415997
1780625911906942700,1.015942626953125,4.271523475646973,-4.764023303985596,0.041766803711652756
1780625911916938500,1.0259384765625,4.267197608947754,-4.731095314025879,0.016716377809643745
1780625911926933500,1.03593359375,4.2621941566467285,-4.817333698272705,-0.026617247611284256
1780625911936928500,1.045928466796875,4.18745231628418,-4.815507888793945,0.004472482483834028
1780625911946923500,1.055923583984375,3.969898223876953,-4.464990139007568,0.09979847073554993
1780625911956918800,1.065918701171875,3.694380283355713,-3.709315299987793,0.15578237175941467
1780625911966913800,1.075913818359375,3.5561766624450684,-2.674595355987549,0.05005141720175743
1780625911976908800,1.08590869140625,3.6379072666168213,-1.7880241870880127,-0.26908648014068604
1780625911986903600,1.095903564453125,3.8336355686187744,-1.1336908340454102,-0.765960693359375
1780625911996898600,1.105898681640625,3.8657784461975098,-0.6564414501190186,-1.3907873630523682
1780625912006893600,1.1158935546875,3.4995906352996826,-0.6109397411346436,-1.9466737508773804
1780625912016888600,1.125888671875,2.6887545585632324,-0.43769708275794983,-1.8514224290847778
1780625912026883600,1.135883544921875,1.9223321676254272,0.444241464138031,-1.0071624517440796
1780625912036878600,1.145878662109375,1.725704550743103,0.8845779895782471,-0.1924106925725937
1780625912046873600,1.15587353515625,1.9627354145050049,0.8213177919387817,0.20353612303733826
1780625912056868600,1.16586865234375,2.1621861457824707,0.3793257176876068,0.3666004538536072
1780625912066863600,1.175863525390625,1.9958363771438599,-0.14033345878124237,0.5991172790527344
1780625912076858600,1.185858642578125,1.478268027305603,-0.3308805227279663,0.9543065428733826
1780625912086853600,1.195853515625,0.9262641072273254,-0.06765182316303253,1.179634690284729
1780625912096848400,1.205848388671875,0.6406119465827942,0.41220977902412415,1.0899707078933716
1780625912106844700,1.2158447265625,0.5894965529441833,1.1629987955093384,0.6503368616104126
1780625912116839700,1.225839599609375,0.5812926888465881,1.9699203968048096,-0.018086902797222137
1780625912126834700,1.235834716796875,0.48138710856437683,2.5539793968200684,-0.5418230891227722
1780625912136829700,1.24582958984375,0.33887529373168945,2.922496795654297,-0.783010721206665
1780625912146824700,1.25582470703125,0.2420092076063156,2.963935136795044,-0.83547443151474
1780625912156819500,1.2658193359375,0.1925233155488968,2.760183334350586,-0.8146437406539917
1780625912166814500,1.275814453125,0.11593879759311676,2.389580726623535,-0.7310015559196472
1780625912176809500,1.2858095703125,-0.02818385511636734,2.1003434658050537,-0.5847408771514893
1780625912186804500,1.295804443359375,-0.27032485604286194,1.8518010377883911,-0.35323575139045715
1780625912196799500,1.305799560546875,-0.590347170829773,1.7796292304992676,-0.08960544317960739
1780625912206794500,1.31579443359375,-0.845644474029541,1.855638027191162,0.16093330085277557
1780625912216789500,1.32578955078125,-0.9614245891571045,1.8511135578155518,0.3634352684020996
1780625912226784800,1.33578466796875,-0.9447441101074219,1.8049169778823853,0.4678109586238861
1780625912236779800,1.34577978515625,-0.9202988743782043,1.688474416732788,0.5450499057769775
1780625912246774800,1.35577490234375,-1.0291012525558472,1.507887601852417,0.7082297801971436
1780625912256769500,1.36576953125,-1.2113919258117676,1.2832059860229492,0.9748200178146362
1780625912266764500,1.3757646484375,-1.3738359212875366,1.139749526977539,1.263382911682129
1780625912276759600,1.385759521484375,-1.5400158166885376,1.1024216413497925,1.501115083694458
1780625912286754600,1.395754638671875,-1.6945886611938477,1.1128768920898438,1.643614411354065
1780625912296750600,1.40575048828125,-1.7477061748504639,1.0663414001464844,1.674128532409668
1780625912306745600,1.41574560546875,-1.6613025665283203,0.9532741904258728,1.6387407779693604
1780625912316740600,1.42574072265625,-1.4543583393096924,0.804253101348877,1.5563839673995972
1780625912326735600,1.435735595703125,-1.281567931175232,0.5189036130905151,1.509849190711975
1780625912336730600,1.445730712890625,-1.1366921663284302,0.10265441238880157,1.5661365985870361
1780625912346725600,1.4557255859375,-1.0061413049697876,-0.15215764939785004,1.6992162466049194
1780625912356720600,1.465720703125,-0.9117424488067627,-0.2849329710006714,1.8536821603775024
1780625912366715600,1.475715576171875,-0.7575891017913818,-0.6090527772903442,1.67795991897583
1780625912376710700,1.485710693359375,-0.6092656850814819,-0.9162554740905762,1.0483943223953247
1780625912386705700,1.49570556640625,-0.6335030794143677,-0.8948889374732971,0.47616544365882874
1780625912396700700,1.50570068359375,-0.6877277493476868,-0.5858339071273804,0.2649170160293579
1780625912406695700,1.51569580078125,-0.6659747362136841,-0.28337255120277405,0.2810693681240082
1780625912416690700,1.525690673828125,-0.5102279186248779,-0.10235226154327393,0.27961450815200806
1780625912426685700,1.535685791015625,-0.25292232632637024,-0.05905592441558838,0.20380151271820068
1780625912436680400,1.545680419921875,-0.02330365963280201,-0.1958131343126297,0.1339952051639557
1780625912446675500,1.555675537109375,0.0020011644810438156,-0.45606574416160583,0.198245570063591
1780625912456670500,1.56567041015625,-0.18446269631385803,-0.7758728265762329,0.3507441580295563
1780625912466665500,1.57566552734375,-0.4055783152580261,-0.9580197334289551,0.42758139967918396
1780625912476661800,1.585661865234375,-0.5106583833694458,-0.9381453394889832,0.30795955657958984
1780625912486656800,1.59565673828125,-0.47103428840637207,-0.6684097051620483,0.08375680446624756
1780625912496651800,1.60565185546875,-0.36672133207321167,-0.25275614857673645,-0.15321041643619537
1780625912506646500,1.615646484375,-0.2703596353530884,0.08584746718406677,-0.35272887349128723
1780625912516641500,1.6256416015625,-0.2236906737089157,0.2750910818576813,-0.4840911328792572
1780625912526636500,1.635636474609375,-0.260600745677948,0.30802106857299805,-0.5212291479110718
1780625912536631600,1.645631591796875,-0.34122234582901,0.25461140275001526,-0.43895548582077026
1780625912546626600,1.65562646484375,-0.462606817483902,0.06609978526830673,-0.34896329045295715
1780625912556621600,1.66562158203125,-0.5620878338813782,-0.15656405687332153,-0.230400949716568
1780625912566616600,1.675616455078125,-0.6905744075775146,-0.2989177405834198,-0.1748623251914978
1780625912576611600,1.685611572265625,-0.9931473135948181,-0.36231666803359985,-0.45978522300720215
1780625912586606600,1.695606689453125,-1.1226378679275513,-0.20598964393138885,-0.3623337745666504
1780625912596601600,1.7056015625,-0.9521608948707581,-0.09616176038980484,-0.392423152923584
1780625912606596600,1.7155966796875,-0.769040048122406,0.10849231481552124,-0.4007047712802887
1780625912616591600,1.725591552734375,-0.5638614892959595,0.25010737776756287,-0.2328069657087326
1780625912626586600,1.735586669921875,-0.5190540552139282,0.3101861774921417,-0.027733180671930313
1780625912636581600,1.74558154296875,-0.5783948302268982,0.213004469871521,0.12773571908473969
1780625912646576600,1.75557666015625,-0.714311957359314,-0.11375315487384796,0.22298580408096313
1780625912656571600,1.765571533203125,-0.7450653314590454,-0.34702184796333313,0.2974761426448822
1780625912666567700,1.775567626953125,-0.6074073314666748,-0.38263416290283203,0.30737513303756714
1780625912676562400,1.7855625,-0.2975814640522003,-0.350475013256073,0.19728657603263855
1780625912686557400,1.795557373046875,0.07873625308275223,-0.25075480341911316,0.07274384796619415
1780625912696552400,1.805552490234375,0.31588006019592285,-0.2103596329689026,0.11661398410797119
1780625912706547500,1.81554736328125,0.31931525468826294,-0.2478843778371811,0.2827936112880707
1780625912716542500,1.82554248046875,0.21430085599422455,-0.32947415113449097,0.48567473888397217
1780625912726537700,1.835537841796875,0.19477349519729614,-0.4183366596698761,0.6280699372291565
1780625912736532700,1.84553271484375,0.30177637934684753,-0.574589192867279,0.6841773390769958
1780625912746528000,1.855528076171875,0.4948400855064392,-0.7327921390533447,0.6904043555259705
1780625912756523000,1.86552294921875,0.6576036810874939,-0.7830043435096741,0.6920690536499023
1780625912766517800,1.875517822265625,0.782241702079773,-0.7533207535743713,0.685377299785614
1780625912776512800,1.8855126953125,0.8592697381973267,-0.5330663323402405,0.7013484239578247
1780625912786507800,1.8955078125,0.8895605206489563,-0.1868356615304947,0.6803179979324341
1780625912796502800,1.905502685546875,1.005176305770874,-0.0490448996424675,0.5037616491317749
1780625912806497800,1.915497802734375,1.2040400505065918,-0.10360987484455109,0.21731971204280853
1780625912816492800,1.925492919921875,1.3227758407592773,-0.04245731979608536,-0.06045746058225632
1780625912826487800,1.93548779296875,1.4222872257232666,0.06864230334758759,-0.29016974568367004
1780625912836482800,1.94548291015625,1.4424352645874023,0.23994357883930206,-0.41529229283332825
1780625912846478800,1.955478759765625,1.4324800968170166,0.34459036588668823,-0.461407333612442
1780625912856473900,1.965473876953125,1.4510016441345215,0.31445661187171936,-0.521064817905426
1780625912866468900,1.97546875,1.5051286220550537,0.2896591126918793,-0.6904312372207642
1780625912876463900,1.9854638671875,1.4661586284637451,-0.008311466313898563,-0.9240899085998535
1780625912886459000,1.995458984375,1.4118717908859253,-0.4789295792579651,-0.8783533573150635
1780625912896454000,2.005453857421875,1.286898136138916,-0.8610276579856873,-0.5735655426979065
1780625912906449000,2.015448974609375,1.025681734085083,-0.6870284676551819,-0.3364675045013428
1780625912916444000,2.02544384765625,0.778786301612854,-0.35833120346069336,-0.382855087518692
1780625912926439000,2.03543896484375,0.7389816045761108,-0.07923965156078339,-0.6572464108467102
1780625912936434000,2.045433837890625,0.8747025728225708,0.25273555517196655,-0.9888612031936646
1780625912946428700,2.0554287109375,1.0065202713012695,0.3992626667022705,-1.1630321741104126
1780625912956423700,2.065423583984375,0.9573306441307068,0.38709089159965515,-1.1424827575683594
1780625912966418700,2.075418701171875,0.7577911615371704,0.22000762820243835,-0.9668816924095154
1780625912976414000,2.0854140625,0.5231350064277649,-0.06692557781934738,-0.657749354839325
1780625912986409000,2.095408935546875,0.25000014901161194,-0.24771933257579803,-0.3071924149990082
1780625912996404000,2.105404052734375,0.06369147449731827,-0.31867438554763794,-0.06781882047653198
1780625913006399000,2.11539892578125,0.0029562246054410934,-0.39751914143562317,0.016972502693533897
1780625913016394000,2.12539404296875,0.018325690180063248,-0.31399479508399963,-0.03481291979551315
1780625913026389000,2.135388916015625,0.1681889444589615,-0.19829456508159637,-0.18106867372989655
1780625913036384800,2.145384765625,0.36346712708473206,-0.07697456330060959,-0.34177160263061523
1780625913046379800,2.1553798828125,0.5767136812210083,-0.021066024899482727,-0.43154728412628174
1780625913056374800,2.165374755859375,0.6822917461395264,-0.07814691215753555,-0.41563788056373596
1780625913066369800,2.175369873046875,0.5157619118690491,-0.19807997345924377,-0.2828385531902313
1780625913076364800,2.18536474609375,0.2648778259754181,-0.32504597306251526,-0.1526135504245758
1780625913086359800,2.19535986328125,0.15372438728809357,-0.5544037818908691,-0.011227921582758427
1780625913096355000,2.20535498046875,0.15370717644691467,-0.8598546385765076,0.18186341226100922
1780625913106349800,2.215349853515625,0.18536709249019623,-1.2384546995162964,0.4319073557853699
1780625913116344800,2.2253447265625,0.2139868438243866,-1.6469546556472778,0.7567448616027832
1780625913126339800,2.23533984375,0.21722498536109924,-2.0252904891967773,1.1435128450393677
1780625913136334800,2.2453349609375,0.24217690527439117,-2.5905141830444336,1.6568236351013184
1780625913146329900,2.255329833984375,0.4583326578140259,-3.812176465988159,2.0608022212982178
1780625913156324900,2.265324951171875,0.9949538111686707,-5.342916965484619,1.7890703678131104
1780625913166319900,2.27531982421875,1.3010073900222778,-5.167147159576416,1.3258893489837646
1780625913176315000,2.28531494140625,1.4985244274139404,-4.735278129577637,1.1181044578552246
1780625913186310000,2.295309814453125,1.7958117723464966,-4.649591445922852,1.0620931386947632
1780625913196305000,2.305304931640625,2.0156261920928955,-4.5860395431518555,1.0745904445648193
1780625913206300000,2.3152998046875,2.085925340652466,-4.326222896575928,1.0445462465286255
1780625913216296000,2.3252958984375,1.9634974002838135,-3.491250991821289,0.930331826210022
1780625913226291000,2.335291015625,1.6355050802230835,-2.612595796585083,0.7867520451545715
1780625913236286000,2.345285888671875,1.0528678894042969,-0.853756308555603,0.9578624367713928
1780625913246281000,2.355281005859375,0.4552718997001648,-0.32997965812683105,1.088805079460144
1780625913256276000,2.36527587890625,0.049019716680049896,-1.785747766494751,0.7387598156929016
1780625913266271000,2.37527099609375,-0.28114381432533264,-2.0794503688812256,0.15981926023960114
1780625913276266000,2.385265869140625,-0.5697463750839233,-1.3691892623901367,-0.24951939284801483
1780625913286260700,2.3952607421875,-0.726828932762146,-1.0603914260864258,-0.4400499165058136
1780625913296255700,2.405255859375,-0.8358141779899597,-0.9957678318023682,-0.4961748719215393
1780625913306250800,2.415250732421875,-0.8990306854248047,-0.9968363046646118,-0.509655237197876
1780625913316245800,2.425245849609375,-0.9089789986610413,-1.0657669305801392,-0.48536941409111023
1780625913326240800,2.43524072265625,-0.8586066365242004,-1.0218151807785034,-0.43056556582450867
1780625913336235800,2.44523583984375,-0.8073284029960632,-0.9291077256202698,-0.3955375552177429
1780625913346230800,2.455230712890625,-0.7517900466918945,-0.9434469938278198,-0.3248008191585541
1780625913356226000,2.46522607421875,-0.735022246837616,-1.1585278511047363,-0.17013457417488098
1780625913366221000,2.475220947265625,-0.7061932682991028,-1.5102238655090332,0.11471154540777206
1780625913376215800,2.4852158203125,-0.6534191370010376,-1.8511143922805786,0.43947193026542664
1780625913386210800,2.4952109375,-0.544678270816803,-2.090514898300171,0.7077542543411255
1780625913396206800,2.505206787109375,-0.423371285200119,-2.1668317317962646,0.856839120388031
1780625913406201900,2.515201904296875,-0.27443772554397583,-2.089970588684082,0.88396155834198
1780625913416196900,2.52519677734375,-0.0971539318561554,-2.1873016357421875,0.8864431977272034
1780625913426192000,2.53519189453125,0.05876961722970009,-2.006934881210327,0.9599131345748901
1780625913436187000,2.545186767578125,0.1915915161371231,-1.3495330810546875,1.197880506515503
1780625913446182000,2.555181884765625,0.37567266821861267,-0.8815820813179016,1.4554624557495117
1780625913456176600,2.5651767578125,0.5850161910057068,-0.3702987730503082,1.6667550802230835
1780625913466171600,2.575171630859375,0.7955721020698547,0.026784667745232582,1.809341549873352
1780625913476167000,2.5851669921875,0.9699513912200928,0.15514183044433594,1.8608232736587524
1780625913486162000,2.595161865234375,1.068546175956726,0.21218754351139069,1.733863115310669
1780625913496157000,2.605156982421875,0.9909095764160156,0.2470904290676117,1.4285786151885986
1780625913506152000,2.61515185546875,0.8194321393966675,0.47538354992866516,1.11363685131073
1780625913516147000,2.62514697265625,0.7683094143867493,0.3493223488330841,0.8496458530426025
1780625913526142000,2.635141845703125,0.7424538731575012,0.1260376125574112,0.6681759357452393
1780625913536137000,2.645136962890625,0.6965857744216919,0.08829205483198166,0.5609721541404724
1780625913546132000,2.655132080078125,0.6403784155845642,0.16590295732021332,0.46433886885643005
1780625913556126700,2.665126708984375,0.5773668885231018,0.34083274006843567,0.3562261760234833
1780625913566121700,2.675121826171875,0.5320915579795837,0.4859878122806549,0.2677018940448761
1780625913576117800,2.68511767578125,0.5165760517120361,0.38925859332084656,0.21390335261821747
1780625913586112800,2.69511279296875,0.5038112998008728,-0.0030703130178153515,0.2175694704055786
1780625913596108000,2.70510791015625,0.46327951550483704,-0.5436272621154785,0.30061936378479004
1780625913606103000,2.71510302734375,0.34163084626197815,-0.945483922958374,0.442397803068161
1780625913616098000,2.72509814453125,0.21269825100898743,-1.1644917726516724,0.6502864956855774
1780625913626092800,2.7350927734375,0.12190017849206924,-1.1884138584136963,0.8978661894798279
1780625913636087800,2.745087890625,0.1476278305053711,-1.135337471961975,1.0529769659042358
1780625913646082800,2.755082763671875,0.2792036831378937,-1.0264050960540771,1.0758053064346313
1780625913656077800,2.765077880859375,0.37846165895462036,-0.9130956530570984,0.9834350347518921
1780625913666072800,2.77507275390625,0.4542834460735321,-0.8596454858779907,0.8567442297935486
1780625913676067800,2.78506787109375,0.48216015100479126,-0.851292610168457,0.7185653448104858
1780625913686062800,2.795062744140625,0.4329838156700134,-0.9002697467803955,0.5733064413070679
1780625913696057900,2.805057861328125,0.3155760169029236,-0.9141315221786499,0.47756168246269226
1780625913706052900,2.815052978515625,0.10929633677005768,-0.7665124535560608,0.47060176730155945
1780625913716048000,2.8250478515625,-0.16605989634990692,-0.681459903717041,0.4841996729373932
1780625913726042600,2.835042724609375,-0.5308730602264404,-0.4625416398048401,0.48250535130500793
1780625913736038000,2.845037841796875,-0.7602585554122925,-0.17053748667240143,0.3890446424484253
1780625913746033200,2.855033203125,-0.8959378600120544,0.12444701045751572,0.1941329687833786
1780625913756028200,2.865028076171875,-0.9731176495552063,0.37120094895362854,0.004394569434225559
1780625913766023200,2.875023193359375,-0.883550226688385,0.47976362705230713,-0.10169404745101929
1780625913776018400,2.885018310546875,-0.6833255887031555,0.40230146050453186,-0.21856167912483215
1780625913786013400,2.895013427734375,-0.4648025929927826,0.28312525153160095,-0.4070277512073517
1780625913796008400,2.905008544921875,-0.30945995450019836,0.2196422666311264,-0.6290217041969299
1780625913806003500,2.91500341796875,-0.1686921864748001,0.26867184042930603,-0.8009748458862305
1780625913815998200,2.924998291015625,-0.04989471286535263,0.3257860243320465,-0.8761309385299683
1780625913825993200,2.9349931640625,0.01083201915025711,0.31968367099761963,-0.836174488067627
1780625913835988200,2.94498828125,0.036711931228637695,0.2661038935184479,-0.7015901803970337
1780625913845983200,2.954983154296875,0.02531520277261734,0.1430373638868332,-0.5462090969085693
1780625913855978200,2.964978271484375,0.009037865325808525,0.034467339515686035,-0.3766355514526367
1780625913865973200,2.97497314453125,0.013492533937096596,0.007326002698391676,-0.2238534539937973
1780625913875968300,2.98496826171875,0.07761888951063156,0.052803605794906616,-0.1427474170923233
1780625913885963300,2.99496337890625,0.21091701090335846,0.0410420224070549,-0.13321064412593842
1780625913895958300,3.004958251953125,0.29761776328086853,0.12443535774946213,-0.2629178464412689
1780625913905953300,3.014953369140625,0.3602864742279053,0.7767719030380249,-0.3006897270679474
1780625913915948000,3.024947998046875,0.4362678527832031,2.009845018386841,-0.18647748231887817
1780625913925944300,3.0349443359375,0.5443804860115051,1.4584599733352661,0.1826307773590088
1780625913935939300,3.044939208984375,0.8605013489723206,0.7953060269355774,0.2835051417350769
1780625913945934300,3.054934326171875,1.0027943849563599,0.7124851942062378,0.17493471503257751
1780625913955929300,3.064929443359375,1.0506949424743652,0.8419144153594971,0.14275601506233215
1780625913965924400,3.07492431640625,1.1387896537780762,0.9071682691574097,0.15506727993488312
1780625913975919400,3.08491943359375,1.2133793830871582,0.8884379863739014,0.13663814961910248
1780625913985914000,3.0949140625,1.2814055681228638,0.815089225769043,0.09468483924865723
1780625913995909000,3.1049091796875,1.2813425064086914,0.6932247877120972,0.04310985282063484
1780625914005904100,3.114904052734375,1.143577218055725,0.5702003836631775,0.029046231880784035
1780625914015899100,3.124899169921875,0.905998170375824,0.4705335795879364,0.05337955057621002
1780625914025894100,3.13489404296875,0.6454821825027466,0.3650665283203125,0.07297588884830475
1780625914035889200,3.14488916015625,0.38238662481307983,0.20500816404819489,0.12848883867263794
1780625914045884400,3.154884521484375,0.11614270508289337,0.0037448240909725428,0.2180464267730713
1780625914055879400,3.16487939453125,-0.12339384853839874,-0.13820309937000275,0.2624237835407257
1780625914065874400,3.17487451171875,-0.2892874777317047,-0.12591101229190826,0.24059703946113586
1780625914075869400,3.184869384765625,-0.389127641916275,0.03409130126237869,0.18986648321151733
1780625914085864200,3.1948642578125,-0.40942811965942383,0.28073224425315857,0.12727899849414825
1780625914095860200,3.204860107421875,-0.37318655848503113,0.4425499737262726,0.12610657513141632
1780625914105855200,3.214855224609375,-0.28659069538116455,0.4014638066291809,0.2214786261320114
1780625914115850200,3.224850341796875,-0.109473317861557,0.36079031229019165,0.28509989380836487
1780625914125845200,3.23484521484375,0.10528691858053207,0.434918612241745,0.24896453320980072
1780625914135840300,3.24484033203125,0.29530665278434753,0.3982820212841034,0.25972849130630493
1780625914145835300,3.254835205078125,0.4864848852157593,0.20543241500854492,0.37279456853866577
1780625914155830300,3.264830322265625,0.6736963391304016,0.001392613397911191,0.558093786239624
1780625914165825300,3.2748251953125,0.8780819773674011,-0.03708820044994354,0.6780492663383484
1780625914175820300,3.2848203125,1.1541465520858765,0.1287831813097,0.6269450783729553
1780625914185815300,3.294815185546875,1.4713865518569946,0.2341333031654358,0.4627242088317871
1780625914195810300,3.304810302734375,1.7414276599884033,0.24679802358150482,0.33614030480384827
1780625914205805300,3.314805419921875,1.9574215412139893,0.3341587781906128,0.2548060417175293
1780625914215800300,3.32480029296875,2.060760021209717,0.5536948442459106,0.14492659270763397
1780625914225795300,3.33479541015625,2.018062114715576,0.9115597605705261,0.03588053584098816
1780625914235790300,3.344790283203125,1.7926318645477295,1.209336280822754,-0.03288782015442848
1780625914245785300,3.354785400390625,1.5156210660934448,1.1174463033676147,-0.08793722093105316
1780625914255780000,3.364780029296875,1.2944910526275635,0.8095913529396057,0.07411644607782364
1780625914265776000,3.374776123046875,1.1216524839401245,0.4838162064552307,0.36221906542778015
1780625914275771400,3.384771484375,1.0138541460037231,0.006585323717445135,0.6911523938179016
1780625914285766400,3.394766357421875,0.9906226396560669,-0.35695984959602356,0.8401623964309692
1780625914295761400,3.404761474609375,1.0616607666015625,-0.5374288558959961,0.7465714812278748
1780625914305756400,3.41475634765625,1.1927369832992554,-0.486783504486084,0.5137443542480469
1780625914315751400,3.42475146484375,1.3746380805969238,-0.22785399854183197,0.24391458928585052
1780625914325746200,3.43474609375,1.5184900760650635,-0.05599275231361389,0.11078769713640213
1780625914335741200,3.4447412109375,1.4861571788787842,0.07086923718452454,0.1512625515460968
1780625914345736200,3.454736083984375,1.346070408821106,0.10271105915307999,0.26605620980262756
1780625914355731200,3.464731201171875,1.2243449687957764,0.07449395209550858,0.3819316029548645
1780625914365726200,3.474726318359375,1.1645426750183105,-0.029545901343226433,0.5173285603523254
1780625914375721200,3.48472119140625,1.1598703861236572,-0.08346391469240189,0.6454758048057556
1780625914385716200,3.49471630859375,1.25822114944458,-0.3147836923599243,0.868187665939331
1780625914395711200,3.504711181640625,1.3833034038543701,-0.9853394031524658,1.2152036428451538
1780625914405706200,3.514706298828125,1.5748960971832275,-1.7860605716705322,1.4753146171569824
1780625914415701200,3.524701171875,1.8175851106643677,-2.77875018119812,1.6292688846588135
1780625914425696300,3.5346962890625,1.8944330215454102,-3.695575714111328,1.4777307510375977
1780625914435692300,3.5446923828125,2.2759015560150146,-3.761579990386963,1.1833957433700562
1780625914445687300,3.554687255859375,2.826432466506958,-3.2092506885528564,0.9491971135139465
1780625914455682300,3.564682373046875,3.374785900115967,-2.2928950786590576,0.8145701885223389
1780625914465677300,3.57467724609375,3.904237985610962,-1.2936557531356812,0.7223518490791321
1780625914475672300,3.58467236328125,4.349068641662598,-0.1806895136833191,0.589476466178894
1780625914485667300,3.594667236328125,4.756505966186523,0.7757994532585144,0.467986524105072
1780625914495662300,3.604662353515625,5.154422760009766,1.441064476966858,0.3435961902141571
1780625914505657000,3.614656982421875,5.55025577545166,1.8934258222579956,0.2094770073890686
1780625914515652000,3.624652099609375,5.926539421081543,2.1702513694763184,0.09070868790149689
1780625914525647000,3.634647216796875,6.143741607666016,2.089585304260254,-0.014363938011229038
1780625914535642400,3.644642333984375,6.107529163360596,1.5518375635147095,-0.11336040496826172
1780625914545637400,3.654637451171875,5.866584300994873,0.7185654044151306,-0.13456876575946808
1780625914555632400,3.66463232421875,5.272195816040039,-0.23448976874351501,-0.10874726623296738
1780625914565627400,3.67462744140625,3.941289186477661,-0.8168732523918152,0.013284096494317055
1780625914575622400,3.684622314453125,2.004502534866333,-1.1501994132995605,0.16088666021823883
1780625914585617400,3.694617431640625,-0.05091505125164986,-1.3088622093200684,0.3123646080493927
1780625914595612200,3.704612060546875,-1.535938024520874,-1.2119301557540894,0.4326692819595337
1780625914605608200,3.714608154296875,-2.1276121139526367,-0.8949745297431946,0.5168635249137878
1780625914615603200,3.724603271484375,-1.9932513236999512,-0.4384290277957916,0.7153995037078857
1780625914625598200,3.73459814453125,-1.3910701274871826,0.17980915307998657,0.936908483505249
1780625914635593200,3.74459326171875,-0.4977424442768097,0.8624125719070435,1.0871913433074951
1780625914645588200,3.754588134765625,0.4782238006591797,1.3603155612945557,1.0838348865509033
1780625914655583500,3.76458349609375,1.186698317527771,1.4230011701583862,0.8946774005889893
1780625914665578200,3.774578125,1.3101222515106201,1.077726125717163,0.5717946887016296
1780625914675573200,3.7845732421875,0.9252110719680786,0.5273071527481079,0.19433638453483582
1780625914685568300,3.794568359375,0.35131606459617615,-0.027304120361804962,-0.12572923302650452
1780625914695563300,3.804563232421875,-0.1356263905763626,-0.37398698925971985,-0.33500540256500244
1780625914705558300,3.814558349609375,-0.4017068147659302,-0.4983361065387726,-0.43627315759658813
1780625914715553300,3.82455322265625,-0.49408191442489624,-0.5557364225387573,-0.4421103596687317
1780625914725548300,3.83454833984375,-0.5018000602722168,-0.6572172045707703,-0.3879978656768799
1780625914735543300,3.844543212890625,-0.4728664457798004,-0.8122075796127319,-0.30508437752723694
1780625914745539000,3.8545390625,-0.39113616943359375,-0.8791375756263733,-0.2333577275276184
1780625914755533800,3.864533935546875,-0.23997615277767181,-0.7885876893997192,-0.2019038051366806
1780625914765529900,3.87452978515625,-0.0007209545001387596,-0.5153833031654358,-0.21373437345027924
1780625914775524900,3.88452490234375,0.2385176420211792,-0.027507130056619644,-0.268843412399292
1780625914785519900,3.894519775390625,0.40890800952911377,0.6095737218856812,-0.3059156835079193
1780625914795515000,3.904514892578125,0.41942867636680603,1.2157834768295288,-0.27644219994544983
1780625914805510000,3.914510009765625,0.37857070565223694,1.723711371421814,-0.20260953903198242
1780625914815505000,3.9245048828125,0.3298303782939911,2.1692733764648438,-0.13593041896820068
1780625914825499600,3.934499755859375,0.2817523181438446,2.5404415130615234,-0.08785182982683182
1780625914835494700,3.94449462890625,0.2477457970380783,2.7170119285583496,-0.05903482437133789
1780625914845489700,3.95448974609375,0.15827585756778717,2.7321317195892334,-0.0663614496588707
1780625914855485000,3.96448486328125,0.09493003785610199,2.7017431259155273,-0.13271646201610565
1780625914865480000,3.97447998046875,0.11458602547645569,2.5472092628479004,-0.2549861967563629
1780625914875475000,3.984474853515625,0.14729134738445282,2.3951992988586426,-0.4705575108528137
1780625914885470000,3.994469970703125,0.13706934452056885,2.056852102279663,-0.6830769777297974
1780625914895465000,4.00446484375,0.03970581293106079,1.632863998413086,-0.857138991355896
1780625914905460000,4.0144599609375,-0.0904868096113205,1.1330512762069702,-0.9455101490020752
1780625914915455000,4.024455078125,-0.1916847676038742,0.5715873837471008,-0.9203135967254639
1780625914925450800,4.03445068359375,-0.26412463188171387,0.05627984553575516,-0.8285991549491882
1780625914935445800,4.04444580078125,-0.27551916241645813,-0.23107394576072693,-0.7005748152732849
1780625914945440800,4.054440673828125,-0.29980453848838806,-0.041552215814590454,-0.6514583826065063
1780625914955435800,4.064435791015625,-0.3149932622909546,0.4741978347301483,-0.7026283144950867
1780625914965430800,4.0744306640625,-0.2905481159687042,1.0665887594223022,-0.7976136803627014
1780625914975426000,4.084426025390625,-0.20200103521347046,1.5305514335632324,-0.8937078714370728
1780625914985421000,4.094421142578125,-0.10707451403141022,1.688427448272705,-0.9141124486923218
1780625914995415800,4.104415771484375,-0.12277048081159592,1.5281976461410522,-0.8553349375724792
1780625915005410800,4.114410888671875,-0.21627673506736755,1.2042051553726196,-0.7582065463066101
1780625915015405800,4.12440576171875,-0.36226701736450195,0.8075628876686096,-0.659051239490509
1780625915025400800,4.13440087890625,-0.4837247431278229,0.4980577230453491,-0.5677663087844849
1780625915035395800,4.144395751953125,-0.5090058445930481,0.3783341348171234,-0.4664766788482666
1780625915045390800,4.154390869140625,-0.426043301820755,0.4465475380420685,-0.38857123255729675
1780625915055385900,4.1643857421875,-0.3197617530822754,0.5553476810455322,-0.37613341212272644
1780625915065380900,4.174380859375,-0.23828312754631042,0.6505719423294067,-0.3835947811603546
1780625915075375900,4.1843759765625,-0.18204958736896515,0.6632996201515198,-0.37275806069374084
1780625915085371600,4.19437158203125,-0.15163496136665344,0.5493922233581543,-0.3467775881290436
1780625915095367000,4.204366943359375,-0.14024052023887634,0.34419339895248413,-0.306745707988739
1780625915105362000,4.21436181640625,-0.14090578258037567,0.1574949026107788,-0.2676209509372711
1780625915115357000,4.22435693359375,-0.14748141169548035,0.08192219585180283,-0.23665650188922882
1780625915125352000,4.23435205078125,-0.14535941183567047,0.15270742774009705,-0.20709674060344696
1780625915135347000,4.244346923828125,-0.13465616106987,0.3047446310520172,-0.16581562161445618
1780625915145342000,4.254342041015625,-0.11866974085569382,0.4761352837085724,-0.11365441977977753
1780625915155337000,4.2643369140625,-0.08895670622587204,0.5763874053955078,-0.06304071098566055
1780625915165332000,4.27433203125,-0.05225967988371849,0.5401902794837952,-0.0350000225007534
1780625915175326700,4.28432666015625,-0.023131176829338074,0.37488311529159546,-0.04117082431912422
1780625915185321700,4.29432177734375,0.0030860458500683308,0.14034783840179443,-0.08017601817846298
1780625915195316700,4.304316650390625,0.024367285892367363,-0.07142340391874313,-0.13782483339309692
1780625915205311700,4.314311767578125,0.04034678637981415,-0.20993466675281525,-0.18791969120502472
1780625915215306800,4.324306640625,0.049947768449783325,-0.2752261757850647,-0.2158237248659134
1780625915225301800,4.3343017578125,0.05768957734107971,-0.2885321378707886,-0.2131967842578888
1780625915235297000,4.344297119140625,0.0584712028503418,-0.30716249346733093,-0.1928718239068985
1780625915245292800,4.354292724609375,0.05826108157634735,-0.3421572148799896,-0.15393000841140747
1780625915255287800,4.364287841796875,0.06285244971513748,-0.39884981513023376,-0.09765585511922836
1780625915265282800,4.37428271484375,0.06223566085100174,-0.4513915777206421,-0.024557676166296005
1780625915275277800,4.38427783203125,0.05704112350940704,-0.4599885642528534,0.0578807108104229
1780625915285272800,4.39427294921875,0.04127734154462814,-0.423147976398468,0.1484830528497696
1780625915295267800,4.404267822265625,0.0164753720164299,-0.36490094661712646,0.24278002977371216
1780625915305262800,4.414262939453125,0.00034700147807598114,-0.30528342723846436,0.3279508650302887
1780625915315257900,4.4242578125,0.00174750667065382,-0.2567683160305023,0.3885212242603302
1780625915325252900,4.4342529296875,0.012649955227971077,-0.24227246642112732,0.4276968538761139
1780625915335248000,4.444247802734375,0.023455284535884857,-0.2838399410247803,0.4502282440662384
1780625915345242600,4.45424267578125,0.0179984662681818,-0.3705497980117798,0.4602273404598236
1780625915355238000,4.46423779296875,-0.011445465497672558,-0.490587055683136,0.448739618062973
1780625915365233000,4.47423291015625,-0.0557870976626873,-0.6798248887062073,0.4202059805393219
1780625915375228000,4.484227783203125,-0.12017614394426346,-0.9039932489395142,0.43217942118644714
1780625915385223000,4.494222900390625,-0.20070694386959076,-1.1079866886138916,0.48408442735671997
1780625915395218000,4.504218017578125,-0.27661338448524475,-1.231164813041687,0.5458280444145203
1780625915405214000,4.5142138671875,-0.3373688757419586,-1.265689730644226,0.5835501551628113
1780625915415208700,4.524208740234375,-0.3788234293460846,-1.1895701885223389,0.5513042211532593
1780625915425203700,4.53420361328125,-0.3931352496147156,-1.020102858543396,0.4391113519668579
1780625915435198700,4.54419873046875,-0.39095741510391235,-0.7943075299263,0.2717096209526062
1780625915445193700,4.55419384765625,-0.40450459718704224,-0.5365140438079834,0.11482545733451843
1780625915455188700,4.564188720703125,-0.43358609080314636,-0.30798760056495667,0.05463479459285736
1780625915465183700,4.574183837890625,-0.4410024583339691,-0.16968990862369537,0.09248683601617813
1780625915475179000,4.584178955078125,-0.41354110836982727,-0.1864224672317505,0.19015631079673767
1780625915485174000,4.594174072265625,-0.3659573197364807,-0.38035252690315247,0.3248768448829651
1780625915495169000,4.6041689453125,-0.2935173213481903,-0.6007631421089172,0.42946913838386536
1780625915505164000,4.6141640625,-0.18135933578014374,-0.6857944130897522,0.41180598735809326
1780625915515158800,4.62415869140625,-0.0624295175075531,-0.5514299273490906,0.24999263882637024
1780625915525153800,4.63415380859375,0.012890266254544258,-0.25669440627098083,0.025057535618543625
1780625915535148800,4.644148681640625,0.0453944057226181,0.0028884841594845057,-0.1881093680858612
1780625915545143800,4.654143798828125,0.04530412703752518,0.0705101415514946,-0.35407543182373047
1780625915555138800,4.664138916015625,0.026239432394504547,-0.10635770112276077,-0.43946072459220886
1780625915565134800,4.674134765625,0.0027247839607298374,-0.46807968616485596,-0.4145929217338562
1780625915575129900,4.6841298828125,-0.04815053567290306,-0.8052145838737488,-0.20645765960216522
1780625915585124900,4.694124755859375,-0.0780210867524147,-0.8061011433601379,0.15875014662742615
1780625915595119900,4.704119873046875,-0.0538952462375164,-0.3925282955169678,0.5100297927856445
1780625915605115000,4.714114990234375,-0.006867819465696812,0.1554623693227768,0.7254398465156555
1780625915615110000,4.72410986328125,0.014361264184117317,0.5423508286476135,0.7383317947387695
1780625915625105000,4.73410498046875,-0.023437514901161194,0.6573245525360107,0.5781663656234741
1780625915635100000,4.744099853515625,-0.09242970496416092,0.5037944316864014,0.3528435230255127
1780625915645095000,4.754094970703125,-0.13187777996063232,0.19048123061656952,0.17615343630313873
1780625915655090000,4.76408984375,-0.10857652127742767,-0.07661997526884079,0.1547113060951233
1780625915665085000,4.7740849609375,-0.06765412539243698,-0.2364692986011505,0.2730928063392639
1780625915675080000,4.784079833984375,-0.041091833263635635,-0.29798686504364014,0.441476047039032
1780625915685074700,4.79407470703125,-0.016491152346134186,-0.22199809551239014,0.586800217628479
1780625915695069700,4.804069580078125,0.011731354519724846,-0.06593924760818481,0.6579817533493042
1780625915705064700,4.814064697265625,0.02432171441614628,0.07062684744596481,0.6398218870162964
1780625915715059700,4.824059814453125,0.025570830330252647,0.1519688218832016,0.5506561398506165
1780625915725056000,4.834055908203125,0.03557392954826355,0.16613204777240753,0.4050672650337219
1780625915735051000,4.844051025390625,0.04838210344314575,0.10735238343477249,0.2764110863208771
1780625915745045500,4.85404541015625,0.060565266758203506,-0.010628310032188892,0.23142151534557343
1780625915755040500,4.86404052734375,0.08104585856199265,-0.14172033965587616,0.2756936252117157
1780625915765035300,4.87403515625,0.09770606458187103,-0.21260756254196167,0.3389967083930969
1780625915775030300,4.8840302734375,0.09774592518806458,-0.17744340002536774,0.3671167492866516
1780625915785025300,4.894025390625,0.08368842303752899,-0.07807153463363647,0.3573962152004242
1780625915795020300,4.904020263671875,0.05704350769519806,0.027163062244653702,0.32477256655693054
1780625915805015300,4.914015380859375,0.022892463952302933,0.11286704987287521,0.27434056997299194
1780625915815010300,4.92401025390625,-0.013357041403651237,0.18278127908706665,0.21987584233283997
1780625915825005300,4.93400537109375,-0.05484642833471298,0.2264603078365326,0.17788471281528473
1780625915835000300,4.944000244140625,-0.08715379983186722,0.2470356523990631,0.18689078092575073
1780625915844995600,4.95399560546875,-0.1039263904094696,0.25237396359443665,0.2377243936061859
1780625915854990600,4.963990478515625,-0.10581003129482269,0.22800922393798828,0.3079661726951599
1780625915864985300,4.9739853515625,-0.10597807168960571,0.2164745330810547,0.35379037261009216
1780625915874980400,4.98398046875,-0.10902827233076096,0.2408217489719391,0.3438892960548401
1780625915884976400,4.993976318359375,-0.11536846309900284,0.28126317262649536,0.2896401882171631
1780625915894971400,5.003971435546875,-0.11414405703544617,0.2993600368499756,0.2243689000606537
1780625915904966400,5.01396630859375,-0.1035236343741417,0.30006924271583557,0.18903568387031555
1780625915914961400,5.02396142578125,-0.08189325779676437,0.26813799142837524,0.19735433161258698
1780625915924956400,5.033956298828125,-0.056200411170721054,0.19879542291164398,0.24430640041828156
1780625915934951400,5.043951416015625,-0.03731682151556015,0.14002324640750885,0.2960745096206665
1780625915944946200,5.0539462890625,-0.021101366728544235,0.13769058883190155,0.3091237545013428
1780625915954941400,5.06394140625,0.011114479042589664,0.18704313039779663,0.2772294282913208
1780625915964936400,5.0739365234375,0.042201824486255646,0.24503159523010254,0.21618309617042542
1780625915974931500,5.083931396484375,0.05904533714056015,0.28219088912010193,0.15254206955432892
1780625915984926500,5.093926513671875,0.0644901692867279,0.26873233914375305,0.10955704748630524
1780625915994921500,5.10392138671875,0.05567830428481102,0.192768856883049,0.09565295279026031
1780625916004916500,5.11391650390625,0.035797275602817535,0.11015734076499939,0.09938856959342957
1780625916014911500,5.123911376953125,0.015068745240569115,0.08081048727035522,0.11664754152297974
1780625916024906500,5.133906494140625,0.011230599135160446,0.10112001746892929,0.13835948705673218
1780625916034901500,5.143901611328125,0.02375132590532303,0.15129214525222778,0.14734870195388794
1780625916044897300,5.153897216796875,0.024150267243385315,0.21503810584545135,0.12207850068807602
1780625916054892300,5.163892333984375,0.020793696865439415,0.23952601850032806,0.07276971638202667
1780625916064887300,5.17388720703125,0.0282787773758173,0.20923548936843872,0.034107014536857605
1780625916074882600,5.183882568359375,0.028329428285360336,0.19993115961551666,0.009409703314304352
1780625916084877600,5.193877685546875,0.018998242914676666,0.23145073652267456,-0.002245087642222643
1780625916094872600,5.20387255859375,-0.008045099675655365,0.24768730998039246,0.018287060782313347
1780625916104867600,5.21386767578125,-0.041449930518865585,0.2331262081861496,0.06624206900596619
1780625916114862300,5.2238623046875,-0.057020485401153564,0.21989330649375916,0.12421835213899612
1780625916124857300,5.233857421875,-0.05906286463141441,0.2113986313343048,0.1600349396467209
1780625916134852400,5.243852294921875,-0.043502822518348694,0.19526633620262146,0.14970186352729797
1780625916144847400,5.253847412109375,-0.013918565586209297,0.16189372539520264,0.0816975012421608
1780625916154842400,5.26384228515625,0.022777320817112923,0.11315787583589554,-0.013471595011651516
1780625916164837400,5.27383740234375,0.0554785430431366,0.019692111760377884,-0.08581583201885223
1780625916174832400,5.283832275390625,0.07224403321743011,-0.12636476755142212,-0.10537116974592209
1780625916184827400,5.293827392578125,0.06702981889247894,-0.3072993755340576,-0.05293751880526543
1780625916194822400,5.303822509765625,0.03962782770395279,-0.4654587209224701,0.05452996864914894
1780625916204818400,5.313818359375,0.015175748616456985,-0.5411015748977661,0.15278249979019165
1780625916214813400,5.3238134765625,0.011682008393108845,-0.5132510662078857,0.18524543941020966
1780625916224808400,5.333808349609375,0.023089658468961716,-0.39144080877304077,0.1486211121082306
1780625916234803500,5.343803466796875,0.044879280030727386,-0.20986901223659515,0.061505645513534546
1780625916244798500,5.353798583984375,0.05772983282804489,-0.04542732983827591,-0.03720468655228615
1780625916254793500,5.36379345703125,0.05728845298290253,0.048201970756053925,-0.11276369541883469
1780625916264788500,5.37378857421875,0.06039822846651077,0.057950474321842194,-0.1314159333705902
1780625916274783500,5.383783447265625,0.06636027991771698,-0.013559572398662567,-0.08589400351047516
1780625916284778200,5.3937783203125,0.07083678990602493,-0.11320680379867554,-0.015706121921539307
1780625916294773200,5.403773193359375,0.06952668726444244,-0.12597765028476715,0.036550696939229965
1780625916304768300,5.413768310546875,0.05923836678266525,-0.02111569046974182,0.057557977735996246
1780625916314763300,5.42376318359375,0.05743590369820595,0.12369904667139053,0.0634036734700203
1780625916324758300,5.43375830078125,0.06137605383992195,0.22781133651733398,0.06678908318281174
1780625916334753300,5.443753173828125,0.06263605505228043,0.2524297535419464,0.06694388389587402
1780625916344748500,5.45374853515625,0.06802283227443695,0.22060339152812958,0.07924769073724747
1780625916354743600,5.46374365234375,0.06175278127193451,0.15790978074073792,0.1116514503955841
1780625916364739300,5.4737392578125,0.061364755034446716,0.08134708553552628,0.15399278700351715
1780625916374734300,5.483734375,0.06202267110347748,-0.008098081685602665,0.19317613542079926
1780625916384729300,5.493729248046875,0.04999290779232979,-0.06750708073377609,0.2173837423324585
1780625916394724400,5.503724365234375,0.04132147878408432,-0.07475212216377258,0.21953976154327393
1780625916404719400,5.51371923828125,0.04169538617134094,-0.07505732774734497,0.19969521462917328
1780625916414714400,5.52371435546875,0.04725892096757889,-0.09100314974784851,0.17937006056308746
1780625916424709400,5.53370947265625,0.050853654742240906,-0.1348254680633545,0.16070610284805298
1780625916434704400,5.543704345703125,0.05767561122775078,-0.1704728901386261,0.14861942827701569
1780625916444699400,5.553699462890625,0.07356669008731842,-0.1473475843667984,0.1357145458459854
1780625916454694400,5.5636943359375,0.09023323655128479,-0.05906962603330612,0.11264805495738983
1780625916464689400,5.573689453125,0.09806665778160095,0.07533026486635208,0.08354316651821136
1780625916474684400,5.583684326171875,0.08502142876386642,0.19303740561008453,0.05364217981696129
1780625916484679400,5.593679443359375,0.07388754934072495,0.23055654764175415,0.023090926930308342
1780625916494674400,5.60367431640625,0.07759951800107956,0.20353740453720093,0.004871492274105549
1780625916504669400,5.61366943359375,0.09202825278043747,0.18335063755512238,0.00804038718342781
1780625916514665500,5.62366552734375,0.10552225261926651,0.1926785558462143,0.022303875535726547
1780625916524660200,5.63366015625,0.10466871410608292,0.205403670668602,0.03602474555373192
1780625916534655200,5.6436552734375,0.10153502225875854,0.18922124803066254,0.0511644147336483
1780625916544650200,5.653650146484375,0.08530731499195099,0.13997432589530945,0.06818254292011261
1780625916554645200,5.663645263671875,0.05572470277547836,0.0872202217578888,0.0756196528673172
1780625916564640300,5.67364013671875,0.029206812381744385,0.06382062286138535,0.07256554067134857
1780625916574635500,5.683635498046875,0.014432957395911217,0.07868237048387527,0.06397972255945206
1780625916584630500,5.693630615234375,0.013325084000825882,0.10283137857913971,0.05766696482896805
1780625916594625500,5.70362548828125,0.015244275331497192,0.12503166496753693,0.05620802193880081
1780625916604620500,5.71362060546875,0.017474940046668053,0.1337766796350479,0.04867793619632721
1780625916614615600,5.723615478515625,0.02612464874982834,0.12113537639379501,0.024889376014471054
1780625916624610300,5.7336103515625,0.04353746026754379,0.0823991671204567,-0.01654142141342163
1780625916634605300,5.743605224609375,0.06477418541908264,0.04385506734251976,-0.05381149798631668
1780625916644600300,5.753600341796875,0.08217102289199829,0.04667961597442627,-0.07425098866224289
1780625916654595300,5.76359521484375,0.07200172543525696,0.09952931106090546,-0.07616343349218369
1780625916664590300,5.77359033203125,0.05197449401021004,0.17029722034931183,-0.05735298991203308
1780625916674586400,5.78358642578125,0.041987862437963486,0.2401529848575592,-0.0213079284876585
1780625916684581400,5.793581298828125,0.052442099899053574,0.30758899450302124,0.018323902040719986
1780625916694576400,5.803576416015625,0.07726447284221649,0.3838379383087158,0.05253903940320015
1780625916704571400,5.8135712890625,0.10687882453203201,0.443744957447052,0.07033002376556396
1780625916714566400,5.82356640625,0.13315366208553314,0.4539141058921814,0.06597097963094711
1780625916724561400,5.8335615234375,0.15275532007217407,0.4079836308956146,0.048410892486572266
1780625916734556400,5.843556396484375,0.1676163673400879,0.33621299266815186,0.036857184022665024
1780625916744552000,5.853552001953125,0.18337349593639374,0.2796652913093567,0.027235718443989754
1780625916754547000,5.863546875,0.19224369525909424,0.259586900472641,0.026707185432314873
1780625916764542000,5.8735419921875,0.19140054285526276,0.26546424627304077,0.034721169620752335
1780625916774537000,5.883536865234375,0.17831775546073914,0.2647923231124878,0.05339088663458824
1780625916784531700,5.89353173828125,0.15436315536499023,0.2533540427684784,0.0686073899269104
1780625916794526700,5.903526611328125,0.12688931822776794,0.25813379883766174,0.0777580589056015
1780625916804521700,5.913521728515625,0.10165053606033325,0.2892741560935974,0.08526790142059326
1780625916814516700,5.923516845703125,0.08894217014312744,0.3341442048549652,0.0781845673918724
1780625916824512000,5.933511962890625,0.09458008408546448,0.38533949851989746,0.06558675318956375
1780625916834508000,5.943508056640625,0.10607391595840454,0.42953866720199585,0.04153156653046608
1780625916844503000,5.9535029296875,0.11796972155570984,0.4398941099643707,0.030911678448319435
1780625916854497800,5.963497802734375,0.1236405000090599,0.3946830630302429,0.043062474578619
1780625916864492800,5.973492919921875,0.12639793753623962,0.30160585045814514,0.05575030669569969
1780625916874487800,5.98348779296875,0.11988488584756851,0.18999871611595154,0.06821216642856598
1780625916884482800,5.99348291015625,0.10801251232624054,0.09784349799156189,0.073186956346035
1780625916894477800,6.003477783203125,0.09844085574150085,0.048127271234989166,0.06804122030735016
1780625916904472800,6.013472900390625,0.09871090203523636,0.044508565217256546,0.04669438675045967
1780625916914467800,6.0234677734375,0.10059119760990143,0.0859864205121994,0.019978448748588562
1780625916924462800,6.033462890625,0.09425846487283707,0.15063758194446564,-0.010394102893769741
1780625916934457900,6.043457763671875,0.08859319239854813,0.21092350780963898,-0.03701357543468475
1780625916944453000,6.053453125,0.09127739071846008,0.25722095370292664,-0.045693084597587585
1780625916954448000,6.06344775390625,0.09695388376712799,0.2871253490447998,-0.03988014534115791
1780625916964443000,6.07344287109375,0.09682418406009674,0.2980046272277832,-0.032557517290115356
1780625916974438000,6.08343798828125,0.08685712516307831,0.30695146322250366,-0.03237190470099449
1780625916984434000,6.093433837890625,0.07303452491760254,0.3175830841064453,-0.027949990704655647
1780625916994429000,6.103428955078125,0.059534478932619095,0.3090797960758209,-0.021862488240003586
1780625917004424000,6.113423828125,0.05587369576096535,0.2742230296134949,-0.0245906300842762
1780625917014419000,6.1234189453125,0.06476611644029617,0.22716215252876282,-0.03467952460050583
1780625917024414000,6.1334140625,0.0827254131436348,0.18703417479991913,-0.04383440688252449
1780625917034408700,6.14340869140625,0.09256432205438614,0.16367942094802856,-0.05771537497639656
1780625917044403700,6.15340380859375,0.09404637664556503,0.16150762140750885,-0.060814760625362396
1780625917054398700,6.163398681640625,0.09786391258239746,0.17457450926303864,-0.061530981212854385
1780625917064394000,6.17339404296875,0.09905141592025757,0.20516304671764374,-0.057796161621809006
1780625917074389000,6.183388916015625,0.09534189105033875,0.2580694854259491,-0.05770058184862137
1780625917084384000,6.193384033203125,0.08766666054725647,0.30943307280540466,-0.05800684541463852
1780625917094379000,6.20337890625,0.08319371193647385,0.3449714779853821,-0.046631135046482086
1780625917104374000,6.2133740234375,0.07611263543367386,0.34423670172691345,-0.0295147355645895
1780625917114369000,6.223369140625,0.07221053540706635,0.3012588918209076,-0.018633799627423286
1780625917124363800,6.23336376953125,0.06740299612283707,0.2397633194923401,-0.02075554057955742
1780625917134359800,6.24335986328125,0.06924378126859665,0.19572454690933228,-0.034142106771469116
1780625917144354800,6.253354736328125,0.07377728074789047,0.18923282623291016,-0.049538373947143555
1780625917154349800,6.263349853515625,0.08105026930570602,0.21246924996376038,-0.0623307004570961
1780625917164344800,6.2733447265625,0.0845336839556694,0.2406391054391861,-0.07216761261224747
1780625917174340000,6.283340087890625,0.08814452588558197,0.26030293107032776,-0.06689459830522537
1780625917184335000,6.293335205078125,0.08671121299266815,0.26097482442855835,-0.052407801151275635
1780625917194329900,6.303329833984375,0.08578022569417953,0.2518948018550873,-0.034394580870866776
1780625917204324900,6.313324951171875,0.09109935909509659,0.23594991862773895,-0.030917825177311897
1780625917214319900,6.32331982421875,0.09158835560083389,0.20886895060539246,-0.03709346428513527
1780625917224315000,6.33331494140625,0.09414632618427277,0.1920311152935028,-0.04844864830374718
1780625917234310000,6.343309814453125,0.09079018235206604,0.20016629993915558,-0.06055878475308418
1780625917244305000,6.353304931640625,0.0871158167719841,0.2365485429763794,-0.06727421283721924
1780625917254300000,6.3632998046875,0.0843428373336792,0.27822181582450867,-0.07486823201179504
1780625917264295000,6.373294921875,0.08330660313367844,0.3077581524848938,-0.08059962093830109
1780625917274290000,6.3832900390625,0.08099374175071716,0.3170343041419983,-0.08359619975090027
1780625917284285000,6.393284912109375,0.08047202974557877,0.3005099296569824,-0.08311443030834198
1780625917294281000,6.403281005859375,0.08224579691886902,0.27011123299598694,-0.08691972494125366
1780625917304276000,6.41327587890625,0.08552521467208862,0.2408023178577423,-0.10057774186134338
1780625917314271000,6.42327099609375,0.09007188677787781,0.21639321744441986,-0.11929447948932648
1780625917324266000,6.433265869140625,0.09135393053293228,0.20289579033851624,-0.13817469775676727
1780625917334261000,6.443260986328125,0.08072344213724136,0.20001421868801117,-0.15282443165779114
1780625917344256000,6.453256103515625,0.06560628116130829,0.20910757780075073,-0.16132444143295288
1780625917354251000,6.4632509765625,0.04938212037086487,0.2272670716047287,-0.15649692714214325
1780625917364246000,6.47324609375,0.042437128722667694,0.2532464861869812,-0.1507522314786911
1780625917374240800,6.48324072265625,0.039231471717357635,0.29554980993270874,-0.14468157291412354
1780625917384235800,6.49323583984375,0.03969379886984825,0.3673129379749298,-0.1382226049900055
1780625917394230800,6.503230712890625,0.038252122700214386,0.4449923634529114,-0.127058207988739
1780625917404225800,6.513225830078125,0.03811949864029884,0.49511146545410156,-0.11365398019552231
1780625917414220800,6.523220703125,0.03381083905696869,0.4986613988876343,-0.10597487539052963
1780625917424215800,6.5332158203125,0.029764698818325996,0.46375560760498047,-0.11155632883310318
1780625917434212000,6.543212158203125,0.02920151874423027,0.4146590530872345,-0.11967266350984573
1780625917444206800,6.553206787109375,0.027116261422634125,0.371730774641037,-0.1304350197315216
1780625917454201900,6.563201904296875,0.02106551080942154,0.3476020097732544,-0.14174339175224304
1780625917464196900,6.57319677734375,0.017842553555965424,0.36092954874038696,-0.14771153032779694
1780625917474192000,6.58319189453125,0.019262757152318954,0.40822833776474,-0.15101584792137146
1780625917484187000,6.593186767578125,0.031064022332429886,0.46142125129699707,-0.14956042170524597
1780625917494182000,6.603181884765625,0.041334666311740875,0.4815184473991394,-0.1461353898048401
1780625917504177000,6.613177001953125,0.05133110657334328,0.4412147104740143,-0.1375376433134079
1780625917514172000,6.623171875,0.05190145969390869,0.3464649021625519,-0.12737156450748444
1780625917524167000,6.6331669921875,0.03565378114581108,0.21873357892036438,-0.11227330565452576
1780625917534162000,6.643161865234375,0.007014344912022352,0.07051486521959305,-0.10146953910589218
1780625917544156700,6.65315673828125,-0.01446697860956192,-0.06619877368211746,-0.0996447429060936
1780625917554151700,6.663151611328125,-0.01948261260986328,-0.15833979845046997,-0.09726903587579727
1780625917564147000,6.67314697265625,-0.001069782767444849,-0.1505010575056076,-0.09626342356204987
1780625917574142000,6.683141845703125,0.029242713004350662,-0.021658549085259438,-0.08558153361082077
1780625917584137000,6.693136962890625,0.058080483227968216,0.2235240489244461,-0.0532614067196846
1780625917594133000,6.703133056640625,0.08294560015201569,0.5380081534385681,0.005698133260011673
1780625917604128000,6.7131279296875,0.08841786533594131,0.8539820909500122,0.08540067821741104
1780625917614122800,6.723122802734375,0.0758722648024559,1.0776203870773315,0.16192281246185303
1780625917624117800,6.73311767578125,0.03717946261167526,1.1489413976669312,0.23206301033496857
1780625917634112800,6.74311279296875,0.00005639204755425453,1.0886815786361694,0.29190993309020996
1780625917644107800,6.753107666015625,-0.017338311299681664,0.9631093144416809,0.34233447909355164
1780625917654102800,6.763102783203125,-0.006389334797859192,0.8284786939620972,0.3743060827255249
1780625917664097800,6.773097900390625,0.039812516421079636,0.7420913577079773,0.3759801387786865
1780625917674093000,6.783093017578125,0.09243150055408478,0.7342802882194519,0.3427584171295166
1780625917684088000,6.793088134765625,0.1273500621318817,0.752578616142273,0.2890288829803467
1780625917694083000,6.8030830078125,0.15777938067913055,0.7562622427940369,0.24449118971824646
1780625917704078000,6.813078125,0.18441231548786163,0.7038999199867249,0.22783496975898743
1780625917714072800,6.82307275390625,0.20666714012622833,0.5941796898841858,0.25066930055618286
1780625917724067800,6.83306787109375,0.23768498003482819,0.4534873366355896,0.29778462648391724
1780625917734062800,6.843062744140625,0.28300365805625916,0.3209746778011322,0.34440627694129944
1780625917744059000,6.853058837890625,0.321158230304718,0.2341947704553604,0.35704857110977173
1780625917754053000,6.86305322265625,0.3433382213115692,0.18294315040111542,0.33235985040664673
1780625917764048400,6.87304833984375,0.34917187690734863,0.15036843717098236,0.29821494221687317
1780625917774043400,6.88304345703125,0.3423580527305603,0.11831235885620117,0.2686927020549774
1780625917784038400,6.893038330078125,0.32940444350242615,0.08441644161939621,0.2669754922389984
1780625917794033400,6.903033447265625,0.32765302062034607,0.07682573050260544,0.3067797124385834
1780625917804028200,6.913028076171875,0.3631787896156311,0.10472846776247025,0.3773755729198456
1780625917814023200,6.923023193359375,0.41223326325416565,0.1564195454120636,0.44246599078178406
1780625917824018200,6.93301806640625,0.4453677833080292,0.22589050233364105,0.47579866647720337
1780625917834013200,6.94301318359375,0.46687066555023193,0.2918682098388672,0.478095144033432
1780625917844008200,6.95300830078125,0.4802889823913574,0.34181979298591614,0.4628320336341858
1780625917854003200,6.963003173828125,0.49114978313446045,0.3765821158885956,0.4460926353931427
1780625917863998200,6.972998291015625,0.5029598474502563,0.3742577135562897,0.44037750363349915
1780625917873993200,6.9829931640625,0.5368366241455078,0.32708877325057983,0.443825900554657
1780625917883988200,6.99298828125,0.5992408990859985,0.2896340787410736,0.4412167966365814
1780625917893984300,7.002984375,0.6743075847625732,0.29426634311676025,0.42707881331443787
1780625917903979300,7.012979248046875,0.7396538257598877,0.3572216033935547,0.4034248888492584
1780625917913974300,7.022974365234375,0.7807899713516235,0.45445969700813293,0.3763958215713501
1780625917923969300,7.03296923828125,0.8105433583259583,0.55677729845047,0.3604525625705719
1780625917933964300,7.04296435546875,0.8213512301445007,0.647470235824585,0.36058637499809265
1780625917943959300,7.052959228515625,0.812885046005249,0.7009976506233215,0.37685561180114746
1780625917953954300,7.062954345703125,0.7877832055091858,0.7010197639465332,0.4072357714176178
1780625917963949300,7.07294921875,0.7614415884017944,0.6533486247062683,0.43694546818733215
1780625917973944000,7.082944091796875,0.7503916621208191,0.5576134920120239,0.4342585504055023
1780625917983939000,7.09293896484375,0.7500739097595215,0.4344657361507416,0.3978957533836365
1780625917993934000,7.10293408203125,0.7459014058113098,0.31229451298713684,0.35651251673698425
1780625918003929000,7.11292919921875,0.7439825534820557,0.21601326763629913,0.3331014811992645
1780625918013924000,7.122924072265625,0.7253627181053162,0.15366774797439575,0.33193010091781616
1780625918023919400,7.13291943359375,0.7020512819290161,0.1351822167634964,0.3439018130302429
1780625918033914400,7.142914306640625,0.6694722771644592,0.16052018105983734,0.3605858385562897
1780625918043910100,7.15291015625,0.6259168386459351,0.2096613645553589,0.37512803077697754
1780625918053905200,7.1629052734375,0.5742427110671997,0.242485910654068,0.38302478194236755
1780625918063900200,7.172900146484375,0.5298222303390503,0.22559721767902374,0.3956945240497589
1780625918073895200,7.182895263671875,0.4894833266735077,0.1624300181865692,0.4041935205459595
1780625918083890200,7.19289013671875,0.4390915334224701,0.08072476834058762,0.40697920322418213
1780625918093885200,7.20288525390625,0.37567439675331116,0.0013716148678213358,0.40168657898902893
1780625918103880200,7.212880126953125,0.31729498505592346,-0.05969679728150368,0.3893449604511261
1780625918113875200,7.222875244140625,0.2763591408729553,-0.08676554262638092,0.37686434388160706
1780625918123870200,7.2328701171875,0.24957972764968872,-0.09272436052560806,0.36289075016975403
1780625918133865200,7.242865234375,0.22767257690429688,-0.0840669572353363,0.3459594249725342
1780625918143860200,7.252860107421875,0.22301523387432098,-0.08746594935655594,0.3250301778316498
1780625918153855200,7.262855224609375,0.23712515830993652,-0.10054996609687805,0.3004250228404999
1780625918163850200,7.272850341796875,0.2698215842247009,-0.12437194585800171,0.2718293070793152
1780625918173845200,7.28284521484375,0.29037606716156006,-0.15314477682113647,0.24246421456336975
1780625918183841300,7.29284130859375,0.26370105147361755,-0.16656124591827393,0.20747001469135284
1780625918193836300,7.302836181640625,0.2141173779964447,-0.14770987629890442,0.1775810420513153
1780625918203831300,7.312831298828125,0.16936296224594116,-0.11332767456769943,0.15365278720855713
1780625918213826300,7.322826416015625,0.1329827904701233,-0.09996600449085236,0.14008517563343048
1780625918223821000,7.332821044921875,0.1073293536901474,-0.13637247681617737,0.1375330686569214
1780625918233816000,7.342816162109375,0.1054401844739914,-0.21170318126678467,0.14248517155647278
1780625918243811000,7.35281103515625,0.11714956909418106,-0.30651119351387024,0.14448334276676178
1780625918253806000,7.36280615234375,0.12416306138038635,-0.3849714696407318,0.136845201253891
1780625918263801300,7.37280126953125,0.12235371768474579,-0.42463207244873047,0.11535722017288208
1780625918273796400,7.38279638671875,0.10306963324546814,-0.4159018099308014,0.08903564512729645
1780625918283791400,7.392791259765625,0.07584067434072495,-0.38160642981529236,0.06721396744251251
1780625918293786400,7.402786376953125,0.040806204080581665,-0.3438321352005005,0.05066336318850517
1780625918303781400,7.412781494140625,0.0032002367079257965,-0.3237181007862091,0.0431647002696991
1780625918313776000,7.422776123046875,-0.033197347074747086,-0.31446024775505066,0.040446773171424866
1780625918323771100,7.432771240234375,-0.06496113538742065,-0.29946744441986084,0.040214814245700836
1780625918333767200,7.44276708984375,-0.07991167157888412,-0.2734583616256714,0.040482014417648315
1780625918343762200,7.45276220703125,-0.0960962325334549,-0.23668356239795685,0.04056936502456665
1780625918353757200,7.462757080078125,-0.11228656768798828,-0.20689696073532104,0.02898327447474003
1780625918363752200,7.472752197265625,-0.1287965625524521,-0.19436092674732208,0.003143423004075885
1780625918373747200,7.482747314453125,-0.13865932822227478,-0.16773417592048645,-0.035672493278980255
1780625918383742200,7.4927421875,-0.14409004151821136,-0.11919673532247543,-0.08147913217544556
1780625918393737200,7.5027373046875,-0.1417357325553894,-0.059984609484672546,-0.11470900475978851
1780625918403732200,7.512732177734375,-0.1421027034521103,-0.008852713741362095,-0.12893667817115784
1780625918413727200,7.522727294921875,-0.15135163068771362,0.036912672221660614,-0.13036300241947174
1780625918423722200,7.53272216796875,-0.16086098551750183,0.07072469592094421,-0.13184772431850433
1780625918433717200,7.54271728515625,-0.1656535416841507,0.08059831708669662,-0.1348809003829956
1780625918443712300,7.552712158203125,-0.1599264144897461,0.05594862625002861,-0.14127542078495026
1780625918453707300,7.562707275390625,-0.1491638869047165,-0.0036700826603919268,-0.1510578691959381
1780625918463702300,7.572702392578125,-0.13926199078559875,-0.08239098638296127,-0.1725383847951889
1780625918473697300,7.582697265625,-0.137740820646286,-0.14990104734897614,-0.20670285820960999
1780625918483693000,7.592693115234375,-0.1509982943534851,-0.1800810545682907,-0.24220626056194305
1780625918493688000,7.60268798828125,-0.16862617433071136,-0.16185584664344788,-0.26829925179481506
1780625918503683300,7.612683349609375,-0.18375186622142792,-0.1171075627207756,-0.2798704206943512
1780625918513678300,7.62267822265625,-0.1934315711259842,-0.07125523686408997,-0.28368520736694336
1780625918523673300,7.63267333984375,-0.18962085247039795,-0.04901651293039322,-0.28630921244621277
1780625918533668400,7.64266845703125,-0.1854490041732788,-0.05095285922288895,-0.290706992149353
1780625918543663400,7.652663330078125,-0.18571823835372925,-0.056720200926065445,-0.3005923926830292
1780625918553658400,7.662658447265625,-0.199985533952713,-0.042295344173908234,-0.3148602545261383
1780625918563653000,7.672653076171875,-0.22736603021621704,0.003734997007995844,-0.3339734971523285
1780625918573648100,7.682648193359375,-0.2574169337749481,0.06172257289290428,-0.3542884588241577
1780625918583643100,7.69264306640625,-0.2814517021179199,0.12211614847183228,-0.36684927344322205
1780625918593638100,7.70263818359375,-0.2998273968696594,0.162753164768219,-0.37035810947418213
1780625918603633200,7.712633056640625,-0.31506574153900146,0.18223844468593597,-0.3685873746871948
1780625918613628200,7.722628173828125,-0.3283636271953583,0.18598464131355286,-0.3670658469200134
1780625918623623200,7.732623046875,-0.34196412563323975,0.18061117827892303,-0.3742976486682892
1780625918633619200,7.742619140625,-0.35274291038513184,0.15669186413288116,-0.3812977373600006
1780625918643614200,7.7526142578125,-0.3656344413757324,0.130288228392601,-0.3811699151992798
1780625918653609200,7.762609130859375,-0.37428808212280273,0.11457526683807373,-0.38102099299430847
1780625918663604200,7.772604248046875,-0.37792834639549255,0.08997617661952972,-0.38043299317359924
1780625918673599200,7.78259912109375,-0.37685906887054443,0.04078624024987221,-0.3825142979621887
1780625918683594200,7.79259423828125,-0.3707132935523987,0.04460201784968376,-0.40895602107048035
1780625918693589200,7.80258935546875,-0.3520645797252655,0.1144493892788887,-0.45780229568481445
1780625918703584300,7.812584228515625,-0.3245660960674286,0.16333279013633728,-0.49906131625175476
1780625918713579300,7.822579345703125,-0.2990820109844208,0.14762268960475922,-0.5150541663169861
1780625918723574300,7.83257421875,-0.2842908203601837,0.07380812615156174,-0.5029852390289307
1780625918733569000,7.842569091796875,-0.27819153666496277,-0.012203795835375786,-0.48206576704978943
1780625918743564000,7.85256396484375,-0.2776072323322296,-0.05435151606798172,-0.43621572852134705
1780625918753559000,7.86255908203125,-0.29062825441360474,0.01750565692782402,-0.3579972982406616
1780625918763554000,7.872553955078125,-0.3096538782119751,0.15960101783275604,-0.30405789613723755
1780625918773550000,7.882550048828125,-0.32577788829803467,0.305926114320755,-0.3068573772907257
1780625918783545000,7.892545166015625,-0.335803359746933,0.36920151114463806,-0.34483805298805237
1780625918793540000,7.9025400390625,-0.3246106505393982,0.3066513240337372,-0.37351587414741516
1780625918803535000,7.91253515625,-0.3182443678379059,0.18717259168624878,-0.3827650547027588
1780625918813530000,7.922530029296875,-0.3272813558578491,0.08456571400165558,-0.3756253123283386
1780625918823525000,7.932525146484375,-0.345485657453537,0.019489243626594543,-0.3721410930156708
1780625918833520000,7.94252001953125,-0.37162670493125916,-0.008935551159083843,-0.367008775472641
1780625918843515100,7.95251513671875,-0.40387412905693054,-0.032434750348329544,-0.34761324524879456
1780625918853510100,7.96251025390625,-0.4437187612056732,-0.06441695988178253,-0.31258219480514526
1780625918863505200,7.972505126953125,-0.4693026840686798,-0.12280143797397614,-0.27417755126953125
1780625918873500200,7.982500244140625,-0.48156487941741943,-0.20721004903316498,-0.24756553769111633
1780625918883495200,7.9924951171875,-0.49199730157852173,-0.2841695547103882,-0.2338973879814148
1780625918893490200,8.002490234375,-0.4979008138179779,-0.34545594453811646,-0.21410799026489258
1780625918903485200,8.012485107421876,-0.4946674704551697,-0.3984949290752411,-0.1847839206457138
1780625918913480000,8.02247998046875,-0.481795996427536,-0.46681535243988037,-0.1516837775707245
1780625918923476200,8.032476318359375,-0.46263933181762695,-0.5386701226234436,-0.13503342866897583
1780625918933471200,8.04247119140625,-0.4390823245048523,-0.5982034802436829,-0.13833127915859222
1780625918943466200,8.05246630859375,-0.4295727014541626,-0.6172221899032593,-0.1549864262342453
1780625918953461200,8.062461181640625,-0.43474525213241577,-0.574307382106781,-0.1799306869506836
1780625918963456300,8.072456298828126,-0.44420531392097473,-0.506013035774231,-0.20173265039920807
1780625918973451300,8.082451171875,-0.4614331126213074,-0.458719938993454,-0.21740224957466125
1780625918983446000,8.092446044921875,-0.4693445563316345,-0.45916548371315,-0.22986531257629395
1780625918993441000,8.10244091796875,-0.46764564514160156,-0.46088409423828125,-0.24110928177833557
1780625919003436000,8.11243603515625,-0.4593283236026764,-0.43856972455978394,-0.24569018185138702
1780625919013431000,8.12243115234375,-0.4522114396095276,-0.3919003903865814,-0.2400674968957901
1780625919023426000,8.132426025390625,-0.45157361030578613,-0.33509862422943115,-0.23265618085861206
1780625919033421000,8.142421142578126,-0.4660605192184448,-0.275760293006897,-0.23309902846813202
1780625919043416000,8.152416015625,-0.47052663564682007,-0.2392188012599945,-0.23777687549591064
1780625919053411000,8.1624111328125,-0.46452492475509644,-0.23624621331691742,-0.24321110546588898
1780625919063407000,8.172406982421874,-0.4446990191936493,-0.2743600308895111,-0.24765218794345856
1780625919073402000,8.182402099609375,-0.4208489954471588,-0.34879207611083984,-0.26432570815086365
1780625919083397000,8.192397216796875,-0.4010225534439087,-0.4369554817676544,-0.28835806250572205
1780625919093392100,8.20239208984375,-0.3996858298778534,-0.5109213590621948,-0.31703072786331177
1780625919103387100,8.21238720703125,-0.39753851294517517,-0.5278246998786926,-0.34932154417037964
1780625919113382100,8.222382080078125,-0.37230125069618225,-0.47817179560661316,-0.3445062041282654
1780625919123377200,8.232377197265626,-0.3320766091346741,-0.42194685339927673,-0.27597776055336
1780625919133372200,8.2423720703125,-0.32314372062683105,-0.3847702443599701,-0.13830971717834473
1780625919143367200,8.2523671875,-0.3666105270385742,-0.40187278389930725,0.044645704329013824
1780625919153362000,8.26236181640625,-0.4259863793849945,-0.5473024249076843,0.18709152936935425
1780625919163357000,8.27235693359375,-0.4863799512386322,-0.8287572860717773,0.248975932598114
1780625919173352000,8.28235205078125,-0.49302369356155396,-1.1215379238128662,0.23938903212547302
1780625919183347000,8.292346923828125,-0.40313616394996643,-1.1696701049804688,0.20544198155403137
1780625919193342200,8.30234228515625,-0.32799673080444336,-1.0789092779159546,0.22337642312049866
1780625919203338200,8.312338134765625,-0.29874110221862793,-1.0030677318572998,0.26542240381240845
1780625919213333200,8.322333251953125,-0.2912846505641937,-0.9949830770492554,0.29424139857292175
1780625919223328000,8.332327880859374,-0.2441680133342743,-1.0204626321792603,0.30238932371139526
1780625919233323000,8.342322998046875,-0.16339214146137238,-1.009596586227417,0.24730679392814636
1780625919243318000,8.352318115234375,-0.1129731684923172,-0.8918231725692749,0.09585203230381012
1780625919253313000,8.36231298828125,-0.09361963719129562,-0.6623153686523438,-0.09260579943656921
1780625919263308000,8.37230810546875,-0.06927275657653809,-0.4255254864692688,-0.20141936838626862
1780625919273303000,8.382302978515625,-0.06145601347088814,-0.36058309674263,-0.15322385728359222
1780625919283298000,8.392298095703126,-0.07578568160533905,-0.4379471242427826,0.036497607827186584
1780625919293293000,8.40229296875,-0.10131847858428955,-0.48329758644104004,0.26531240344047546
1780625919303288000,8.4122880859375,-0.1410914659500122,-0.4099551737308502,0.4081989824771881
1780625919313283300,8.422283447265626,-0.1918744295835495,-0.22783924639225006,0.4244801998138428
1780625919323278000,8.432278076171874,-0.24280337989330292,-0.0783456414937973,0.33633384108543396
1780625919333273000,8.442273193359375,-0.26406246423721313,-0.11999645084142685,0.24406889081001282
1780625919343268000,8.45226806640625,-0.24771440029144287,-0.41265708208084106,0.22397615015506744
1780625919353264000,8.46226416015625,-0.2225637286901474,-0.7588832974433899,0.2676546275615692
1780625919363259100,8.472259033203125,-0.19986426830291748,-0.9776334762573242,0.29920563101768494
1780625919373254100,8.482254150390625,-0.18504022061824799,-1.0048290491104126,0.26071080565452576
1780625919383249200,8.492249267578124,-0.18290036916732788,-0.8625130653381348,0.17193885147571564
1780625919393244000,8.502243896484375,-0.19046199321746826,-0.6365930438041687,0.08435285836458206
1780625919403239000,8.512239013671875,-0.19921395182609558,-0.3876604735851288,0.027282388880848885
1780625919413234000,8.52223388671875,-0.21363936364650726,-0.13525180518627167,-0.006255104672163725
1780625919423229200,8.532229248046875,-0.22742414474487305,0.11291565001010895,-0.01310315728187561
1780625919433224200,8.54222412109375,-0.2472473531961441,0.2537270784378052,0.00036013079807162285
1780625919443219200,8.55221923828125,-0.2685585021972656,0.22753781080245972,0.010801851749420166
1780625919453214200,8.562214111328124,-0.3072543144226074,0.05609181150794029,0.013013189658522606
1780625919463209200,8.572209228515625,-0.3272615671157837,-0.18794164061546326,0.020530227571725845
1780625919473204200,8.582204345703126,-0.3095764219760895,-0.4141203761100769,0.026204798370599747
1780625919483199200,8.59219921875,-0.28171202540397644,-0.5596679449081421,0.031970541924238205
1780625919493195000,8.602195068359375,-0.25466492772102356,-0.6269385814666748,0.030794138088822365
1780625919503190000,8.61218994140625,-0.23357190191745758,-0.6498843431472778,0.027618050575256348
1780625919513185000,8.62218505859375,-0.2235608845949173,-0.6653026938438416,0.024981634691357613
1780625919523180000,8.632179931640625,-0.2115795910358429,-0.6915803551673889,0.015586534515023232
1780625919533175000,8.642175048828125,-0.1941569447517395,-0.7148966193199158,0.004955624230206013
1780625919543170300,8.65217041015625,-0.1799769401550293,-0.7444015145301819,0.012348026968538761
1780625919553165300,8.662165283203125,-0.17619507014751434,-0.8000404834747314,0.03346024826169014
1780625919563160000,8.67216015625,-0.1771729737520218,-0.9085147380828857,0.04117702320218086
1780625919573155000,8.682155029296876,-0.1721218079328537,-1.016838788986206,0.016830459237098694
1780625919583150000,8.692150146484375,-0.14858292043209076,-1.027153730392456,-0.03515470772981644
1780625919593145000,8.70214501953125,-0.12806588411331177,-0.9176229238510132,-0.10517745465040207
1780625919603140000,8.71214013671875,-0.1229797750711441,-0.7261658906936646,-0.18027938902378082
1780625919613135000,8.722135009765625,-0.14631737768650055,-0.5440448522567749,-0.24522602558135986
1780625919623130000,8.732130126953125,-0.21476595103740692,-0.3959999680519104,-0.28269219398498535
1780625919633125000,8.742125,-0.2940285801887512,-0.24780644476413727,-0.267072856426239
1780625919643121000,8.752120849609375,-0.36151573061943054,-0.09633251279592514,-0.18524351716041565
1780625919653116000,8.762115966796875,-0.4107438623905182,0.06096804514527321,-0.0846448540687561
1780625919663111200,8.772111083984376,-0.4202081859111786,0.27633121609687805,-0.015188817866146564
1780625919673106200,8.782106201171874,-0.40262624621391296,0.48826977610588074,0.0004842812195420265
1780625919683101200,8.79210107421875,-0.37572354078292847,0.6927757859230042,-0.024148626253008842
1780625919693096200,8.80209619140625,-0.35241997241973877,0.8563507199287415,-0.048130642622709274
1780625919703091200,8.81209130859375,-0.3406325578689575,0.8840132355690002,-0.04372044652700424
1780625919713086200,8.822086181640625,-0.3326723277568817,0.7746497392654419,-0.037908077239990234
1780625919723081200,8.832081298828125,-0.32270675897598267,0.6052543520927429,-0.07354968786239624
1780625919733076000,8.842075927734374,-0.31250250339508057,0.4498526453971863,-0.13464482128620148
1780625919743071000,8.852071044921875,-0.3095722794532776,0.29868683218955994,-0.17651396989822388
1780625919753066800,8.862066650390625,-0.31072375178337097,0.12295683473348618,-0.16010037064552307
1780625919763062000,8.87206201171875,-0.32928040623664856,0.0035087342839688063,-0.08529909700155258
1780625919773057000,8.88205712890625,-0.36517366766929626,0.014798939228057861,-0.01279160100966692
1780625919783052800,8.892052734375,-0.4000864028930664,0.1514691710472107,0.04879586398601532
1780625919793047800,8.9020478515625,-0.4568745195865631,0.3342255651950836,0.13778333365917206
1780625919803042800,8.912042724609375,-0.5346601605415344,0.502659022808075,0.28559064865112305
1780625919813037800,8.922037841796875,-0.5913564562797546,0.6058619022369385,0.4530794322490692
1780625919823032800,8.93203271484375,-0.6091657876968384,0.5838072299957275,0.5738593935966492
1780625919833027800,8.94202783203125,-0.5756939053535461,0.3966890275478363,0.5774181485176086
1780625919843022800,8.95202294921875,-0.4922589659690857,0.10384756326675415,0.4372383952140808
1780625919853017900,8.962017822265626,-0.366692453622818,-0.17359955608844757,0.23481619358062744
1780625919863012900,8.972012939453125,-0.22823365032672882,-0.3096886873245239,0.09568999707698822
1780625919873007900,8.9820078125,-0.11806200444698334,-0.1606937050819397,0.03391988202929497
1780625919883003000,8.9920029296875,-0.09901879727840424,0.1801043599843979,0.03454279527068138
1780625919892998000,9.001997802734374,-0.1588141769170761,0.5745536088943481,0.042500369250774384
1780625919902993000,9.011992919921875,-0.21285291016101837,0.929847002029419,0.03948194161057472
1780625919912988000,9.02198779296875,-0.2709997296333313,1.1655685901641846,0.0361088290810585
1780625919922983000,9.03198291015625,-0.3554253876209259,1.3202955722808838,0.009623157791793346
1780625919932979000,9.04197900390625,-0.44827044010162354,1.3357232809066772,0.006055540405213833
1780625919942974000,9.051973876953125,-0.5117849707603455,1.159065842628479,0.021397745236754417
1780625919952969000,9.061968994140624,-0.5108858346939087,0.7741451859474182,0.039980292320251465
1780625919962963700,9.071963623046875,-0.4561808109283447,0.33555665612220764,0.03195805102586746
1780625919972958700,9.081958740234375,-0.36379656195640564,-0.01957075297832489,0.0012967872899025679
1780625919982953700,9.09195361328125,-0.258533775806427,-0.17704053223133087,-0.041790228337049484
1780625919992949000,9.101948974609375,-0.18933476507663727,-0.10858989506959915,-0.08698522299528122
1780625920002944000,9.111944091796875,-0.17833510041236877,0.12011545151472092,-0.1173710897564888
1780625920012939000,9.12193896484375,-0.24165907502174377,0.3720594346523285,-0.09406199306249619
1780625920022934000,9.13193408203125,-0.33285290002822876,0.4681292474269867,-0.038591548800468445
1780625920032929000,9.141928955078125,-0.40495792031288147,0.3874324858188629,0.0024566014762967825
1780625920042924000,9.151924072265626,-0.41098999977111816,0.18451426923274994,0.009594671428203583
1780625920052918800,9.161918701171874,-0.339755117893219,-0.06599771231412888,0.00005801394581794739
1780625920062913800,9.171913818359375,-0.24426400661468506,-0.19637836515903473,0.00029530166648328304
1780625920072909800,9.181909912109376,-0.1390196532011032,-0.2882848381996155,-0.04056844860315323
1780625920082904800,9.19190478515625,-0.02457216940820217,-0.5084344744682312,-0.14782992005348206
1780625920092899800,9.20189990234375,0.0824069231748581,-0.6596143841743469,-0.28913217782974243
1780625920102894800,9.211894775390626,0.1529436856508255,-0.4828132390975952,-0.40964341163635254
1780625920112890000,9.22189013671875,0.13932257890701294,-0.1734614223241806,-0.4755764603614807
1780625920122884900,9.231884765625,0.1040055900812149,0.15362882614135742,-0.3788094222545624
1780625920132880000,9.2418798828125,0.12212217599153519,0.4858333468437195,-0.25430378317832947
1780625920142875000,9.251875,0.16218996047973633,0.6999927759170532,-0.19344627857208252
1780625920152870000,9.261869873046875,0.17261216044425964,0.7340036630630493,-0.19160687923431396
1780625920162865000,9.271864990234375,0.112326979637146,0.7126448750495911,-0.1520133912563324
1780625920172860000,9.28185986328125,0.038266800343990326,0.49804937839508057,-0.1480909287929535
1780625920182855000,9.29185498046875,0.018505344167351723,0.049541622400283813,-0.2012239247560501
1780625920192850000,9.301849853515625,0.057975638657808304,-0.10475382208824158,-0.19617284834384918
1780625920202845000,9.311844970703126,0.09801413118839264,0.13564999401569366,-0.2470512092113495
1780625920212840000,9.32183984375,0.09134706109762192,0.49446848034858704,-0.3551415801048279
1780625920222835700,9.331835693359375,0.006810073275119066,0.7191489934921265,-0.4090127944946289
1780625920232831000,9.3418310546875,-0.10279931128025055,0.5369638204574585,-0.4269954264163971
1780625920242826000,9.351825927734374,-0.14504611492156982,0.1364443451166153,-0.400178462266922
1780625920252821000,9.361821044921875,-0.1295497715473175,-0.15320871770381927,-0.36908647418022156
1780625920262816000,9.37181591796875,-0.08214576542377472,-0.26969459652900696,-0.3370712697505951
1780625920272811000,9.38181103515625,-0.025669727474451065,-0.04093249887228012,-0.28844791650772095
1780625920282806000,9.391805908203125,0.013131997548043728,0.18006965517997742,-0.2881682813167572
1780625920292801000,9.401801025390625,0.027026139199733734,0.18572549521923065,-0.35913869738578796
1780625920302795800,9.411795654296874,0.029032830148935318,0.13848207890987396,-0.46733787655830383
1780625920312790800,9.421790771484375,0.04637058451771736,-0.15554338693618774,-0.6102835536003113
1780625920322785800,9.431785888671875,0.08137810230255127,-0.38144391775131226,-0.6979572176933289
1780625920332780800,9.44178076171875,0.08337681740522385,-0.0825488269329071,-0.632526695728302
1780625920342775800,9.45177587890625,0.03567640855908394,0.4609115421772003,-0.5297454595565796
1780625920352772000,9.461772216796875,-0.0430765263736248,0.8923758864402771,-0.40065765380859375
1780625920362767000,9.47176708984375,-0.12909236550331116,1.1504751443862915,-0.2645440399646759
1780625920372761900,9.481761962890625,-0.194366917014122,1.0293484926223755,-0.23973315954208374
1780625920382756900,9.4917568359375,-0.19910761713981628,0.47174522280693054,-0.4427741467952728
1780625920392751900,9.501751953125,-0.10933510959148407,0.0021165269427001476,-0.6412349939346313
1780625920402747000,9.511746826171875,0.01499297097325325,-0.11846181750297546,-0.6947810649871826
1780625920412742000,9.521741943359375,0.09816592186689377,0.03103496879339218,-0.6218735575675964
1780625920422737000,9.53173681640625,0.11015547066926956,0.250876784324646,-0.41453850269317627
1780625920432732000,9.54173193359375,0.04744266718626022,0.34849533438682556,-0.28472763299942017
1780625920442727000,9.551726806640625,-0.007107125595211983,0.32321420311927795,-0.2741442322731018
1780625920452722000,9.561721923828125,0.014822922646999359,0.14019620418548584,-0.3028777241706848
1780625920462717000,9.571717041015624,0.10267341881990433,-0.16799810528755188,-0.3907708525657654
1780625920472711700,9.581711669921875,0.184492826461792,-0.34247449040412903,-0.4372420012950897
1780625920482706700,9.591706787109375,0.26772087812423706,-0.3151816129684448,-0.3389362096786499
1780625920492702000,9.601701904296876,0.34988436102867126,-0.12485255300998688,-0.15554217994213104
1780625920502698000,9.611697998046875,0.402321994304657,0.17536640167236328,0.035536959767341614
1780625920512693000,9.62169287109375,0.39956721663475037,0.38371604681015015,0.22618907690048218
1780625920522688000,9.63168798828125,0.3824249804019928,0.40759581327438354,0.3230724632740021
1780625920532683000,9.64168310546875,0.41842588782310486,0.22776591777801514,0.2877351641654968
1780625920542677800,9.651677734375,0.5111668109893799,0.03124300017952919,0.16480764746665955
1780625920552672800,9.6616728515625,0.6059731245040894,-0.1411253660917282,0.00909094326198101
1780625920562667800,9.671667724609375,0.6415327191352844,-0.4082507789134979,-0.16366511583328247
1780625920572662800,9.681662841796875,0.6115255951881409,-0.6678610444068909,-0.3147743046283722
1780625920582657800,9.69165771484375,0.5467433929443359,-0.6045877933502197,-0.2447294443845749
1780625920592652800,9.70165283203125,0.4928183853626251,-0.060873690992593765,0.11612466722726822
1780625920602647800,9.711647705078125,0.4501177966594696,0.4922853708267212,0.4049205183982849
1780625920612643000,9.72164306640625,0.4075024127960205,0.523282527923584,0.4050913453102112
1780625920622638000,9.73163818359375,0.4083612859249115,0.15141893923282623,0.2690829038619995
1780625920632633000,9.741633056640625,0.45729750394821167,-0.3084276020526886,0.1664218008518219
1780625920642628900,9.75162890625,0.5821036100387573,-0.47293028235435486,0.14802628755569458
1780625920652624000,9.761623779296874,0.8912253975868225,-0.2854281961917877,0.2290555238723755
1780625920662619000,9.771618896484375,1.415930151939392,-0.1408686339855194,0.3563719391822815
1780625920672614000,9.78161376953125,1.9438354969024658,-0.37862467765808105,0.2724744379520416
1780625920682609000,9.79160888671875,1.9800102710723877,-0.5464783906936646,0.019366294145584106
1780625920692604000,9.80160400390625,1.4196003675460815,-0.006217981688678265,0.03813274949789047
1780625920702599000,9.811598876953125,0.741790235042572,1.0028806924819946,0.4343147277832031
1780625920712594000,9.821593994140626,0.30953505635261536,1.1597330570220947,0.7670165300369263
1780625920722588700,9.831588623046875,0.2582114338874817,0.4073881208896637,0.7893372774124146
1780625920732584000,9.841583984375,0.4561331272125244,-0.31937313079833984,0.6329661011695862
1780625920742579000,9.851578857421876,0.5983387231826782,-0.5822430849075317,0.42712852358818054
1780625920752573000,9.861572998046874,0.5692557096481323,-0.4768621623516083,0.366279274225235
1780625920762568000,9.87156787109375,0.47191476821899414,-0.19447201490402222,0.5484762191772461
1780625920772563200,9.881563232421875,0.3926985263824463,0.03278091177344322,0.8063628673553467
1780625920782558200,9.89155810546875,0.35346561670303345,0.08631337434053421,0.924024760723114
1780625920792554200,9.90155419921875,0.33634504675865173,-0.010958967730402946,0.8806463479995728
1780625920802549200,9.91154931640625,0.310548335313797,-0.19983434677124023,0.7578602433204651
1780625920812544000,9.9215439453125,0.29210302233695984,-0.3926185071468353,0.633294403553009
1780625920822539000,9.9315390625,0.29388999938964844,-0.4489358365535736,0.5899794101715088
1780625920832534000,9.941533935546875,0.2886609137058258,-0.3384455144405365,0.6323608160018921
1780625920842529000,9.951529052734376,0.27835822105407715,-0.12334758788347244,0.6810101270675659
1780625920852524000,9.96152392578125,0.2543761134147644,-0.00037182378582656384,0.6973866820335388
1780625920862519000,9.97151904296875,0.21757416427135468,-0.013065248727798462,0.6907705664634705
1780625920872514000,9.98151416015625,0.19238069653511047,-0.09136386960744858,0.6505328416824341
1780625920882509000,9.991509033203124,0.2045486867427826,-0.16373874247074127,0.6110213994979858
1780625920892504300,10.00150439453125,0.24134333431720734,-0.20918887853622437,0.5716308951377869
1780625920902499000,10.0114990234375,0.30252066254615784,-0.30456626415252686,0.5374907851219177
1780625920912494000,10.021494140625,0.3691575825214386,-0.37695372104644775,0.5900725722312927
1780625920922489000,10.031489013671875,0.3938671946525574,-0.26620379090309143,0.7240205407142639
1780625920932485000,10.041485107421876,0.36670464277267456,-0.044638168066740036,0.855521023273468
1780625920942480100,10.051480224609374,0.33158260583877563,0.10924167931079865,0.906786322593689
1780625920952475100,10.06147509765625,0.3200960159301758,0.16162186861038208,0.888577401638031
1780625920962470100,10.07147021484375,0.3244425654411316,0.14954443275928497,0.8389283418655396
1780625920972465200,10.081465087890624,0.343889981508255,0.10017696768045425,0.7899247407913208
1780625920982460000,10.0914599609375,0.36892902851104736,0.029339011758565903,0.7313474416732788
1780625920992455000,10.101454833984375,0.4017486870288849,-0.03162786737084389,0.6433606147766113
1780625921002450000,10.111449951171876,0.43662330508232117,-0.02334010973572731,0.520094096660614
1780625921012445200,10.121445068359375,0.46525079011917114,0.05970778688788414,0.3184146285057068
1780625921022440200,10.131440185546875,0.46594640612602234,0.09346228837966919,-0.0075877029448747635
1780625921032435200,10.141435302734376,0.4297211766242981,-0.002162439748644829,-0.3893289268016815
1780625921042430200,10.15143017578125,0.31858402490615845,-0.1269235461950302,-0.7208056449890137
1780625921052425200,10.16142529296875,0.05630451813340187,0.010400716215372086,-1.042299509048462
1780625921062420200,10.171420166015626,-0.21147125959396362,0.5202695727348328,-1.1498671770095825
1780625921072415200,10.181415283203124,-0.37163716554641724,1.1059527397155762,-1.139655590057373
1780625921082411000,10.191410888671875,-0.5340663194656372,1.6699846982955933,-1.4880257844924927
1780625921092406000,10.201406005859376,-0.7829757928848267,2.2683889865875244,-2.2582569122314453
1780625921102401000,10.211401123046874,-1.0634971857070923,3.2009921073913574,-3.13698148727417
1780625921112396000,10.22139599609375,-1.228238821029663,4.256313323974609,-3.5708258152008057
1780625921122391000,10.23139111328125,-1.158079743385315,4.712003707885742,-3.2672131061553955
1780625921132386300,10.24138623046875,-0.9346722960472107,4.164825439453125,-2.4237661361694336
1780625921142381300,10.25138134765625,-0.754368007183075,2.870278835296631,-1.4904975891113281
1780625921152376000,10.2613759765625,-0.7197298407554626,1.4332889318466187,-0.7915619611740112
1780625921162371000,10.27137109375,-0.8194149136543274,0.33639368414878845,-0.4946536123752594
1780625921172366000,10.281365966796875,-1.079798698425293,0.1798395812511444,-0.959231436252594
1780625921182361000,10.291361083984375,-1.3564988374710083,0.9994465112686157,-1.983837366104126
1780625921192356000,10.301356201171876,-1.4200897216796875,1.9648876190185547,-2.8445687294006348
1780625921202351000,10.31135107421875,-1.3074902296066284,2.144838809967041,-3.0072360038757324
1780625921212346000,10.32134619140625,-1.1869908571243286,1.3428012132644653,-2.459348440170288
1780625921222342000,10.331341796875,-1.168438196182251,0.7532655000686646,-1.6976460218429565
1780625921232337000,10.3413369140625,-1.3376084566116333,1.0899343490600586,-1.2081736326217651
1780625921242332000,10.351331787109375,-1.6954419612884521,2.1077218055725098,-1.176504135131836
1780625921252327200,10.3613271484375,-2.135903835296631,2.8611297607421875,-1.3856662511825562
1780625921262322200,10.371322265625,-2.5090925693511963,2.783493995666504,-1.5232264995574951
1780625921272317200,10.381317138671875,-2.708254337310791,2.044107437133789,-1.5011675357818604
1780625921282312200,10.391312255859376,-2.77388858795166,1.3799688816070557,-1.538717269897461
1780625921292307200,10.40130712890625,-2.8023386001586914,1.2216695547103882,-1.8203107118606567
1780625921302302200,10.41130224609375,-2.816087484359741,1.1210206747055054,-2.1837761402130127
1780625921312297200,10.421297119140625,-2.879169464111328,0.6269248127937317,-2.443112850189209
1780625921322292000,10.4312919921875,-3.0009002685546875,0.15396445989608765,-2.55537748336792
1780625921332287000,10.441286865234375,-3.0995349884033203,0.008259068243205547,-2.437729835510254
1780625921342282000,10.451281982421875,-3.0924792289733887,0.10278450697660446,-2.040806293487549
1780625921352277000,10.461277099609376,-2.9541611671447754,0.262423038482666,-1.5982794761657715
1780625921362272000,10.47127197265625,-2.736865282058716,0.25988104939460754,-1.3586863279342651
1780625921372268300,10.481268310546875,-2.486114978790283,-0.04179618880152702,-1.2905291318893433
1780625921382263300,10.49126318359375,-2.2749297618865967,-0.5417053699493408,-1.2357364892959595
1780625921392258000,10.501258056640625,-2.1117429733276367,-0.9146912097930908,-1.1783418655395508
1780625921402253000,10.511253173828125,-1.9598681926727295,-1.0120773315429688,-1.1267783641815186
1780625921412248000,10.521248046875,-1.815382480621338,-0.9306342601776123,-1.077749252319336
1780625921422243000,10.5312431640625,-1.6809011697769165,-0.7652650475502014,-1.011532187461853
1780625921432238000,10.541238037109375,-1.51875638961792,-0.6610084176063538,-0.8574661612510681
1780625921442233000,10.551233154296876,-1.3790597915649414,-0.6661334037780762,-0.4850579798221588
1780625921452228000,10.56122802734375,-1.340164065361023,-0.6611982583999634,0.07426390796899796
1780625921462223000,10.57122314453125,-1.3841408491134644,-0.4506306052207947,0.603033721446991
1780625921472218000,10.581218017578125,-1.4263774156570435,-0.006675965618342161,0.9599701166152954
1780625921482213000,10.591213134765624,-1.4084689617156982,0.3689567744731903,1.0763438940048218
1780625921492208000,10.6012080078125,-1.2210136651992798,0.22378207743167877,1.2609325647354126
1780625921502203000,10.611202880859375,-0.9335107207298279,-0.0607423298060894,1.5520964860916138
1780625921512199200,10.62119921875,-0.6770018935203552,0.11747201532125473,1.3476643562316895
1780625921522194200,10.631194091796875,-0.3588140904903412,-0.07139910012483597,0.6567524671554565
1780625921532189200,10.641189208984375,-0.06889963895082474,0.036372847855091095,0.5928236842155457
1780625921542184200,10.65118408203125,0.26350653171539307,0.6094323396682739,1.1372591257095337
1780625921552179200,10.66117919921875,0.2986081540584564,0.8283619284629822,1.4244658946990967
1780625921562174200,10.67117431640625,-0.16147875785827637,1.4972741603851318,1.3421339988708496
1780625921572169000,10.6811689453125,-0.7535355091094971,1.249525547027588,1.5671769380569458
1780625921582164000,10.6911640625,-1.4181843996047974,1.1223790645599365,1.4727863073349
1780625921592159000,10.701158935546875,-1.7978707551956177,1.1484745740890503,1.1644682884216309
1780625921602154000,10.711154052734376,-1.7282381057739258,0.48114582896232605,1.134487271308899
1780625921612149000,10.72114892578125,-1.5425999164581299,0.3151945173740387,0.8786558508872986
1780625921622144000,10.73114404296875,-1.3093212842941284,0.18624211847782135,0.6684168577194214
1780625921632139300,10.74113916015625,-1.0653480291366577,0.025021549314260483,0.5496270060539246
1780625921642134300,10.75113427734375,-0.9328263401985168,0.04721766710281372,0.4047667682170868
1780625921652129300,10.76112939453125,-0.9131147861480713,0.0533880777657032,0.3067472577095032
1780625921662125000,10.771125,-0.9576223492622375,-0.008622829802334309,0.2648365795612335
1780625921672120000,10.7811201171875,-0.9906342029571533,0.042718563228845596,0.15855880081653595
1780625921682115000,10.791114990234375,-0.9394282698631287,-0.025056224316358566,0.016970515251159668
1780625921692110000,10.801110107421875,-0.8539559841156006,-0.1957460343837738,-0.17397934198379517
1780625921702105000,10.81110498046875,-0.782657265663147,-0.2620922923088074,-0.384695827960968
1780625921712100000,10.82110009765625,-0.7224101424217224,-0.26469162106513977,-0.49907422065734863
1780625921722095000,10.83109521484375,-0.7107297778129578,-0.2700866460800171,-0.49902284145355225
1780625921732090000,10.841090087890626,-0.6886564493179321,-0.35948991775512695,-0.3736162781715393
1780625921742085000,10.851085205078125,-0.7150757908821106,-0.2363152652978897,-0.24943624436855316
1780625921752080100,10.861080078125,-0.72768634557724,-0.14809145033359528,-0.15352065861225128
1780625921762075100,10.8710751953125,-0.6805526614189148,-0.10297803580760956,-0.11386032402515411
1780625921772070100,10.881070068359374,-0.6463369727134705,-0.030608462169766426,-0.1820678859949112
1780625921782065200,10.891065185546875,-0.48734763264656067,-0.22901663184165955,-0.20492659509181976
1780625921792060400,10.901060302734376,-0.3089202344417572,-0.3189082145690918,-0.2421358972787857
1780625921802055400,10.911055419921874,-0.16992798447608948,-0.35113221406936646,-0.2705877721309662
1780625921812051200,10.92105126953125,-0.09522992372512817,-0.39754244685173035,-0.29673048853874207
1780625921822046200,10.931046142578126,-0.08189600706100464,-0.31822073459625244,-0.2026258111000061
1780625921832041200,10.941041259765624,-0.02103518322110176,-0.08594048023223877,0.005277357995510101
1780625921842036200,10.9510361328125,0.026673216372728348,0.22121599316596985,-0.02319183386862278
1780625921852031200,10.96103125,0.2880617678165436,0.03839147090911865,-0.0605856329202652
1780625921862026200,10.971026123046874,0.5278639197349548,-0.19184891879558563,-0.0011750381672754884
1780625921872021200,10.981021240234375,0.5085678100585938,0.018766891211271286,0.059792548418045044
1780625921882016300,10.991016357421875,0.27059489488601685,0.19892068207263947,0.3347806930541992
1780625921892011300,11.00101123046875,-0.16531547904014587,0.40713074803352356,0.6299726963043213
1780625921902006300,11.01100634765625,-0.687612771987915,0.9326174259185791,0.6354212760925293
1780625921912001300,11.021001220703125,-1.1001628637313843,1.2927716970443726,0.5705806612968445
1780625921921996300,11.030996337890626,-1.5196679830551147,1.4634722471237183,0.6371250748634338
1780625921931991300,11.0409912109375,-1.921454906463623,1.775158405303955,0.5428792834281921
1780625921941986300,11.050986328125,-2.219943046569824,1.9254701137542725,0.30946996808052063
1780625921951981300,11.060981201171876,-2.4062623977661133,1.7824697494506836,0.09435147792100906
1780625921961977300,11.070977294921875,-2.5167236328125,1.3966964483261108,-0.19728036224842072
1780625921971972400,11.080972412109375,-2.611565589904785,0.7058987617492676,-0.5680088400840759
1780625921981967000,11.090967041015626,-2.7024080753326416,-0.002960669342428446,-0.8827124834060669
1780625921991962000,11.100962158203124,-2.7399964332580566,-0.4520162343978882,-1.0860223770141602
1780625922001957000,11.11095703125,-2.5688421726226807,-0.8970097303390503,-1.159854769706726
1780625922011952000,11.1209521484375,-2.1214592456817627,-1.5099605321884155,-1.1315070390701294
1780625922021947400,11.130947509765624,-1.5803812742233276,-1.7759697437286377,-1.2543258666992188
1780625922031942400,11.1409423828125,-1.1560208797454834,-1.635067343711853,-1.3213690519332886
1780625922041937400,11.1509375,-1.0240615606307983,-1.297739028930664,-1.0490368604660034
1780625922051932400,11.160932373046874,-1.0998026132583618,-0.7121423482894897,-0.6552824974060059
1780625922061927400,11.170927490234375,-1.2261232137680054,-0.04014026001095772,-0.5373135209083557
1780625922071922200,11.180922119140625,-1.3306858539581299,0.22236022353172302,-0.5688096284866333
1780625922081917200,11.190917236328126,-1.4432185888290405,0.035306453704833984,-0.503901481628418
1780625922091912200,11.200912109375,-1.6177895069122314,-0.20275169610977173,-0.3917521834373474
1780625922101907200,11.2109072265625,-1.7579867839813232,-0.2666206955909729,-0.35120049118995667
1780625922111902200,11.220902099609376,-1.7554540634155273,-0.2630159854888916,-0.4576099216938019
1780625922121898200,11.230898193359375,-1.7141369581222534,-0.2166556715965271,-0.5667766332626343
1780625922131893200,11.240893310546875,-1.7215948104858398,-0.24852041900157928,-0.46290984749794006
1780625922141888300,11.25088818359375,-1.7257375717163086,-0.0935649424791336,-0.42594730854034424
1780625922151883300,11.26088330078125,-1.7383979558944702,0.013533324934542179,-0.4743271768093109
1780625922161878300,11.270878173828125,-1.6914103031158447,-0.040742695331573486,-0.6189938187599182
1780625922171873300,11.280873291015626,-1.6227859258651733,-0.4150547981262207,-0.656403124332428
1780625922181868300,11.290868408203124,-1.5960770845413208,-0.5711264610290527,-0.6725227236747742
1780625922191863300,11.30086328125,-1.640121579170227,-0.3502424657344818,-0.6821444630622864
1780625922201858300,11.3108583984375,-1.6051958799362183,-0.15826264023780823,-0.7210721969604492
1780625922211853300,11.320853271484374,-1.4405670166015625,-0.3436209559440613,-0.8459672927856445
1780625922221848300,11.330848388671875,-1.3483939170837402,-0.7873901724815369,-0.8362177610397339
1780625922231843300,11.34084326171875,-1.3870501518249512,-0.9123097658157349,-0.7734611630439758
1780625922241838300,11.35083837890625,-1.451560139656067,-0.7012321352958679,-0.625740647315979
1780625922251833000,11.3608330078125,-1.369620680809021,-0.4796276092529297,-0.5000386834144592
1780625922261828000,11.370828125,-1.2037030458450317,-0.40478479862213135,-0.3986830413341522
1780625922271824400,11.380824462890626,-0.9869935512542725,-0.43200361728668213,-0.22394677996635437
1780625922281819400,11.3908193359375,-0.7703797817230225,-0.40525615215301514,0.023006552830338478
1780625922291814400,11.400814453125,-0.6263175010681152,-0.2998816668987274,0.13518115878105164
1780625922301809400,11.410809326171876,-0.5644477605819702,-0.3059808611869812,0.2531304359436035
1780625922311804400,11.420804443359375,-0.5679589509963989,-0.2486802488565445,0.4518483579158783
1780625922321799200,11.430799072265625,-0.47846683859825134,-0.14001475274562836,0.6057998538017273
1780625922331794200,11.440794189453126,-0.26893550157546997,-0.04698890075087547,0.7847279906272888
1780625922341789200,11.4507890625,-0.10109483450651169,0.052106522023677826,0.9330838918685913
1780625922351784200,11.4607841796875,0.06098487973213196,0.13441897928714752,0.898359477519989
1780625922361779200,11.470779296875,0.23606108129024506,0.15098437666893005,0.734282910823822
1780625922371774200,11.480774169921874,0.3085860013961792,0.2904614210128784,0.6947066187858582
1780625922381769200,11.490769287109375,0.2500454783439636,0.5919727683067322,0.8421282768249512
1780625922391764200,11.50076416015625,0.047699809074401855,0.9160496592521667,0.8933893442153931
1780625922401759500,11.510759521484376,-0.2570619583129883,1.2807374000549316,0.6427541971206665
1780625922411754500,11.52075439453125,-0.5322039723396301,1.4847991466522217,0.30106672644615173
1780625922421750300,11.530750244140625,-0.7676494717597961,1.330389142036438,0.09639773517847061
1780625922431745300,11.540745361328124,-0.9555279612541199,1.1218689680099487,-0.03622245043516159
1780625922441740300,11.550740234375,-1.1756954193115234,0.932346522808075,-0.13379241526126862
1780625922451735300,11.5607353515625,-1.409238338470459,0.7897831201553345,-0.2048889845609665
1780625922461730300,11.570730224609376,-1.517438530921936,0.7117900252342224,-0.29879096150398254
1780625922471725300,11.580725341796875,-1.3820579051971436,0.7132026553153992,-0.5113875269889832
1780625922481720300,11.59072021484375,-1.0992932319641113,0.6234650015830994,-0.7386358976364136
1780625922491715000,11.600715087890626,-0.9005002379417419,0.28689146041870117,-0.8484788537025452
1780625922501710000,11.6107099609375,-0.8669385313987732,0.12870608270168304,-0.8000098466873169
1780625922511705000,11.620705078125,-0.8699538111686707,0.3295592963695526,-0.7074561715126038
1780625922521700400,11.630700439453125,-0.7185882925987244,0.4616084098815918,-0.7260988354682922
1780625922531695400,11.6406953125,-0.4012734293937683,0.22607341408729553,-0.6964030861854553
1780625922541690400,11.6506904296875,-0.12510550022125244,0.09408609569072723,-0.6076300740242004
1780625922551685400,11.660685302734375,0.017889749258756638,0.33238154649734497,-0.5208263993263245
1780625922561680400,11.670680419921876,-0.04541199281811714,0.706028401851654,-0.42241618037223816
1780625922571675400,11.68067529296875,-0.2865559756755829,0.8072814345359802,-0.4488217830657959
1780625922581670400,11.69067041015625,-0.48501208424568176,0.5376718044281006,-0.5337079167366028
1780625922591666200,11.700666259765624,-0.4575958847999573,0.22803834080696106,-0.5184177160263062
1780625922601661200,11.7106611328125,-0.1487850397825241,0.15815779566764832,-0.18869198858737946
1780625922611656200,11.72065625,0.23315095901489258,0.5183576941490173,-0.03577771410346031
1780625922621651200,11.730651123046876,0.41015610098838806,1.0000548362731934,-0.133067786693573
1780625922631646200,11.740646240234375,0.3605278432369232,1.2624542713165283,-0.10755094885826111
1780625922641641500,11.750641357421875,0.1616256684064865,1.3616745471954346,-0.16327784955501556
1780625922651636500,11.760636474609376,-0.20015309751033783,1.2811623811721802,-0.3816970884799957
1780625922661631200,11.77063134765625,-0.5251320004463196,1.0479869842529297,-0.5887229442596436
1780625922671626200,11.780626220703125,-0.6329622268676758,0.771101176738739,-0.6391901969909668
1780625922681621200,11.790621337890625,-0.5066910982131958,0.7188579440116882,-0.6832138299942017
1780625922691616300,11.8006162109375,-0.2698335647583008,0.899480938911438,-0.6254569292068481
1780625922701611300,11.810611328125,-0.08045509457588196,1.4072765111923218,-0.6352331042289734
1780625922711606300,11.820606201171875,-0.09960120916366577,1.6884769201278687,-0.8344537019729614
1780625922721601300,11.830601318359374,-0.35432538390159607,1.474829912185669,-1.0005409717559814
1780625922731596300,11.84059619140625,-0.6403778791427612,1.131119966506958,-1.1426588296890259
1780625922741592000,11.850592041015625,-0.7045347690582275,0.5589861273765564,-1.2190814018249512
1780625922751587300,11.86058740234375,-0.552420973777771,0.1455925554037094,-1.2500287294387817
1780625922761582300,11.870582275390625,-0.3049105107784271,0.12162810564041138,-1.2692497968673706
1780625922771577300,11.880577392578125,-0.1395275592803955,0.3144298791885376,-1.185861587524414
1780625922781572400,11.890572265625,-0.13294343650341034,0.4688149392604828,-1.0285422801971436
1780625922791567400,11.9005673828125,-0.17892271280288696,0.5546894073486328,-0.9834856390953064
1780625922801562400,11.910562255859375,-0.22108030319213867,0.4963925778865814,-1.014058232307434
1780625922811557400,11.920557373046876,-0.24432457983493805,0.34484222531318665,-1.0110955238342285
1780625922821552400,11.930552490234374,-0.200506791472435,0.0910099446773529,-1.000650405883789
1780625922831547400,11.94054736328125,-0.1399616301059723,-0.2092868685722351,-0.9482083916664124
1780625922841542400,11.95054248046875,-0.13940289616584778,-0.1719520092010498,-0.816584587097168
1780625922851537400,11.960537353515624,-0.17360109090805054,0.21517974138259888,-0.6770755052566528
1780625922861532400,11.970532470703125,-0.20082072913646698,0.610804557800293,-0.5185883641242981
1780625922871527400,11.98052734375,-0.21598920226097107,0.8830325603485107,-0.41879168152809143
1780625922881522400,11.9905224609375,-0.2057802379131317,0.8036053776741028,-0.41833680868148804
1780625922891517400,12.000517333984375,-0.18487197160720825,0.4340232014656067,-0.3946535289287567
1780625922901513200,12.01051318359375,-0.17833229899406433,0.1656639277935028,-0.3438121974468231
1780625922911508200,12.02050830078125,-0.21165481209754944,0.10441966354846954,-0.36844122409820557
1780625922921503200,12.030503173828125,-0.28515246510505676,0.168607696890831,-0.3485657870769501
1780625922931498200,12.040498291015625,-0.32587680220603943,0.364052414894104,-0.2727898061275482
1780625922941493500,12.050493408203126,-0.33986639976501465,0.4361492693424225,-0.2771312892436981
1780625922951488500,12.060488525390625,-0.3472374975681305,0.4487375319004059,-0.2466612011194229
1780625922961483500,12.0704833984375,-0.3045331835746765,0.5296974182128906,-0.18668760359287262
1780625922971478500,12.080478515625,-0.2712083160877228,0.46478044986724854,-0.1766454130411148
1780625922981473500,12.0904736328125,-0.3069058358669281,0.4467164874076843,-0.1077427789568901
1780625922991468500,12.100468505859375,-0.4165334403514862,0.6056661605834961,-0.006607748102396727
1780625923001463300,12.11046337890625,-0.5249225497245789,0.694731593132019,0.044897519052028656
1780625923011458300,12.120458251953124,-0.5786803960800171,0.6110883951187134,0.03006390668451786
1780625923021453300,12.130453369140625,-0.606927216053009,0.5898888111114502,0.010642538778483868
1780625923031448300,12.1404482421875,-0.6821720004081726,0.651853621006012,0.0878189355134964
1780625923041443300,12.150443359375,-0.7946575284004211,0.7643644213676453,0.16970182955265045
1780625923051438300,12.160438232421875,-0.8768995404243469,0.9562231302261353,0.2039220631122589
1780625923061433300,12.170433349609375,-0.8704549670219421,1.0752129554748535,0.2544158697128296
1780625923071429400,12.180429443359374,-0.8355178236961365,1.014617681503296,0.355105996131897
1780625923081424400,12.19042431640625,-0.8626189827919006,0.7311568856239319,0.3990422785282135
1780625923091419400,12.20041943359375,-0.9514409303665161,0.6195290684700012,0.4228818118572235
1780625923101414400,12.210414306640626,-0.9942933320999146,0.7736773490905762,0.42279312014579773
1780625923111409400,12.220409423828125,-0.9694557189941406,0.8618256449699402,0.3537755012512207
1780625923121404400,12.230404296875,-0.912788450717926,0.7939901351928711,0.2984547019004822
1780625923131399400,12.2403994140625,-0.8424803614616394,0.666607141494751,0.25925540924072266
1780625923141394400,12.25039453125,-0.7582443356513977,0.6220175623893738,0.20783430337905884
1780625923151389400,12.260389404296875,-0.649188756942749,0.6352679133415222,0.23319949209690094
1780625923161384400,12.270384521484376,-0.5216259956359863,0.6618337035179138,0.2734781801700592
1780625923171379200,12.280379150390624,-0.41198617219924927,0.7197586297988892,0.28371477127075195
1780625923181374200,12.290374267578125,-0.3394693434238434,0.7674415111541748,0.2314603328704834
1780625923191369200,12.300369140625,-0.27289122343063354,0.7389091849327087,0.05030292272567749
1780625923201364200,12.3103642578125,-0.16924843192100525,0.6981830596923828,-0.09857230633497238
1780625923211359500,12.320359375,-0.10351618379354477,0.5358620285987854,-0.16725726425647736
1780625923221354500,12.3303544921875,-0.08269212394952774,0.4232387840747833,-0.18909253180027008
1780625923231350500,12.3403505859375,-0.05083562061190605,0.5041030049324036,-0.2578047215938568
1780625923241345300,12.35034521484375,0.03823193535208702,0.540006160736084,-0.3453524112701416
1780625923251340300,12.36034033203125,0.13146725296974182,0.4656742215156555,-0.42263519763946533
1780625923261335300,12.370335205078124,0.15073762834072113,0.42142313718795776,-0.49024859070777893
1780625923271330300,12.380330322265625,0.11078916490077972,0.4412103593349457,-0.4617382884025574
1780625923281325300,12.3903251953125,0.04897506907582283,0.3443024456501007,-0.40463823080062866
1780625923291320300,12.4003203125,-0.02619394287467003,0.2224452644586563,-0.4033937156200409
1780625923301315300,12.4103154296875,-0.09010634571313858,0.22372251749038696,-0.38813328742980957
1780625923311310300,12.420310302734375,-0.16562315821647644,0.2741888463497162,-0.3545464873313904
1780625923321305300,12.430305419921876,-0.24093255400657654,0.40649282932281494,-0.27523088455200195
