time,seconds_elapsed,z,y,x
1780625910946168300,0.055168212890625,-1.3358434438705444,-0.9175737500190735,1.1787017583847046
1780625910956163300,0.065163330078125,-1.2756946086883545,-1.1006170511245728,1.1822917461395264
1780625910966158300,0.075158447265625,-1.1515032052993774,-1.2254974842071533,1.1331260204315186
1780625910976153300,0.0851533203125,-0.9448778033256531,-1.329382061958313,1.0364413261413574
1780625910986148400,0.0951484375,-0.5886123776435852,-1.2573262453079224,0.8742449283599854
1780625910996143600,0.1051435546875,0.05741642042994499,-0.7739702463150024,0.5559324622154236
1780625911006138600,0.115138671875,0.7329612970352173,-0.05330556631088257,0.15200577676296234
1780625911016133600,0.125133544921875,1.0819838047027588,0.37347957491874695,-0.21273623406887054
1780625911026128600,0.135128662109375,1.230583667755127,0.3358120918273926,-0.38681402802467346
1780625911036123400,0.145123291015625,1.2402429580688477,0.2599354386329651,-0.4591856896877289
1780625911046119400,0.155119384765625,1.1834123134613037,0.01943148858845234,-0.43918880820274353
1780625911056114400,0.165114501953125,1.0988855361938477,-0.21055829524993896,-0.3180626630783081
1780625911066109400,0.175109375,0.9933066368103027,-0.4883100092411041,-0.15881814062595367
1780625911076104400,0.1851044921875,0.8812764883041382,-0.8162530064582825,0.01079965103417635
1780625911086099500,0.195099365234375,0.770194411277771,-0.9428642392158508,0.2291535586118698
1780625911096094500,0.205094482421875,0.7096514701843262,-0.8165158629417419,0.5165629386901855
1780625911106089500,0.21508935546875,0.705032229423523,-0.6601248979568481,0.831223726272583
1780625911116084500,0.22508447265625,0.7382106781005859,-0.548505961894989,1.1744157075881958
1780625911126079500,0.23507958984375,0.7485615611076355,-0.6115288734436035,1.4684734344482422
1780625911136074500,0.245074462890625,0.7090112566947937,-0.832958459854126,1.6886076927185059
1780625911146069500,0.255069580078125,0.587796688079834,-1.0742789506912231,1.8431705236434937
1780625911156064500,0.265064453125,0.37065503001213074,-1.2151639461517334,1.8494945764541626
1780625911166059500,0.2750595703125,0.15417012572288513,-1.194746732711792,1.5920395851135254
1780625911176054500,0.285054443359375,-0.0697236880660057,-0.41386428475379944,0.9292352199554443
1780625911186049500,0.295049560546875,-0.0942002683877945,-0.21286992728710175,0.6270977258682251
1780625911196044500,0.30504443359375,-0.0015198660548776388,-0.09865546971559525,0.2404184639453888
1780625911206039600,0.31503955078125,0.10664814710617065,0.030580813065171242,-0.0636783093214035
1780625911216035300,0.325035400390625,0.2630492150783539,0.2299083024263382,-0.19371621310710907
1780625911226030600,0.335030517578125,0.4498734176158905,0.3501846492290497,-0.23055651783943176
1780625911236025600,0.345025634765625,0.5667030811309814,0.4249230623245239,-0.17309588193893433
1780625911246020600,0.3550205078125,0.5804072022438049,0.5231918692588806,-0.049258891493082047
1780625911256015600,0.365015625,0.49323660135269165,0.5624497532844543,0.07627373188734055
1780625911266010600,0.3750107421875,0.33777403831481934,0.5009357929229736,0.16333645582199097
1780625911276005600,0.385005615234375,0.18361590802669525,0.3757685720920563,0.18017029762268066
1780625911286000400,0.39500048828125,0.07402841746807098,0.1872822791337967,0.1711568385362625
1780625911295995400,0.404995361328125,0.00938977301120758,0.09076984971761703,0.21509605646133423
1780625911305990400,0.414990478515625,-0.023739418014883995,-0.0007925567333586514,0.29466384649276733
1780625911315985400,0.4249853515625,0.11320112645626068,0.053275737911462784,0.3728784918785095
1780625911325980400,0.43498046875,0.3160130977630615,0.576227605342865,0.20268680155277252
1780625911335975400,0.444975341796875,0.6136836409568787,0.9183990955352783,-0.2843552827835083
1780625911345970400,0.454970458984375,0.7808585166931152,1.0282808542251587,-0.7304073572158813
1780625911355965400,0.46496533203125,0.7814081907272339,1.229095458984375,-1.0201842784881592
1780625911365960400,0.47496044921875,0.9618639945983887,1.5142436027526855,-1.200025200843811
1780625911375955500,0.48495556640625,1.0181033611297607,1.5177218914031982,-1.3577301502227783
1780625911385951500,0.494951416015625,0.9581936597824097,1.3601261377334595,-1.520128846168518
1780625911395946500,0.504946533203125,0.8097884654998779,1.1204395294189453,-1.5715928077697754
1780625911405941500,0.51494140625,0.6544950008392334,0.8103298544883728,-1.4881619215011597
1780625911415936500,0.5249365234375,0.4255062937736511,0.45488467812538147,-1.251279354095459
1780625911425931500,0.534931640625,0.010275807231664658,0.36856284737586975,-0.9763454794883728
1780625911435926500,0.544926513671875,-0.483497679233551,0.5287128686904907,-0.6222206950187683
1780625911445921500,0.554921630859375,-0.7771612405776978,0.8641542196273804,-0.22056353092193604
1780625911455916300,0.564916259765625,-0.9144184589385986,1.0805416107177734,0.10355515033006668
1780625911465911300,0.574911376953125,-0.8416417241096497,1.199960708618164,0.3419634699821472
1780625911475906300,0.58490625,-0.6403264403343201,1.316676139831543,0.48608946800231934
1780625911485901600,0.594901611328125,-0.4667498767375946,1.2947043180465698,0.5366493463516235
1780625911495896600,0.604896484375,-0.4639652669429779,1.0278140306472778,0.5443807244300842
1780625911505891600,0.6148916015625,-0.5100512504577637,0.6324160695075989,0.5556610822677612
1780625911515886600,0.624886474609375,-0.5390384197235107,0.2696434557437897,0.6208616495132446
1780625911525881600,0.634881591796875,-0.4153071939945221,-0.04021399840712547,0.7415215373039246
1780625911535876600,0.644876708984375,-0.17558647692203522,-0.3849112093448639,0.8871626257896423
1780625911545871600,0.65487158203125,0.11881852895021439,-0.6126798987388611,1.0059257745742798
1780625911555867400,0.664867431640625,0.43060624599456787,-0.7155871391296387,1.0255447626113892
1780625911565862400,0.6748623046875,0.6532390713691711,-0.879112958908081,0.8680639863014221
1780625911575857400,0.684857421875,0.6998544931411743,-1.1503825187683105,0.5549769401550293
1780625911585852400,0.694852294921875,0.7437289953231812,-1.3841114044189453,0.2143266797065735
1780625911595847400,0.704847412109375,0.939795196056366,-1.3598263263702393,-0.019221898168325424
1780625911605842700,0.7148427734375,1.2212841510772705,-1.1841868162155151,-0.24512585997581482
1780625911615837700,0.724837646484375,0.8412779569625854,-0.5689982175827026,-0.5551173090934753
1780625911625832400,0.73483251953125,0.1040118858218193,-0.5126894116401672,-0.9770317673683167
1780625911635827500,0.744827392578125,0.3038637340068817,-1.5104701519012451,-0.8700853586196899
1780625911645822500,0.754822509765625,0.7148667573928833,-2.3632004261016846,-0.45565807819366455
1780625911655817500,0.7648173828125,0.9085653424263,-2.5371973514556885,0.1762293577194214
1780625911665812500,0.7748125,0.8158543109893799,-2.5433504581451416,0.7171919345855713
1780625911675807500,0.784807373046875,0.5389137864112854,-2.688507556915283,1.029769778251648
1780625911685802500,0.794802490234375,0.22192759811878204,-2.8828673362731934,0.9446759819984436
1780625911695797500,0.804797607421875,0.09801951050758362,-3.0628650188446045,0.6131874918937683
1780625911705792500,0.81479248046875,0.2587601840496063,-3.065781831741333,0.2784055173397064
1780625911715787500,0.82478759765625,0.6126125454902649,-3.038813829421997,0.10093273967504501
1780625911725782300,0.8347822265625,0.9477881193161011,-3.19838809967041,0.08749496191740036
1780625911735778600,0.844778564453125,1.2139718532562256,-3.4944026470184326,0.22258514165878296
1780625911745772500,0.8547724609375,1.4283872842788696,-3.7551419734954834,0.430032342672348
1780625911755767600,0.864767578125,1.6377286911010742,-4.098244667053223,0.6358001232147217
1780625911765762600,0.874762451171875,1.840957522392273,-4.245677947998047,0.7648702263832092
1780625911775757600,0.884757568359375,2.0719406604766846,-4.332991123199463,0.7914605736732483
1780625911785752600,0.894752685546875,2.303966999053955,-4.435770034790039,0.7024742364883423
1780625911795747600,0.90474755859375,2.5317647457122803,-4.661226272583008,0.5082229971885681
1780625911805742600,0.91474267578125,2.7979695796966553,-4.947059631347656,0.25624457001686096
1780625911815737600,0.924737548828125,3.086998462677002,-5.187977313995361,-0.0023249397054314613
1780625911825732600,0.934732666015625,3.389007329940796,-5.427423000335693,-0.18521539866924286
1780625911835727600,0.9447275390625,3.7629120349884033,-5.748819828033447,-0.28663522005081177
1780625911845722600,0.95472265625,4.182104110717773,-6.278238296508789,-0.35152527689933777
1780625911855717600,0.964717529296875,4.484612941741943,-6.590830326080322,-0.363756388425827
1780625911865712600,0.974712646484375,4.561851978302002,-6.382358551025391,-0.3369881510734558
1780625911875707600,0.984707763671875,4.500707149505615,-5.8570990562438965,-0.24692003428936005
1780625911885702700,0.99470263671875,4.403327941894531,-5.359714031219482,-0.12981659173965454
1780625911895697700,1.00469775390625,4.322754383087158,-4.987280368804932,-0.01888474076986313
1780625911905692700,1.014692626953125,4.278812408447266,-4.772387981414795,0.04420607537031174
1780625911915688400,1.0246884765625,4.271926403045654,-4.728902816772461,0.02503264881670475
1780625911925683500,1.034683349609375,4.269597053527832,-4.801430702209473,-0.02148931287229061
1780625911935678500,1.044678466796875,4.209390640258789,-4.830420017242432,-0.0026913906913250685
1780625911945673700,1.054673828125,4.009171009063721,-4.529995441436768,0.09097704291343689
1780625911955668700,1.064668701171875,3.730360507965088,-3.824270009994507,0.1591571569442749
1780625911965663700,1.074663818359375,3.567702054977417,-2.800572633743286,0.07839307188987732
1780625911975658800,1.08465869140625,3.6229588985443115,-1.881744623184204,-0.21643537282943726
1780625911985653800,1.09465380859375,3.816922903060913,-1.2113398313522339,-0.6932091116905212
1780625911995648500,1.1046484375,3.884849786758423,-0.6896498203277588,-1.3066786527633667
1780625912005643500,1.1146435546875,3.572888135910034,-0.6071735620498657,-1.8893862962722778
1780625912015638500,1.124638427734375,2.810354471206665,-0.5126222968101501,-1.917176365852356
1780625912025633500,1.134633544921875,1.9958299398422241,0.3527545928955078,-1.1261242628097534
1780625912035628500,1.144628662109375,1.7238167524337769,0.8582941889762878,-0.2688772678375244
1780625912045623600,1.15462353515625,1.9299403429031372,0.856340765953064,0.17733962833881378
1780625912055618600,1.16461865234375,2.15775728225708,0.44791412353515625,0.34899500012397766
1780625912065613600,1.174613525390625,2.043541669845581,-0.08470769971609116,0.5645257234573364
1780625912075608600,1.184608642578125,1.5594509840011597,-0.3345116674900055,0.9147561192512512
1780625912085603800,1.194603759765625,0.9888026714324951,-0.11525042355060577,1.1696048974990845
1780625912095598600,1.2045986328125,0.6653660535812378,0.34359678626060486,1.1242092847824097
1780625912105594600,1.2145947265625,0.5942465662956238,1.0549931526184082,0.7268658876419067
1780625912115589600,1.224589599609375,0.5900430679321289,1.8811219930648804,0.06858518719673157
1780625912125584600,1.234584716796875,0.502768874168396,2.493108034133911,-0.48908475041389465
1780625912135579600,1.24457958984375,0.36083489656448364,2.89471435546875,-0.7633735537528992
1780625912145574700,1.25457470703125,0.2562355101108551,2.9746499061584473,-0.8316053152084351
1780625912155569700,1.264569580078125,0.20302128791809082,2.8001465797424316,-0.8186189532279968
1780625912165564400,1.274564453125,0.13351598381996155,2.43557071685791,-0.7419670820236206
1780625912175559400,1.284559326171875,-0.0014881744282320142,2.1352553367614746,-0.6055186986923218
1780625912185554400,1.294554443359375,-0.22850774228572845,1.878844141960144,-0.38220328092575073
1780625912195549400,1.304549560546875,-0.5466595888137817,1.7782845497131348,-0.11932213604450226
1780625912205544700,1.314544677734375,-0.8159315586090088,1.8498694896697998,0.13546141982078552
1780625912215539700,1.324539794921875,-0.9507189393043518,1.85374116897583,0.34645435214042664
1780625912225534700,1.33453466796875,-0.9451649188995361,1.8150862455368042,0.4618360698223114
1780625912235529700,1.34452978515625,-0.9121872782707214,1.7088239192962646,0.5357627868652344
1780625912245524700,1.354524658203125,-1.0028998851776123,1.5341991186141968,0.6840608716011047
1780625912255519700,1.364519775390625,-1.1829665899276733,1.3114603757858276,0.9419369101524353
1780625912265514500,1.374514404296875,-1.3516466617584229,1.1532107591629028,1.231336236000061
1780625912275509500,1.384509521484375,-1.5134797096252441,1.1027958393096924,1.479312777519226
1780625912285504500,1.39450439453125,-1.6740177869796753,1.1151806116104126,1.6358240842819214
1780625912295500500,1.40450048828125,-1.7422010898590088,1.0761868953704834,1.679060697555542
1780625912305495600,1.41449560546875,-1.6768425703048706,0.9734106659889221,1.6486687660217285
1780625912315490600,1.424490478515625,-1.4743049144744873,0.8216043710708618,1.5703680515289307
1780625912325485800,1.43448583984375,-1.2956552505493164,0.5708573460578918,1.5103342533111572
1780625912335480600,1.44448046875,-1.1493529081344604,0.14952318370342255,1.5579700469970703
1780625912345475600,1.4544755859375,-1.0144846439361572,-0.13134443759918213,1.6801960468292236
1780625912355470600,1.464470703125,-0.9201812744140625,-0.2622763514518738,1.8452789783477783
1780625912365465600,1.474465576171875,-0.7758568525314331,-0.5582773685455322,1.734123706817627
1780625912375460600,1.484460693359375,-0.6156892776489258,-0.8902686238288879,1.13943350315094
1780625912385455600,1.49445556640625,-0.618067741394043,-0.9177745580673218,0.5312617421150208
1780625912395450600,1.50445068359375,-0.6799886226654053,-0.6272106766700745,0.2760094702243805
1780625912405445600,1.514445556640625,-0.6687508821487427,-0.3149651288986206,0.2804037034511566
1780625912415440600,1.524440673828125,-0.5364530682563782,-0.11472365260124207,0.2882744073867798
1780625912425435600,1.534435546875,-0.2817368805408478,-0.05224988982081413,0.21830756962299347
1780625912435430400,1.544430419921875,-0.038971900939941406,-0.16992858052253723,0.14008599519729614
1780625912445425400,1.55442529296875,0.01841229759156704,-0.41586965322494507,0.18399007618427277
1780625912455420400,1.56442041015625,-0.1514851301908493,-0.736270546913147,0.33498144149780273
1780625912465415700,1.574415771484375,-0.37632542848587036,-0.9455832839012146,0.43083927035331726
1780625912475411700,1.58441162109375,-0.5020633935928345,-0.9529040455818176,0.33347490429878235
1780625912485406700,1.59440673828125,-0.47639238834381104,-0.714373767375946,0.1164909228682518
1780625912495401700,1.604401611328125,-0.37437546253204346,-0.30155131220817566,-0.12197437137365341
1780625912505396500,1.614396484375,-0.27603423595428467,0.05210394784808159,-0.3277808129787445
1780625912515391500,1.6243916015625,-0.2193070501089096,0.26108166575431824,-0.4695728123188019
1780625912525386500,1.634386474609375,-0.2462899386882782,0.31188490986824036,-0.5224866271018982
1780625912535381500,1.644381591796875,-0.3253820836544037,0.26954519748687744,-0.44623714685440063
1780625912545376500,1.65437646484375,-0.44067832827568054,0.09516220539808273,-0.36368685960769653
1780625912555371500,1.66437158203125,-0.5457682609558105,-0.1304733157157898,-0.23745197057724
1780625912565366500,1.674366455078125,-0.6669008135795593,-0.28421759605407715,-0.17684800922870636
1780625912575361500,1.684361572265625,-0.9427899122238159,-0.366269588470459,-0.4300834536552429
1780625912585356800,1.694356689453125,-1.12554132938385,-0.21920105814933777,-0.3702656626701355
1780625912595351800,1.704351806640625,-0.9634270071983337,-0.11994557827711105,-0.3626359701156616
1780625912605346600,1.7143466796875,-0.7915068864822388,0.09402716159820557,-0.41222164034843445
1780625912615341600,1.724341552734375,-0.5761623978614807,0.22659559547901154,-0.2577764093875885
1780625912625336600,1.734336669921875,-0.5106174349784851,0.3132098317146301,-0.04531767964363098
1780625912635331600,1.74433154296875,-0.564786434173584,0.24192741513252258,0.11003116518259048
1780625912645326600,1.75432666015625,-0.695845365524292,-0.06505010277032852,0.21821382641792297
1780625912655321600,1.764321533203125,-0.7432653307914734,-0.3365583121776581,0.29264411330223083
1780625912665317600,1.774317626953125,-0.6324325799942017,-0.37383192777633667,0.31928983330726624
1780625912675312600,1.784312744140625,-0.3363116979598999,-0.3554566204547882,0.21699117124080658
1780625912685307400,1.794307373046875,0.04012105241417885,-0.26342976093292236,0.0834520161151886
1780625912695302400,1.804302490234375,0.30080458521842957,-0.20898836851119995,0.10707052797079086
1780625912705297700,1.814297607421875,0.3379362225532532,-0.23703518509864807,0.25856444239616394
1780625912715292700,1.824292724609375,0.22968032956123352,-0.3181025981903076,0.4661514461040497
1780625912725287700,1.83428759765625,0.1933598816394806,-0.40103957056999207,0.6199452877044678
1780625912735282700,1.84428271484375,0.28984779119491577,-0.5530810356140137,0.6819173097610474
1780625912745278000,1.85427783203125,0.4760357737541199,-0.7174987196922302,0.6931989789009094
1780625912755273000,1.86427294921875,0.6433302164077759,-0.7761852145195007,0.6966067552566528
1780625912765268000,1.87426806640625,0.7761982679367065,-0.7646681070327759,0.6872923374176025
1780625912775262700,1.8842626953125,0.8571200370788574,-0.5700027346611023,0.7035017013549805
1780625912785257700,1.8942578125,0.8859711289405823,-0.21897175908088684,0.6941891312599182
1780625912795252700,1.904252685546875,0.9871097207069397,-0.045352302491664886,0.537368893623352
1780625912805247700,1.914247802734375,1.1867578029632568,-0.09621095657348633,0.2584850788116455
1780625912815242800,1.92424267578125,1.315762996673584,-0.05204935371875763,-0.025912290439009666
1780625912825237800,1.93423779296875,1.418139100074768,0.053109023720026016,-0.2643466889858246
1780625912835232800,1.944232666015625,1.445543885231018,0.2247510850429535,-0.400931179523468
1780625912845228800,1.954228759765625,1.440102458000183,0.3364850878715515,-0.45569321513175964
1780625912855223800,1.964223876953125,1.4523046016693115,0.320461630821228,-0.5057377219200134
1780625912865218800,1.97421875,1.503764033317566,0.2998567521572113,-0.6540601253509521
1780625912875213800,1.9842138671875,1.474452257156372,0.05040751397609711,-0.9038617014884949
1780625912885208800,1.994208740234375,1.4258286952972412,-0.4107228219509125,-0.8988118171691895
1780625912895203800,2.004203857421875,1.321144938468933,-0.8437435030937195,-0.6143478751182556
1780625912905198800,2.01419873046875,1.0678995847702026,-0.730061948299408,-0.34718671441078186
1780625912915193900,2.02419384765625,0.8046621084213257,-0.39403119683265686,-0.3595901131629944
1780625912925188900,2.03418896484375,0.7381773591041565,-0.11720652133226395,-0.613275408744812
1780625912935184000,2.044183837890625,0.8607658743858337,0.21751713752746582,-0.9493282437324524
1780625912945178600,2.0541787109375,1.002851963043213,0.3964088559150696,-1.1489992141723633
1780625912955174000,2.064173828125,0.9812451601028442,0.395295113325119,-1.1509497165679932
1780625912965169000,2.0741689453125,0.788875162601471,0.25170308351516724,-0.9931987524032593
1780625912975164000,2.084163818359375,0.5623296499252319,-0.03339923545718193,-0.6984019875526428
1780625912985159000,2.094158935546875,0.28632470965385437,-0.23200367391109467,-0.3441624343395233
1780625912995154000,2.10415380859375,0.08514472097158432,-0.306416392326355,-0.08662331104278564
1780625913005149000,2.11414892578125,0.012074772268533707,-0.3942098915576935,0.018258366733789444
1780625913015144000,2.12414404296875,0.016986973583698273,-0.32892274856567383,-0.018726283684372902
1780625913025139000,2.134138916015625,0.14868241548538208,-0.210495725274086,-0.15606948733329773
1780625913035134700,2.144134765625,0.34163135290145874,-0.09034428000450134,-0.32298949360847473
1780625913045129700,2.154129638671875,0.5581812262535095,-0.022483205422759056,-0.42353555560112
1780625913055124700,2.164124755859375,0.6875693202018738,-0.062483083456754684,-0.4237709641456604
1780625913065119700,2.17411962890625,0.5532578825950623,-0.18794620037078857,-0.29613685607910156
1780625913075115000,2.184114990234375,0.2962106168270111,-0.30212390422821045,-0.16543662548065186
1780625913085110000,2.194110107421875,0.16339558362960815,-0.51905357837677,-0.02881859801709652
1780625913095105000,2.20410498046875,0.15657763183116913,-0.8153579235076904,0.15655551850795746
1780625913105100000,2.21410009765625,0.18619251251220703,-1.1893315315246582,0.39995911717414856
1780625913115094800,2.2240947265625,0.2174697369337082,-1.59378981590271,0.7150387763977051
1780625913125089800,2.23408984375,0.22215983271598816,-1.9738236665725708,1.094173550605774
1780625913135084800,2.244084716796875,0.23954521119594574,-2.493140697479248,1.5830042362213135
1780625913145079800,2.254079833984375,0.4124831557273865,-3.5623605251312256,2.0451207160949707
1780625913155074800,2.26407470703125,0.9421393275260925,-5.280848979949951,1.8600789308547974
1780625913165069800,2.27406982421875,1.2816652059555054,-5.211549282073975,1.3698490858078003
1780625913175064800,2.28406494140625,1.465588927268982,-4.7726006507873535,1.1324748992919922
1780625913185059800,2.294059814453125,1.7682971954345703,-4.6450066566467285,1.067028522491455
1780625913195054800,2.304054931640625,1.9998542070388794,-4.594933986663818,1.07585608959198
1780625913205049900,2.3140498046875,2.0905046463012695,-4.377747535705566,1.0555652379989624
1780625913215046000,2.3240458984375,1.9958789348602295,-3.6262826919555664,0.956457257270813
1780625913225041000,2.334041015625,1.7000874280929565,-2.781161308288574,0.7882565259933472
1780625913235036000,2.344035888671875,1.130456805229187,-1.0460127592086792,0.9338230490684509
1780625913245031000,2.354031005859375,0.5293927192687988,-0.2457948476076126,1.0970567464828491
1780625913255026000,2.36402587890625,0.09552492201328278,-1.6119823455810547,0.810009241104126
1780625913265021000,2.37402099609375,-0.23442208766937256,-2.145318031311035,0.2292744666337967
1780625913275016000,2.384015869140625,-0.533714234828949,-1.4424500465393066,-0.20722615718841553
1780625913285010700,2.3940107421875,-0.7061275839805603,-1.0823328495025635,-0.4232948124408722
1780625913295005700,2.404005615234375,-0.8191869854927063,-1.0012547969818115,-0.48874756693840027
1780625913305000700,2.414000732421875,-0.8867964148521423,-0.9882742762565613,-0.5065420269966125
1780625913314995700,2.42399560546875,-0.9062103033065796,-1.062390923500061,-0.48832812905311584
1780625913324990700,2.43399072265625,-0.859769344329834,-1.031118392944336,-0.4352681040763855
1780625913334985700,2.44398583984375,-0.8085732460021973,-0.9310722947120667,-0.39446157217025757
1780625913344981000,2.45398095703125,-0.7516719102859497,-0.9385797381401062,-0.3341132700443268
1780625913354976000,2.46397607421875,-0.733866810798645,-1.1135365962982178,-0.19362539052963257
1780625913364971000,2.473970947265625,-0.7023530602455139,-1.468788504600525,0.07853955030441284
1780625913374966000,2.483966064453125,-0.6587768197059631,-1.8084003925323486,0.40272587537765503
1780625913384960800,2.493960693359375,-0.5542959570884705,-2.0650179386138916,0.6826890707015991
1780625913394956800,2.503956787109375,-0.4336875379085541,-2.171457529067993,0.8488612771034241
1780625913404951800,2.513951904296875,-0.28984513878822327,-2.088290214538574,0.8878321051597595
1780625913414946800,2.52394677734375,-0.11278753727674484,-2.180030107498169,0.8879141211509705
1780625913424941800,2.53394189453125,0.046008236706256866,-2.0636696815490723,0.942710816860199
1780625913434936800,2.543936767578125,0.1784757375717163,-1.4255331754684448,1.167921543121338
1780625913444931800,2.553931884765625,0.35620418190956116,-0.9359599947929382,1.4283592700958252
1780625913454926800,2.5639267578125,0.5640125274658203,-0.433960497379303,1.6471432447433472
1780625913464921900,2.573921875,0.774743914604187,-0.006509298458695412,1.79874849319458
1780625913474916900,2.583916748046875,0.9576213359832764,0.1489013284444809,1.8652833700180054
1780625913484911900,2.593911865234375,1.0644985437393188,0.20868077874183655,1.7657474279403687
1780625913494907000,2.603906982421875,1.0199291706085205,0.22604192793369293,1.47268545627594
1780625913504902000,2.61390185546875,0.839526355266571,0.461712509393692,1.1533282995224
1780625913514897000,2.62389697265625,0.7755827903747559,0.38363954424858093,0.8804413080215454
1780625913524892000,2.633891845703125,0.7530697584152222,0.1484011858701706,0.6906303763389587
1780625913534887000,2.643886962890625,0.7087241411209106,0.08204373717308044,0.5749381184577942
1780625913544882000,2.6538818359375,0.6541253328323364,0.15550783276557922,0.4793362319469452
1780625913554877000,2.663876953125,0.5894147753715515,0.31376031041145325,0.3728595972061157
1780625913564871700,2.67387158203125,0.5434571504592896,0.4805375933647156,0.28104180097579956
1780625913574868000,2.683867919921875,0.5215744972229004,0.4195203185081482,0.22015473246574402
1780625913584863000,2.693863037109375,0.5124078989028931,0.06278029084205627,0.21599221229553223
1780625913594858000,2.70385791015625,0.477479487657547,-0.47832876443862915,0.28923073410987854
1780625913604853000,2.71385302734375,0.3644362688064575,-0.9108777642250061,0.4245177209377289
1780625913614848000,2.723847900390625,0.23293285071849823,-1.1464219093322754,0.623964250087738
1780625913624843000,2.733843017578125,0.134079247713089,-1.1948343515396118,0.8713878989219666
1780625913634837800,2.743837646484375,0.1425454318523407,-1.1407605409622192,1.042297601699829
1780625913644832800,2.753832763671875,0.2687382400035858,-1.0422205924987793,1.0837526321411133
1780625913654827800,2.763827880859375,0.37126967310905457,-0.9203557372093201,1.000609040260315
1780625913664822800,2.77382275390625,0.4521067440509796,-0.8635914921760559,0.8761027455329895
1780625913674817800,2.78381787109375,0.488652765750885,-0.8456969261169434,0.7383770942687988
1780625913684812800,2.793812744140625,0.4485916495323181,-0.8933435082435608,0.5928335189819336
1780625913694807800,2.803807861328125,0.3377644717693329,-0.9174613952636719,0.48841041326522827
1780625913704802800,2.813802734375,0.1430567502975464,-0.7869779467582703,0.47276541590690613
1780625913714797800,2.8237978515625,-0.11685924232006073,-0.6924402713775635,0.4853461980819702
1780625913724792800,2.833792724609375,-0.4878125488758087,-0.49254152178764343,0.4895334839820862
1780625913734787800,2.843787841796875,-0.7340723872184753,-0.20881472527980804,0.4094966948032379
1780625913744783000,2.853783203125,-0.8756524324417114,0.09587566554546356,0.22518065571784973
1780625913754778400,2.8637783203125,-0.9654845595359802,0.3423618674278259,0.02466566488146782
1780625913764773400,2.8737734375,-0.8987316489219666,0.48162707686424255,-0.08746539801359177
1780625913774768400,2.883768310546875,-0.7049227356910706,0.41899752616882324,-0.197722926735878
1780625913784763400,2.893763427734375,-0.4849288761615753,0.2975184917449951,-0.377131849527359
1780625913794758400,2.90375830078125,-0.3222092092037201,0.2201555371284485,-0.6010080575942993
1780625913804753400,2.91375341796875,-0.17854417860507965,0.26300686597824097,-0.7807677388191223
1780625913814748200,2.923748046875,-0.05742867290973663,0.3237530291080475,-0.8688334226608276
1780625913824743200,2.9337431640625,0.011984490789473057,0.32707613706588745,-0.8446868062019348
1780625913834738200,2.94373828125,0.038545262068510056,0.274286687374115,-0.7180534601211548
1780625913844733200,2.953733154296875,0.03369591012597084,0.16208398342132568,-0.5639720559120178
1780625913854728200,2.963728271484375,0.016318518668413162,0.04471633955836296,-0.3965718448162079
1780625913864723200,2.97372314453125,0.01593742147088051,0.011512579396367073,-0.23683011531829834
1780625913874718200,2.98371826171875,0.06930264085531235,0.042901661247015,-0.1462078094482422
1780625913884713200,2.993713134765625,0.19210898876190186,0.06584266573190689,-0.12354004383087158
1780625913894708200,3.003708251953125,0.299388587474823,0.09105241298675537,-0.24342890083789825
1780625913904703500,3.013703369140625,0.35374316573143005,0.6391304135322571,-0.30233296751976013
1780625913914698200,3.0236982421875,0.4307548403739929,1.9484397172927856,-0.21225394308567047
1780625913924694300,3.0336943359375,0.5228027701377869,1.5810483694076538,0.1435081660747528
1780625913934689300,3.043689208984375,0.831305742263794,0.8400672674179077,0.29300203919410706
1780625913944684300,3.053684326171875,0.9989325404167175,0.7036508321762085,0.19074970483779907
1780625913954679300,3.06367919921875,1.048518419265747,0.8284580111503601,0.14494094252586365
1780625913964674300,3.07367431640625,1.132712483406067,0.9044315814971924,0.1559685617685318
1780625913974669300,3.08366943359375,1.2105790376663208,0.899372398853302,0.14392387866973877
1780625913984664300,3.093664306640625,1.2811375856399536,0.8262332081794739,0.10314422845840454
1780625913994659000,3.1036591796875,1.291114091873169,0.7153173685073853,0.05392102152109146
1780625914004654000,3.113654052734375,1.1749845743179321,0.5838993787765503,0.029696643352508545
1780625914014649000,3.123649169921875,0.9420231580734253,0.4840838611125946,0.054913315922021866
1780625914024644400,3.133644287109375,0.684116780757904,0.38238972425460815,0.07188857346773148
1780625914034639400,3.143639404296875,0.4201240539550781,0.2270137071609497,0.1202731505036354
1780625914044634400,3.15363427734375,0.15533259510993958,0.030890271067619324,0.21025922894477844
1780625914054629400,3.16362939453125,-0.0918998271226883,-0.12771348655223846,0.2630380094051361
1780625914064624400,3.173624267578125,-0.2662612497806549,-0.13610030710697174,0.24733228981494904
1780625914074619400,3.183619384765625,-0.3746638894081116,0.008325041271746159,0.20105375349521637
1780625914084614400,3.193614501953125,-0.4073176980018616,0.24961009621620178,0.1363099068403244
1780625914094610200,3.203610107421875,-0.3743019700050354,0.4340933859348297,0.1204310730099678
1780625914104605200,3.213605224609375,-0.29622313380241394,0.415170818567276,0.21160146594047546
1780625914114600200,3.22360009765625,-0.13102886080741882,0.35585370659828186,0.28729701042175293
1780625914124595200,3.23359521484375,0.08489757776260376,0.4288317859172821,0.2580762803554535
1780625914134590200,3.243590087890625,0.27629923820495605,0.40983492136001587,0.2553792893886566
1780625914144585500,3.25358544921875,0.46763908863067627,0.23700562119483948,0.35498046875
1780625914154580500,3.26358056640625,0.6565187573432922,0.022217154502868652,0.538789689540863
1780625914164575200,3.2735751953125,0.8541932106018066,-0.04254426434636116,0.6718340516090393
1780625914174570200,3.2835703125,1.119489312171936,0.10537968575954437,0.6448982954025269
1780625914184565200,3.293565185546875,1.4380524158477783,0.23215121030807495,0.4874303936958313
1780625914194560300,3.303560302734375,1.7151952981948853,0.24650351703166962,0.35163047909736633
1780625914204555300,3.31355517578125,1.9405677318572998,0.3197822570800781,0.2709779739379883
1780625914214550300,3.32355029296875,2.06113338470459,0.5173749923706055,0.1616927534341812
1780625914224545300,3.333545166015625,2.040553331375122,0.8663127422332764,0.0511968731880188
1780625914234540300,3.343540283203125,1.833113431930542,1.1852717399597168,-0.022895196452736855
1780625914244535300,3.353535400390625,1.552463412284851,1.1641771793365479,-0.08379583060741425
1780625914254530300,3.3635302734375,1.3247777223587036,0.8431573510169983,0.04584738239645958
1780625914264526300,3.3735263671875,1.1475193500518799,0.5340719223022461,0.32613497972488403
1780625914274521300,3.383521240234375,1.0275540351867676,0.07114288955926895,0.6566369533538818
1780625914284516400,3.393516357421875,0.9933159351348877,-0.32986846566200256,0.8432446718215942
1780625914294511400,3.403511474609375,1.052567481994629,-0.5217689275741577,0.7683795094490051
1780625914304506400,3.41350634765625,1.1803885698318481,-0.5151685476303101,0.552088737487793
1780625914314501400,3.42350146484375,1.3549630641937256,-0.2572501599788666,0.2741418182849884
1780625914324496400,3.433496337890625,1.5148457288742065,-0.07479008287191391,0.11854901909828186
1780625914334491100,3.4434912109375,1.5038378238677979,0.06151289492845535,0.1431925743818283
1780625914344486100,3.453486083984375,1.3695346117019653,0.10059851408004761,0.2536642253398895
1780625914354481200,3.463481201171875,1.2403600215911865,0.08220485597848892,0.3709447681903839
1780625914364476200,3.47347607421875,1.1752407550811768,-0.0170250553637743,0.5040711164474487
1780625914374471200,3.48347119140625,1.1605116128921509,-0.07476052641868591,0.6302732825279236
1780625914384466200,3.493466064453125,1.2479599714279175,-0.25877803564071655,0.8358219265937805
1780625914394461200,3.503461181640625,1.370924711227417,-0.8915584087371826,1.1754937171936035
1780625914404456400,3.51345654296875,1.5490518808364868,-1.6793906688690186,1.452439785003662
1780625914414451500,3.523451416015625,1.810387372970581,-2.6437036991119385,1.6297751665115356
1780625914424446500,3.533446533203125,1.875104308128357,-3.627986192703247,1.5106881856918335
1780625914434442200,3.543442138671875,2.2187836170196533,-3.790070056915283,1.223349928855896
1780625914444437200,3.553437255859375,2.7613024711608887,-3.3032569885253906,0.9747470617294312
1780625914454432300,3.563432373046875,3.3104186058044434,-2.4180049896240234,0.830845296382904
1780625914464427300,3.57342724609375,3.8483455181121826,-1.423430323600769,0.7364042401313782
1780625914474422300,3.58342236328125,4.302597999572754,-0.3156612813472748,0.609545886516571
1780625914484417300,3.593417236328125,4.712105751037598,0.6746849417686462,0.48542582988739014
1780625914494412300,3.603412353515625,5.109766960144043,1.3717734813690186,0.3622719347476959
1780625914504407000,3.613406982421875,5.504738807678223,1.8479321002960205,0.22920122742652893
1780625914514402000,3.623402099609375,5.889270782470703,2.148618459701538,0.10675361007452011
1780625914524397300,3.633397216796875,6.137556552886963,2.1288836002349854,0.002781405346468091
1780625914534392300,3.643392333984375,6.1265339851379395,1.6380646228790283,-0.10288696736097336
1780625914544387300,3.65338720703125,5.917240619659424,0.8371681571006775,-0.13270318508148193
1780625914554382300,3.66338232421875,5.380533218383789,-0.12495765089988708,-0.11502858251333237
1780625914564377300,3.67337744140625,4.151885032653809,-0.7545592784881592,0.0011779161868616939
1780625914574372400,3.683372314453125,2.2738542556762695,-1.1216601133346558,0.1424439698457718
1780625914584367400,3.693367431640625,0.1927976757287979,-1.3009458780288696,0.29824236035346985
1780625914594362400,3.7033623046875,-1.3927357196807861,-1.2357914447784424,0.42447564005851746
1780625914604358100,3.713358154296875,-2.096802234649658,-0.9376090168952942,0.5051763653755188
1780625914614353200,3.723353271484375,-2.034177303314209,-0.5017907023429871,0.6919931173324585
1780625914624348200,3.73334814453125,-1.4806616306304932,0.0957142785191536,0.9133361577987671
1780625914634343400,3.743343505859375,-0.6137792468070984,0.7838298082351685,1.0788170099258423
1780625914644338400,3.75333837890625,0.36719265580177307,1.3173846006393433,1.0971605777740479
1780625914654333400,3.76333349609375,1.1319166421890259,1.4409680366516113,0.9310552477836609
1780625914664328400,3.773328369140625,1.3329659700393677,1.136008858680725,0.6202715039253235
1780625914674323200,3.7833232421875,0.9972872138023376,0.6036158204078674,0.24410215020179749
1780625914684318200,3.793318115234375,0.42659792304039,0.034016288816928864,-0.08836208283901215
1780625914694313200,3.803313232421875,-0.08074970543384552,-0.3404481112957001,-0.3125845491886139
1780625914704308200,3.81330810546875,-0.37549957633018494,-0.4900232255458832,-0.4265795350074768
1780625914714303200,3.82330322265625,-0.483866810798645,-0.5473312735557556,-0.4420455992221832
1780625914724298200,3.83329833984375,-0.4984537363052368,-0.640619158744812,-0.39383864402770996
1780625914734293200,3.843293212890625,-0.4756317734718323,-0.7941679358482361,-0.3142455518245697
1780625914744289000,3.8532890625,-0.3983873128890991,-0.8783243894577026,-0.23706714808940887
1780625914754284000,3.863283935546875,-0.2585785686969757,-0.8086046576499939,-0.20102046430110931
1780625914764279800,3.87327978515625,-0.027066770941019058,-0.5605490803718567,-0.208144411444664
1780625914774274800,3.88327490234375,0.21528807282447815,-0.0980440080165863,-0.2592552602291107
1780625914784269800,3.893269775390625,0.4019674062728882,0.5283698439598083,-0.30223068594932556
1780625914794264800,3.903264892578125,0.42770659923553467,1.147051215171814,-0.2814015746116638
1780625914804259800,3.913259765625,0.38880765438079834,1.6658717393875122,-0.20914949476718903
1780625914814254800,3.9232548828125,0.3413242995738983,2.1157546043395996,-0.1394159495830536
1780625914824249900,3.933249755859375,0.2910827100276947,2.5009565353393555,-0.08915144950151443
1780625914834244900,3.943244873046875,0.263824462890625,2.726672887802124,-0.061288658529520035
1780625914844240000,3.953239990234375,0.1734255850315094,2.7308621406555176,-0.06022658944129944
1780625914854235000,3.96323486328125,0.10429045557975769,2.7125930786132812,-0.11957300454378128
1780625914864230000,3.97322998046875,0.11377769708633423,2.560927629470825,-0.2283703237771988
1780625914874225000,3.983224853515625,0.1499261111021042,2.4255075454711914,-0.4408181309700012
1780625914884220000,3.993219970703125,0.14840145409107208,2.107511520385742,-0.6556084752082825
1780625914894215000,4.00321484375,0.06136588752269745,1.6901799440383911,-0.8372014164924622
1780625914904210000,4.0132099609375,-0.07028242200613022,1.1994802951812744,-0.9368614554405212
1780625914914205000,4.023204833984375,-0.1753486543893814,0.6445494294166565,-0.9259272813796997
1780625914924200700,4.03320068359375,-0.2540125548839569,0.11162453144788742,-0.8398802876472473
1780625914934195700,4.04319580078125,-0.2666862905025482,-0.2160010039806366,-0.7136009335517883
1780625914944190700,4.053190673828125,-0.29055488109588623,-0.08821774274110794,-0.6481260657310486
1780625914954186000,4.06318603515625,-0.30883079767227173,0.40454667806625366,-0.6904458403587341
1780625914964181000,4.073180908203125,-0.2927069664001465,0.9968914985656738,-0.780576765537262
1780625914974176000,4.083176025390625,-0.21052314341068268,1.4875898361206055,-0.882483184337616
1780625914984171000,4.0931708984375,-0.1079978421330452,1.6901997327804565,-0.9138482809066772
1780625914994166000,4.103166015625,-0.11081226915121078,1.560111403465271,-0.862619161605835
1780625915004160800,4.113160888671875,-0.19653409719467163,1.2509666681289673,-0.7675946354866028
1780625915014155800,4.12315576171875,-0.3396894037723541,0.8547274470329285,-0.6679255962371826
1780625915024150800,4.13315087890625,-0.46628275513648987,0.5307989120483398,-0.575548529624939
1780625915034145800,4.143145751953125,-0.5077458024024963,0.38127437233924866,-0.47702622413635254
1780625915044140800,4.153140869140625,-0.43364065885543823,0.4334246814250946,-0.39161357283592224
1780625915054135800,4.1631357421875,-0.3276692032814026,0.5432571768760681,-0.3730561435222626
1780625915064130800,4.173130859375,-0.24132047593593597,0.6423248648643494,-0.3796631693840027
1780625915074125800,4.183125732421875,-0.18175089359283447,0.6684483885765076,-0.372395396232605
1780625915084121900,4.193121826171875,-0.148405984044075,0.5705183148384094,-0.3485491871833801
1780625915094116900,4.203116943359375,-0.13605743646621704,0.3735823631286621,-0.3088792860507965
1780625915104111900,4.21311181640625,-0.13546675443649292,0.1760767549276352,-0.2688447833061218
1780625915114107000,4.22310693359375,-0.14200161397457123,0.08378145098686218,-0.23646660149097443
1780625915124102000,4.233101806640625,-0.14059093594551086,0.13653548061847687,-0.2084307074546814
1780625915134097000,4.243096923828125,-0.13195137679576874,0.2851017713546753,-0.17044177651405334
1780625915144092000,4.253091796875,-0.11667468398809433,0.45855799317359924,-0.11730984598398209
1780625915154087000,4.2630869140625,-0.08813172578811646,0.5708144903182983,-0.06604798883199692
1780625915164082000,4.27308203125,-0.051148671656847,0.5534898042678833,-0.0335686132311821
1780625915174076700,4.28307666015625,-0.02088317833840847,0.4018627405166626,-0.03566425293684006
1780625915184071700,4.29307177734375,0.005684517323970795,0.17021194100379944,-0.0712861642241478
1780625915194066700,4.303066650390625,0.02737782895565033,-0.04746738448739052,-0.12784025073051453
1780625915204061700,4.313061767578125,0.04234692454338074,-0.19602996110916138,-0.1801639050245285
1780625915214057000,4.323056884765625,0.053960170596838,-0.27023014426231384,-0.21144913136959076
1780625915224052000,4.333052001953125,0.062254320830106735,-0.28740862011909485,-0.21164967119693756
1780625915234047000,4.343046875,0.06288228929042816,-0.302947074174881,-0.19371114671230316
1780625915244042800,4.353042724609375,0.06344475597143173,-0.33484190702438354,-0.1560007780790329
1780625915254037800,4.363037841796875,0.06684001535177231,-0.38999250531196594,-0.1019308939576149
1780625915264032800,4.37303271484375,0.06915190815925598,-0.4452986419200897,-0.031810395419597626
1780625915274027800,4.38302783203125,0.06271558254957199,-0.45944109559059143,0.05044293403625488
1780625915284022800,4.393022705078125,0.04904743656516075,-0.42849090695381165,0.13923272490501404
1780625915294017800,4.403017822265625,0.024228107184171677,-0.37100842595100403,0.23336347937583923
1780625915304012800,4.4130126953125,0.006340986583381891,-0.31140023469924927,0.32074445486068726
1780625915314007800,4.4230078125,0.005920473486185074,-0.2606246769428253,0.3867562413215637
1780625915324002800,4.4330029296875,0.015823969617486,-0.24124909937381744,0.42580217123031616
1780625915333998000,4.442998046875,0.027290476486086845,-0.2743029296398163,0.45230036973953247
1780625915343992800,4.452992919921875,0.025828933343291283,-0.3562699556350708,0.4622155725955963
1780625915353987800,4.46298779296875,-0.002609631512314081,-0.47240936756134033,0.45501092076301575
1780625915363982800,4.47298291015625,-0.04466227814555168,-0.6519583463668823,0.4258224070072174
1780625915373977900,4.482977783203125,-0.10557889193296432,-0.8742198944091797,0.4315308928489685
1780625915383972900,4.492972900390625,-0.1849014014005661,-1.0854549407958984,0.47946274280548096
1780625915393967900,4.5029677734375,-0.2623400092124939,-1.2205352783203125,0.5407199859619141
1780625915403964000,4.5129638671875,-0.32484865188598633,-1.265570044517517,0.5845955610275269
1780625915413959000,4.522958984375,-0.3695865571498871,-1.2041977643966675,0.5616292357444763
1780625915423953700,4.53295361328125,-0.3880521357059479,-1.0443812608718872,0.459212064743042
1780625915433948700,4.54294873046875,-0.3848786950111389,-0.8235964179039001,0.2968774735927582
1780625915443943700,4.552943603515625,-0.3953116536140442,-0.5680330991744995,0.13288454711437225
1780625915453939000,4.56293896484375,-0.4259164333343506,-0.33201149106025696,0.05941299349069595
1780625915463934000,4.572933837890625,-0.43630728125572205,-0.17893193662166595,0.0863596573472023
1780625915473929000,4.582928955078125,-0.4133146107196808,-0.17255845665931702,0.17750394344329834
1780625915483924000,4.592924072265625,-0.3675742745399475,-0.3504948914051056,0.31086334586143494
1780625915493919000,4.6029189453125,-0.30020323395729065,-0.5777613520622253,0.42481228709220886
1780625915503914000,4.6129140625,-0.1928730458021164,-0.6859384179115295,0.4260495901107788
1780625915513908700,4.62290869140625,-0.07008907198905945,-0.5789885520935059,0.27967560291290283
1780625915523903700,4.63290380859375,0.011649997904896736,-0.2966140806674957,0.056839048862457275
1780625915533898800,4.642898681640625,0.04701358079910278,-0.019568907096982002,-0.1592589020729065
1780625915543893800,4.652893798828125,0.05240941047668457,0.0765610858798027,-0.3334946036338806
1780625915553888800,4.662888671875,0.03250867500901222,-0.07061558216810226,-0.4299449920654297
1780625915563884800,4.672884765625,0.011549063958227634,-0.4172467589378357,-0.42222100496292114
1780625915573880000,4.682880126953125,-0.03421682491898537,-0.7748509645462036,-0.24149544537067413
1780625915583874800,4.692874755859375,-0.07096738368272781,-0.8295413851737976,0.11434201896190643
1780625915593869800,4.702869873046875,-0.05254603177309036,-0.4574674367904663,0.4743257761001587
1780625915603864800,4.71286474609375,-0.006600910797715187,0.09225509315729141,0.7125199437141418
1780625915613859800,4.72285986328125,0.01919926144182682,0.5095831155776978,0.7510803937911987
1780625915623854800,4.732854736328125,-0.010407899506390095,0.6600348949432373,0.6068789958953857
1780625915633849900,4.742849853515625,-0.07939628511667252,0.5360631346702576,0.38355350494384766
1780625915643844900,4.752844970703125,-0.1253850907087326,0.2317807674407959,0.1945577710866928
1780625915653840000,4.76283984375,-0.10758344829082489,-0.04932094365358353,0.1509820520877838
1780625915663835000,4.7728349609375,-0.06790048629045486,-0.22098776698112488,0.25649648904800415
1780625915673830000,4.782829833984375,-0.038771629333496094,-0.2952952980995178,0.4235030710697174
1780625915683825000,4.792824951171875,-0.014072143472731113,-0.23666846752166748,0.5735575556755066
1780625915693819600,4.802819580078125,0.013422864489257336,-0.0854555144906044,0.6576641798019409
1780625915703814700,4.812814697265625,0.028959745541214943,0.05558469891548157,0.6490336656570435
1780625915713810000,4.822809814453125,0.030042054131627083,0.14709411561489105,0.5678977966308594
1780625915723806000,4.832805908203125,0.03887762501835823,0.16919994354248047,0.4272584021091461
1780625915733801000,4.842801025390625,0.05091617628931999,0.11979564279317856,0.29168832302093506
1780625915743795500,4.85279541015625,0.06256111711263657,0.007114634849131107,0.2334471046924591
1780625915753790500,4.86279052734375,0.08342751860618591,-0.12495498359203339,0.2713915705680847
1780625915763785500,4.872785400390625,0.10158228129148483,-0.20782136917114258,0.3354315161705017
1780625915773780200,4.8827802734375,0.10370189696550369,-0.18521645665168762,0.3696584701538086
1780625915783775200,4.892775146484375,0.09133870154619217,-0.09133337438106537,0.3638671636581421
1780625915793770200,4.902770263671875,0.06560511142015457,0.015918245539069176,0.33209672570228577
1780625915803765200,4.91276513671875,0.03154487535357475,0.10504812002182007,0.2840879261493683
1780625915813760300,4.92276025390625,-0.0021350563038140535,0.1771950125694275,0.23006702959537506
1780625915823755500,4.932755615234375,-0.045224737375974655,0.22313055396080017,0.18532991409301758
1780625915833750500,4.94275048828125,-0.07897284626960754,0.246886745095253,0.18516212701797485
1780625915843745500,4.95274560546875,-0.09756597131490707,0.2559015452861786,0.23255334794521332
1780625915853740500,4.962740478515625,-0.10132821649312973,0.23230195045471191,0.30321261286735535
1780625915863735600,4.972735595703125,-0.10069198906421661,0.21711553633213043,0.353902667760849
1780625915873730300,4.982730224609375,-0.10260254144668579,0.23658643662929535,0.35127493739128113
1780625915883726300,4.992726318359375,-0.10937655717134476,0.27732160687446594,0.30151402950286865
1780625915893721300,5.002721435546875,-0.10870756953954697,0.29995980858802795,0.23479706048965454
1780625915903716400,5.01271630859375,-0.10246006399393082,0.3025939464569092,0.1937529593706131
1780625915913711400,5.02271142578125,-0.07965514808893204,0.27540016174316406,0.1972595453262329
1780625915923706400,5.032706298828125,-0.05336948111653328,0.20942433178424835,0.23989035189151764
1780625915933701400,5.042701416015625,-0.03483681008219719,0.14749038219451904,0.29441457986831665
1780625915943696400,5.0526962890625,-0.01871989108622074,0.13661031424999237,0.3125501871109009
1780625915953691400,5.06269140625,0.012140019796788692,0.1809609979391098,0.2862623929977417
1780625915963686400,5.072686279296875,0.04321404919028282,0.23871511220932007,0.22694632411003113
1780625915973681400,5.082681396484375,0.06210678070783615,0.28088492155075073,0.1631907820701599
1780625915983676400,5.092676513671875,0.06875029951334,0.27514076232910156,0.11569597572088242
1780625915993671400,5.10267138671875,0.06338616460561752,0.20592573285102844,0.09961207956075668
1780625916003666400,5.11266650390625,0.045704904943704605,0.11962520331144333,0.10163740813732147
1780625916013661400,5.122661376953125,0.02250184677541256,0.08173294365406036,0.11582140624523163
1780625916023656400,5.132656494140625,0.015233813785016537,0.09874708205461502,0.13758236169815063
1780625916033651500,5.1426513671875,0.026937341317534447,0.14546585083007812,0.15202122926712036
1780625916043647200,5.152647216796875,0.030608775094151497,0.20859156548976898,0.13004428148269653
1780625916053642500,5.162642578125,0.025367939844727516,0.24097585678100586,0.0820932686328888
1780625916063637500,5.172637451171875,0.032757945358753204,0.2151506543159485,0.04036366939544678
1780625916073632500,5.182632568359375,0.03382667154073715,0.19981244206428528,0.015460449270904064
1780625916083627500,5.19262744140625,0.026006300002336502,0.22786112129688263,0.0012964267516508698
1780625916093622500,5.20262255859375,0.0022024342324584723,0.2482505589723587,0.01642078533768654
1780625916103617500,5.212617431640625,-0.03178749233484268,0.23603223264217377,0.06286711245775223
1780625916113612300,5.2226123046875,-0.0490248017013073,0.22355079650878906,0.1215227022767067
1780625916123607300,5.232607177734375,-0.0548081211745739,0.2138928472995758,0.16130925714969635
1780625916133602300,5.242602294921875,-0.04100123047828674,0.20004867017269135,0.15734034776687622
1780625916143597300,5.252597412109375,-0.012775450013577938,0.1691213846206665,0.09571321308612823
1780625916153592300,5.26259228515625,0.02328428439795971,0.12276666611433029,0.0006356965750455856
1780625916163587300,5.27258740234375,0.05681800842285156,0.03558649122714996,-0.07629317045211792
1780625916173582300,5.282582275390625,0.07665802538394928,-0.10349656641483307,-0.10422626882791519
1780625916183577300,5.292577392578125,0.0754723846912384,-0.2833978831768036,-0.0594358965754509
1780625916193572400,5.302572265625,0.0481954924762249,-0.44958260655403137,0.043592218309640884
1780625916203568400,5.312568359375,0.021314609795808792,-0.5366820693016052,0.1453566700220108
1780625916213563400,5.3225634765625,0.017496967688202858,-0.5194095969200134,0.18838456273078918
1780625916223558400,5.332558349609375,0.024954885244369507,-0.40938085317611694,0.1602775603532791
1780625916233553400,5.342553466796875,0.04800534248352051,-0.23191338777542114,0.07729771733283997
1780625916243548400,5.35254833984375,0.061787199229002,-0.06094644218683243,-0.023576432839035988
1780625916253543400,5.36254345703125,0.06289321184158325,0.04145476594567299,-0.10209015011787415
1780625916263538400,5.372538330078125,0.06387272477149963,0.06410708278417587,-0.12942031025886536
1780625916273533400,5.382533447265625,0.072495236992836,-0.0007787083159200847,-0.0917685329914093
1780625916283528400,5.392528564453125,0.07645242661237717,-0.10143794119358063,-0.02160675823688507
1780625916293523200,5.402523193359375,0.07674351334571838,-0.13047944009304047,0.03362001106142998
1780625916303518200,5.412518310546875,0.0661688968539238,-0.038174018263816833,0.05811523273587227
1780625916313513200,5.42251318359375,0.0628676488995552,0.10799544304609299,0.06640218943357468
1780625916323508500,5.432508544921875,0.06671325117349625,0.22045327723026276,0.06962115317583084
1780625916333503500,5.44250341796875,0.06952688097953796,0.25377368927001953,0.07008001953363419
1780625916343498500,5.45249853515625,0.07361429929733276,0.2283434271812439,0.07883676141500473
1780625916353493500,5.462493408203125,0.06860409677028656,0.16850325465202332,0.10932249575853348
1780625916363489300,5.4724892578125,0.06681152433156967,0.09368494898080826,0.1510704755783081
1780625916373484300,5.482484375,0.0687100887298584,0.004593953024595976,0.19327890872955322
1780625916383479300,5.492479248046875,0.05663265287876129,-0.061598118394613266,0.21886417269706726
1780625916393474300,5.502474365234375,0.04682609438896179,-0.07541512697935104,0.22324161231517792
1780625916403469300,5.51246923828125,0.04603780061006546,-0.0716659277677536,0.2052101492881775
1780625916413464300,5.52246435546875,0.053109824657440186,-0.08771973103284836,0.18398500978946686
1780625916423459300,5.532459228515625,0.05483848229050636,-0.12716753780841827,0.16506005823612213
1780625916433454300,5.542454345703125,0.06130783259868622,-0.1662512868642807,0.15288008749485016
1780625916443449600,5.55244970703125,0.07641248404979706,-0.1526811569929123,0.14187857508659363
1780625916453444600,5.562444580078125,0.09420879185199738,-0.0727759376168251,0.11864808946847916
1780625916463439400,5.572439453125,0.10370375961065292,0.058217499405145645,0.09013841301202774
1780625916473434400,5.582434326171875,0.0907333642244339,0.1822933703660965,0.06043591350317001
1780625916483429400,5.592429443359375,0.08025355637073517,0.23169447481632233,0.029325664043426514
1780625916493424400,5.60242431640625,0.08252417296171188,0.20979370176792145,0.009308280423283577
1780625916503419400,5.61241943359375,0.09448522329330444,0.1838100403547287,0.009534649550914764
1780625916513415400,5.62241552734375,0.1111195981502533,0.1907031089067459,0.023724237456917763
1780625916523410400,5.632410400390625,0.10966071486473083,0.20654146373271942,0.036074645817279816
1780625916533405200,5.6424052734375,0.10701353847980499,0.19351167976856232,0.05241021141409874
1780625916543400200,5.652400146484375,0.09304951876401901,0.14865392446517944,0.06846348196268082
1780625916553395500,5.6623955078125,0.06567754596471786,0.09289345145225525,0.07825565338134766
1780625916563390500,5.672390380859375,0.03917376697063446,0.06650232523679733,0.07695310562849045
1780625916573385500,5.682385498046875,0.02149197645485401,0.0755152627825737,0.06798570603132248
1780625916583380500,5.69238037109375,0.01864985004067421,0.10035669803619385,0.06073765084147453
1780625916593375500,5.70237548828125,0.01900857873260975,0.12403566390275955,0.05992751568555832
1780625916603370500,5.71237060546875,0.02172633446753025,0.13550110161304474,0.05330796167254448
1780625916613365500,5.722365478515625,0.02870088629424572,0.12516936659812927,0.03181305527687073
1780625916623360500,5.732360595703125,0.047260455787181854,0.08911816030740738,-0.007740477565675974
1780625916633355300,5.742355224609375,0.06783950328826904,0.04760480299592018,-0.047447144985198975
1780625916643350300,5.752350341796875,0.08593674749135971,0.04484230652451515,-0.06979425996541977
1780625916653345300,5.76234521484375,0.07887484133243561,0.09143004566431046,-0.0741509273648262
1780625916663340300,5.77234033203125,0.060737915337085724,0.1626480370759964,-0.05884813517332077
1780625916673336600,5.782336669921875,0.04740559682250023,0.2326926290988922,-0.023611852899193764
1780625916683331600,5.79233154296875,0.05425684526562691,0.3001507818698883,0.015625564381480217
1780625916693326600,5.80232666015625,0.07865166664123535,0.37606364488601685,0.052737511694431305
1780625916703321300,5.8123212890625,0.10875684022903442,0.4404921531677246,0.07208883762359619
1780625916713316400,5.82231640625,0.13644199073314667,0.4579150974750519,0.06924191862344742
1780625916723311400,5.832311279296875,0.15514405071735382,0.41713225841522217,0.05414019897580147
1780625916733306400,5.842306396484375,0.1724010705947876,0.3462008237838745,0.04162893444299698
1780625916743302000,5.852302001953125,0.1870282143354416,0.28471508622169495,0.030647657811641693
1780625916753297000,5.862296875,0.19604887068271637,0.261395126581192,0.028299814090132713
1780625916763292000,5.8722919921875,0.1974124014377594,0.26584285497665405,0.035229627043008804
1780625916773287000,5.882286865234375,0.18535228073596954,0.2663917541503906,0.05278731510043144
1780625916783282000,5.892281982421875,0.16457882523536682,0.2565854489803314,0.0706227719783783
1780625916793276700,5.902276611328125,0.13471786677837372,0.2575468420982361,0.07912065088748932
1780625916803272000,5.91227197265625,0.11016938090324402,0.28523653745651245,0.08693196624517441
1780625916813267000,5.922266845703125,0.09265696257352829,0.3278995752334595,0.08417133241891861
1780625916823262000,5.932261962890625,0.09858249872922897,0.37992364168167114,0.07203717529773712
1780625916833258000,5.942258056640625,0.10923407971858978,0.4271710216999054,0.0473635196685791
1780625916843253000,5.9522529296875,0.12276959419250488,0.4437657296657562,0.03310522437095642
1780625916853248000,5.962248046875,0.12681174278259277,0.40452563762664795,0.04392857477068901
1780625916863242800,5.97224267578125,0.13144537806510925,0.3152487576007843,0.05650082603096962
1780625916873237800,5.98223779296875,0.12610547244548798,0.20403729379177094,0.07044274359941483
1780625916883232800,5.992232666015625,0.11494496464729309,0.10830304026603699,0.07622526586055756
1780625916893227800,6.002227783203125,0.1041967123746872,0.05523182824254036,0.07252586632966995
1780625916903222800,6.012222900390625,0.10338737815618515,0.04338395968079567,0.05301661416888237
1780625916913217800,6.0222177734375,0.10501616448163986,0.07963650673627853,0.027818048372864723
1780625916923213000,6.032213134765625,0.1009625643491745,0.14370097219944,-0.0024980450980365276
1780625916933208000,6.0422080078125,0.09386737644672394,0.20502638816833496,-0.03122076950967312
1780625916943203000,6.052203125,0.09477125108242035,0.25197020173072815,-0.04369315132498741
1780625916953198000,6.062197998046875,0.10210426151752472,0.2857031226158142,-0.03828427195549011
1780625916963192800,6.07219287109375,0.1020139828324318,0.2988191843032837,-0.029533391818404198
1780625916973187800,6.082187744140625,0.09382236748933792,0.307159423828125,-0.028966937214136124
1780625916983184000,6.092183837890625,0.07962079346179962,0.3177390694618225,-0.02431359514594078
1780625916993179000,6.102178955078125,0.06559285521507263,0.311382919549942,-0.019576897844672203
1780625917003174000,6.112173828125,0.06058851256966591,0.28124257922172546,-0.02015400491654873
1780625917013169000,6.1221689453125,0.06816467642784119,0.2334151417016983,-0.02943059243261814
1780625917023164000,6.132163818359375,0.08610904961824417,0.19178009033203125,-0.03953728824853897
1780625917033158700,6.14215869140625,0.09592919051647186,0.16658231616020203,-0.052616871893405914
1780625917043154000,6.15215380859375,0.09909595549106598,0.16137930750846863,-0.05726275593042374
1780625917053149000,6.16214892578125,0.10147229582071304,0.17377179861068726,-0.058947738260030746
1780625917063144000,6.17214404296875,0.10480204969644547,0.20082470774650574,-0.05579322576522827
1780625917073139000,6.182138916015625,0.10127655416727066,0.25165221095085144,-0.05572797730565071
1780625917083134000,6.192134033203125,0.09439361095428467,0.30416736006736755,-0.05670349299907684
1780625917093129000,6.20212890625,0.08932535350322723,0.3425773084163666,-0.04556535556912422
1780625917103124000,6.2121240234375,0.08270233869552612,0.3480690121650696,-0.028987975791096687
1780625917113119000,6.222118896484375,0.07719199359416962,0.31024813652038574,-0.017424529418349266
1780625917123114000,6.232114013671875,0.07288059592247009,0.24875496327877045,-0.018067417666316032
1780625917133109800,6.24210986328125,0.07389712333679199,0.200561061501503,-0.029017003253102303
1780625917143104800,6.252104736328125,0.07823967933654785,0.19028259813785553,-0.044021252542734146
1780625917153099800,6.262099853515625,0.08583740890026093,0.20879235863685608,-0.05848141759634018
1780625917163095000,6.272094970703125,0.08881322294473648,0.2390194982290268,-0.06907095015048981
1780625917173090000,6.282090087890625,0.09292727708816528,0.26038843393325806,-0.0651467815041542
1780625917183085000,6.2920849609375,0.09163537621498108,0.26373976469039917,-0.05145653337240219
1780625917193080000,6.302080078125,0.09004627168178558,0.25447994470596313,-0.033489517867565155
1780625917203074800,6.31207470703125,0.0958961695432663,0.23965200781822205,-0.02629418857395649
1780625917213069800,6.32206982421875,0.09638699144124985,0.21370509266853333,-0.03226153180003166
1780625917223064800,6.33206494140625,0.09777636080980301,0.19451995193958282,-0.04418876767158508
1780625917233059800,6.342059814453125,0.09651189297437668,0.19797860085964203,-0.05710642784833908
1780625917243054800,6.352054931640625,0.09400079399347305,0.23203882575035095,-0.06301518529653549
1780625917253049900,6.3620498046875,0.09095200896263123,0.27495086193084717,-0.07096418738365173
1780625917263044900,6.372044921875,0.0896100401878357,0.3056272864341736,-0.07772835344076157
1780625917273040000,6.382039794921875,0.08675646781921387,0.3177180588245392,-0.08024343848228455
1780625917283035000,6.392034912109375,0.08609946817159653,0.3046531081199646,-0.08044477552175522
1780625917293031000,6.402031005859375,0.08760601282119751,0.27376335859298706,-0.08310820162296295
1780625917303026000,6.41202587890625,0.09057650715112686,0.2444278597831726,-0.0947406217455864
1780625917313021000,6.42202099609375,0.09544263035058975,0.22004660964012146,-0.11310924589633942
1780625917323016000,6.432015869140625,0.09654837846755981,0.20520508289337158,-0.1336989402770996
1780625917333011000,6.442010986328125,0.08809071034193039,0.20128756761550903,-0.1489255577325821
1780625917343006000,6.452005859375,0.07256394624710083,0.20972499251365662,-0.15759442746639252
1780625917353001000,6.4620009765625,0.0558835044503212,0.2265457957983017,-0.15445934236049652
1780625917362996000,6.471995849609375,0.047749411314725876,0.25055766105651855,-0.14801903069019318
1780625917372990700,6.48199072265625,0.0437416210770607,0.2900989353656769,-0.14060531556606293
1780625917382985700,6.49198583984375,0.04475761577486992,0.35887426137924194,-0.13572028279304504
1780625917392980700,6.501980712890625,0.04376585781574249,0.4367767870426178,-0.125074565410614
1780625917402975700,6.511975830078125,0.044260405004024506,0.4923495054244995,-0.1124381273984909
1780625917412970800,6.521970703125,0.03943609073758125,0.5021381974220276,-0.10345208644866943
1780625917422966000,6.531966064453125,0.035599540919065475,0.47184664011001587,-0.10660287737846375
1780625917432962000,6.541962158203125,0.033956367522478104,0.4226660430431366,-0.11623313277959824
1780625917442956800,6.551956787109375,0.03170999139547348,0.3779502213001251,-0.12620027363300323
1780625917452951800,6.561951904296875,0.02779381349682808,0.35011938214302063,-0.13671870529651642
1780625917462946800,6.57194677734375,0.022430740296840668,0.35939332842826843,-0.1442868709564209
1780625917472941800,6.58194189453125,0.023492809385061264,0.4018845856189728,-0.14752447605133057
1780625917482936800,6.591936767578125,0.034812841564416885,0.4567614197731018,-0.14664404094219208
1780625917492931800,6.601931884765625,0.04411712661385536,0.4820958077907562,-0.1436285376548767
1780625917502926800,6.6119267578125,0.055938899517059326,0.4508230984210968,-0.1356656849384308
1780625917512921900,6.621921875,0.058515239506959915,0.3618602156639099,-0.12625381350517273
1780625917522916900,6.631916748046875,0.04273867607116699,0.2374381124973297,-0.11116407066583633
1780625917532911900,6.641911865234375,0.016200274229049683,0.09113416820764542,-0.09954629838466644
1780625917542907000,6.651906982421875,-0.007821171544492245,-0.049006689339876175,-0.09708074480295181
1780625917552902000,6.66190185546875,-0.014511032029986382,-0.15039217472076416,-0.09436777979135513
1780625917562897000,6.67189697265625,0.0013627394801005721,-0.15601889789104462,-0.09467564523220062
1780625917572892000,6.681891845703125,0.028812207281589508,-0.042803920805454254,-0.08536896109580994
1780625917582887000,6.691886962890625,0.06019702926278114,0.1899225264787674,-0.05615727975964546
1780625917592883000,6.701883056640625,0.08543873578310013,0.49803268909454346,0.0006769755273126066
1780625917602878000,6.7118779296875,0.0942482054233551,0.8190780878067017,0.07899601757526398
1780625917612873000,6.721873046875,0.08380088955163956,1.0591063499450684,0.15689827501773834
1780625917622867700,6.73186767578125,0.0486929714679718,1.1488981246948242,0.22756631672382355
1780625917632862700,6.74186279296875,0.008931443095207214,1.1028605699539185,0.28861767053604126
1780625917642857700,6.751857666015625,-0.011056379415094852,0.9828515648841858,0.3397122919559479
1780625917652852700,6.761852783203125,-0.0054357778280973434,0.8441717028617859,0.37367212772369385
1780625917662848000,6.771847900390625,0.03886883705854416,0.7490651607513428,0.3806280493736267
1780625917672843000,6.781843017578125,0.09209637343883514,0.7319484949111938,0.35157161951065063
1780625917682838000,6.791838134765625,0.12905359268188477,0.7517443299293518,0.2995195984840393
1780625917692833000,6.8018330078125,0.15857605636119843,0.7587311267852783,0.2510300874710083
1780625917702828000,6.811828125,0.18546812236309052,0.7152270674705505,0.23079858720302582
1780625917712823000,6.821822998046875,0.2077057957649231,0.6123747229576111,0.2501794695854187
1780625917722817800,6.83181787109375,0.23750177025794983,0.4710000157356262,0.29447636008262634
1780625917732812800,6.841812744140625,0.2814798653125763,0.3366509974002838,0.342915803194046
1780625917742808800,6.851808837890625,0.32168614864349365,0.24265125393867493,0.36003461480140686
1780625917752803300,6.86180322265625,0.346988320350647,0.18937233090400696,0.3410976827144623
1780625917762798300,6.87179833984375,0.3548448979854584,0.15423138439655304,0.3058992028236389
1780625917772793300,6.88179345703125,0.34835532307624817,0.12332592904567719,0.27496445178985596
1780625917782788400,6.891788330078125,0.3356379270553589,0.0898265615105629,0.2681150734424591
1780625917792783400,6.901783447265625,0.33116647601127625,0.07735417783260345,0.30333590507507324
1780625917802778400,6.9117783203125,0.3620367646217346,0.10156018286943436,0.3713357448577881
1780625917812773000,6.921773193359375,0.41243335604667664,0.15114425122737885,0.43876802921295166
1780625917822768000,6.93176806640625,0.4464523196220398,0.21850277483463287,0.47595083713531494
1780625917832763100,6.94176318359375,0.4684170186519623,0.285198450088501,0.48149365186691284
1780625917842758100,6.951758056640625,0.4833797216415405,0.33767178654670715,0.46756798028945923
1780625917852753200,6.961753173828125,0.49599483609199524,0.37409743666648865,0.450732558965683
1780625917862748200,6.971748046875,0.5063185691833496,0.37902480363845825,0.4429723620414734
1780625917872743200,6.9817431640625,0.5356663465499878,0.33445894718170166,0.4462227523326874
1780625917882738200,6.99173828125,0.5959270596504211,0.29469314217567444,0.4448946416378021
1780625917892734200,7.001734130859375,0.6703104376792908,0.2933533191680908,0.4325370490550995
1780625917902729200,7.011729248046875,0.7380085587501526,0.34749698638916016,0.40959230065345764
1780625917912724200,7.02172412109375,0.7817232608795166,0.44245705008506775,0.38263580203056335
1780625917922719200,7.03171923828125,0.8118657469749451,0.5464694499969482,0.3638969957828522
1780625917932714200,7.04171435546875,0.8271448016166687,0.6396212577819824,0.3627563714981079
1780625917942709200,7.051709228515625,0.8189140558242798,0.6986872553825378,0.376722514629364
1780625917952704300,7.061704345703125,0.7960193753242493,0.7036542892456055,0.40601834654808044
1780625917962699300,7.07169921875,0.7685627341270447,0.6636384129524231,0.43808335065841675
1780625917972694300,7.0816943359375,0.7550234794616699,0.5728187561035156,0.43907323479652405
1780625917982689000,7.09168896484375,0.7557547688484192,0.4512034058570862,0.4067499041557312
1780625917992684000,7.10168408203125,0.752243161201477,0.3260776996612549,0.3644813001155853
1780625918002679000,7.111678955078125,0.750005304813385,0.2267141044139862,0.3375266492366791
1780625918012674300,7.12167431640625,0.7331591844558716,0.15939125418663025,0.3345724046230316
1780625918022669300,7.13166943359375,0.7109159231185913,0.13582441210746765,0.34567350149154663
1780625918032664300,7.141664306640625,0.6794200539588928,0.15633927285671234,0.3620165288448334
1780625918042660400,7.151660400390625,0.6380459666252136,0.20463968813419342,0.3761526048183441
1780625918052655000,7.161655029296875,0.5862208604812622,0.24093830585479736,0.38561585545539856
1780625918062650000,7.171650146484375,0.5395026206970215,0.23171311616897583,0.39657771587371826
1780625918072645000,7.18164501953125,0.5001989006996155,0.17361493408679962,0.40697920322418213
1780625918082640100,7.19164013671875,0.4514244496822357,0.09241728484630585,0.41062507033348083
1780625918092635100,7.20163525390625,0.38803642988204956,0.011659585870802402,0.40646255016326904
1780625918102630100,7.211630126953125,0.3288750946521759,-0.052079979330301285,0.3936349153518677
1780625918112625200,7.221625244140625,0.28554677963256836,-0.08522062003612518,0.38117584586143494
1780625918122620400,7.231620361328125,0.25794604420661926,-0.090987429022789,0.36816710233688354
1780625918132615400,7.241615478515625,0.2341429889202118,-0.08281312137842178,0.3506680130958557
1780625918142610400,7.2516103515625,0.22678227722644806,-0.08230419456958771,0.3304769694805145
1780625918152605200,7.261605224609375,0.2389523983001709,-0.096869558095932,0.30562064051628113
1780625918162600200,7.27160009765625,0.27060672640800476,-0.1194092184305191,0.2781871557235718
1780625918172595200,7.28159521484375,0.2967051863670349,-0.14921452105045319,0.2502218186855316
1780625918182591200,7.29159130859375,0.2734549641609192,-0.16585314273834229,0.21376900374889374
1780625918192586200,7.301586181640625,0.2253364473581314,-0.1509743332862854,0.18438582122325897
1780625918202581200,7.311581298828125,0.17785601317882538,-0.11682035773992538,0.1602458655834198
1780625918212576300,7.321576171875,0.14088734984397888,-0.09761390835046768,0.14419925212860107
1780625918222571000,7.331571044921875,0.11436998844146729,-0.12799978256225586,0.14048786461353302
1780625918232566000,7.34156591796875,0.10974381119012833,-0.1985463798046112,0.14403653144836426
1780625918242561300,7.351561279296875,0.1209258884191513,-0.29376131296157837,0.14753380417823792
1780625918252556300,7.361556396484375,0.12886743247509003,-0.37617576122283936,0.1405845433473587
1780625918262551300,7.37155126953125,0.12889912724494934,-0.42094483971595764,0.12167184054851532
1780625918272546300,7.38154638671875,0.11082079261541367,-0.41742199659347534,0.09511293470859528
1780625918282541300,7.391541259765625,0.08442433923482895,-0.3857860565185547,0.07169336080551147
1780625918292536300,7.401536376953125,0.05175693705677986,-0.3464812636375427,0.054959122091531754
1780625918302531300,7.41153125,0.01212830189615488,-0.32453787326812744,0.04687562957406044
1780625918312526300,7.4215263671875,-0.02467871457338333,-0.3143467605113983,0.04512220248579979
1780625918322521000,7.43152099609375,-0.057073138654232025,-0.3012426793575287,0.042809516191482544
1780625918332517000,7.44151708984375,-0.07338953018188477,-0.2760089337825775,0.04386652261018753
1780625918342512000,7.45151220703125,-0.08906063437461853,-0.24065442383289337,0.04468943923711777
1780625918352507100,7.461507080078125,-0.10482015460729599,-0.20854628086090088,0.03333212435245514
1780625918362502400,7.47150244140625,-0.12137995660305023,-0.1943734735250473,0.008869125507771969
1780625918372497400,7.481497314453125,-0.1325058490037918,-0.17092807590961456,-0.027698472142219543
1780625918382492400,7.491492431640625,-0.14047402143478394,-0.12495525181293488,-0.07249017804861069
1780625918392487200,7.501487060546875,-0.13828517496585846,-0.06683016568422318,-0.108741395175457
1780625918402482200,7.511482177734375,-0.13717277348041534,-0.014146711677312851,-0.1266184002161026
1780625918412477200,7.521477294921875,-0.1444687694311142,0.03285515308380127,-0.12829166650772095
1780625918422472200,7.53147216796875,-0.1547459065914154,0.06936043500900269,-0.12880031764507294
1780625918432467200,7.54146728515625,-0.16139741241931915,0.08068978786468506,-0.13124990463256836
1780625918442462200,7.551462158203125,-0.15538425743579865,0.062245000153779984,-0.1372705101966858
1780625918452457200,7.561457275390625,-0.14527863264083862,0.00640836451202631,-0.1455068588256836
1780625918462452200,7.5714521484375,-0.13581988215446472,-0.06976044178009033,-0.16578204929828644
1780625918472447200,7.581447265625,-0.13292236626148224,-0.14204396307468414,-0.19854718446731567
1780625918482443300,7.591443359375,-0.14419418573379517,-0.1771090030670166,-0.2349746972322464
1780625918492438300,7.601438232421875,-0.16264909505844116,-0.16505686938762665,-0.2625349462032318
1780625918502433300,7.611433349609375,-0.17721766233444214,-0.12179061770439148,-0.2752246558666229
1780625918512428300,7.62142822265625,-0.18669557571411133,-0.075314462184906,-0.27875226736068726
1780625918522423300,7.63142333984375,-0.18497571349143982,-0.048346228897571564,-0.28344714641571045
1780625918532418300,7.641418212890625,-0.18015486001968384,-0.04920722544193268,-0.2870834469795227
1780625918542413300,7.651413330078125,-0.17941875755786896,-0.05607552081346512,-0.29634377360343933
1780625918552408300,7.661408203125,-0.1925840973854065,-0.04462898522615433,-0.310259610414505
1780625918562403300,7.6714033203125,-0.21931929886341095,-0.0024714134633541107,-0.32741329073905945
1780625918572398000,7.681398193359375,-0.2482777237892151,0.05483448505401611,-0.34870606660842896
1780625918582393000,7.69139306640625,-0.27451837062835693,0.11581874638795853,-0.3626282513141632
1780625918592388000,7.70138818359375,-0.29262199997901917,0.16033907234668732,-0.36727121472358704
1780625918602383000,7.711383056640625,-0.30839112401008606,0.18287873268127441,-0.3661835789680481
1780625918612378000,7.721378173828125,-0.32224753499031067,0.1870868057012558,-0.3654592037200928
1780625918622373400,7.731373291015625,-0.33313828706741333,0.1831735521554947,-0.37000495195388794
1780625918632369200,7.741369140625,-0.34852468967437744,0.16101817786693573,-0.379189670085907
1780625918642364200,7.7513642578125,-0.3589895963668823,0.13440388441085815,-0.3791944682598114
1780625918652359200,7.761359130859375,-0.36796602606773376,0.11714766174554825,-0.3778863251209259
1780625918662354200,7.771354248046875,-0.3723599910736084,0.09702374786138535,-0.3781619369983673
1780625918672349200,7.78134912109375,-0.3713301420211792,0.047503069043159485,-0.3774213194847107
1780625918682344200,7.79134423828125,-0.36827683448791504,0.04030880704522133,-0.400897353887558
1780625918692339200,7.801339111328125,-0.3504118025302887,0.10656692087650299,-0.4479050636291504
1780625918702334200,7.811334228515625,-0.3221399486064911,0.16130952537059784,-0.49317774176597595
1780625918712329200,7.8213291015625,-0.2956708073616028,0.15398158133029938,-0.5110097527503967
1780625918722324200,7.83132421875,-0.2786060571670532,0.08588933944702148,-0.5016684532165527
1780625918732319200,7.8413193359375,-0.27354365587234497,-0.0018695390317589045,-0.48398852348327637
1780625918742314200,7.851314208984375,-0.2726602852344513,-0.05307839810848236,-0.44038909673690796
1780625918752309000,7.86130908203125,-0.2830711305141449,0.004605138208717108,-0.3647116422653198
1780625918762304000,7.871303955078125,-0.30101150274276733,0.1393831968307495,-0.30523526668548584
1780625918772300000,7.881300048828125,-0.32010024785995483,0.29223665595054626,-0.3019880950450897
1780625918782295000,7.891294921875,-0.3315616846084595,0.3690515458583832,-0.3376067876815796
1780625918792290300,7.901290283203125,-0.321208119392395,0.3200826644897461,-0.3690052032470703
1780625918802285300,7.911285400390625,-0.3131965398788452,0.20378108322620392,-0.379975825548172
1780625918812280000,7.921280029296875,-0.3205639123916626,0.0963158831000328,-0.37411928176879883
1780625918822275000,7.931275146484375,-0.3379804491996765,0.02683001570403576,-0.36802542209625244
1780625918832270000,7.94127001953125,-0.362379789352417,-0.005665076430886984,-0.365664005279541
1780625918842265000,7.95126513671875,-0.3931922912597656,-0.028087027370929718,-0.3485739529132843
1780625918852260000,7.961260009765625,-0.43330880999565125,-0.05727287754416466,-0.31480348110198975
1780625918862255000,7.971255126953125,-0.4610408544540405,-0.11233586072921753,-0.2752387523651123
1780625918872250000,7.98125,-0.4762168824672699,-0.19452661275863647,-0.24736878275871277
1780625918882245000,7.9912451171875,-0.4856031835079193,-0.27362409234046936,-0.23218290507793427
1780625918892240100,8.001240234375,-0.49216681718826294,-0.3373870849609375,-0.21419565379619598
1780625918902235100,8.011235107421875,-0.49074602127075195,-0.3890334963798523,-0.18467797338962555
1780625918912230000,8.02122998046875,-0.479236900806427,-0.45721760392189026,-0.15364867448806763
1780625918922226200,8.03122607421875,-0.46052286028862,-0.530866801738739,-0.13214951753616333
1780625918932221200,8.04122119140625,-0.43697625398635864,-0.591091513633728,-0.13492532074451447
1780625918942216200,8.05121630859375,-0.42569297552108765,-0.6166863441467285,-0.15014982223510742
1780625918952211200,8.061211181640624,-0.4270791709423065,-0.5818884372711182,-0.17450310289859772
1780625918962206200,8.071206298828125,-0.4374913275241852,-0.5131943225860596,-0.19700361788272858
1780625918972201200,8.081201171875,-0.454915314912796,-0.46004268527030945,-0.21254529058933258
1780625918982196000,8.091196044921874,-0.4641929566860199,-0.456042617559433,-0.22569464147090912
1780625918992191000,8.10119091796875,-0.4631897509098053,-0.46068212389945984,-0.23697686195373535
1780625919002186000,8.11118603515625,-0.45631614327430725,-0.44182083010673523,-0.24206510186195374
1780625919012181000,8.121180908203126,-0.4466318190097809,-0.3974142074584961,-0.23781761527061462
1780625919022176000,8.131176025390625,-0.4464733600616455,-0.3417344391345978,-0.23002174496650696
1780625919032171000,8.1411708984375,-0.4582538604736328,-0.281423419713974,-0.22970616817474365
1780625919042166000,8.151166015625,-0.46545717120170593,-0.24078784883022308,-0.23310275375843048
1780625919052161300,8.161161376953125,-0.46085044741630554,-0.23328731954097748,-0.2397201806306839
1780625919062157000,8.171156982421875,-0.44215184450149536,-0.26582929491996765,-0.2434198409318924
1780625919072152000,8.181152099609376,-0.41825875639915466,-0.33634498715400696,-0.2594752311706543
1780625919082147000,8.19114697265625,-0.39640647172927856,-0.4264538586139679,-0.2814335525035858
1780625919092142000,8.20114208984375,-0.3940242528915405,-0.5016987919807434,-0.3089916706085205
1780625919102137000,8.21113720703125,-0.3936690092086792,-0.528106153011322,-0.34441542625427246
1780625919112132000,8.221132080078124,-0.3718246817588806,-0.48512542247772217,-0.34546977281570435
1780625919122127000,8.231127197265625,-0.3310016393661499,-0.42656490206718445,-0.2858501374721527
1780625919132122000,8.2411220703125,-0.31678062677383423,-0.3878052532672882,-0.1553991734981537
1780625919142117000,8.2511171875,-0.3550023138523102,-0.39271506667137146,0.025496838614344597
1780625919152112000,8.261112060546875,-0.4137292504310608,-0.5198383927345276,0.17706505954265594
1780625919162107000,8.27110693359375,-0.4729904532432556,-0.7878661155700684,0.24775893986225128
1780625919172102100,8.28110205078125,-0.4944579303264618,-1.0956034660339355,0.24683454632759094
1780625919182097200,8.29109716796875,-0.409976065158844,-1.1724460124969482,0.21157003939151764
1780625919192092200,8.301092041015625,-0.32961413264274597,-1.0918643474578857,0.2215275913476944
1780625919202088200,8.311088134765624,-0.29414692521095276,-1.0081892013549805,0.2639155387878418
1780625919212083200,8.321083251953125,-0.2890661656856537,-0.9908237457275391,0.2942180335521698
1780625919222078200,8.331078125,-0.24791818857192993,-1.0167131423950195,0.30634447932243347
1780625919232073000,8.341072998046876,-0.1675858050584793,-1.0152984857559204,0.2624257504940033
1780625919242068000,8.35106787109375,-0.11157792806625366,-0.9115781784057617,0.12148888409137726
1780625919252063000,8.36106298828125,-0.09103323519229889,-0.6934890151023865,-0.06887120753526688
1780625919262058000,8.37105810546875,-0.06769542396068573,-0.44812583923339844,-0.1931779831647873
1780625919272053000,8.381052978515624,-0.05632771924138069,-0.35582467913627625,-0.16589389741420746
1780625919282048000,8.391048095703125,-0.06786932796239853,-0.42472943663597107,0.010114951990544796
1780625919292043300,8.401043212890626,-0.09243912249803543,-0.4814941883087158,0.2423926591873169
1780625919302038300,8.411038330078124,-0.13062086701393127,-0.4252692759037018,0.4000246226787567
1780625919312033300,8.421033203125,-0.17989812791347504,-0.2505429983139038,0.43210533261299133
1780625919322028300,8.4310283203125,-0.23225294053554535,-0.08957382291555405,0.3520570993423462
1780625919332023000,8.44102294921875,-0.2584429979324341,-0.09750871360301971,0.25498461723327637
1780625919342018000,8.45101806640625,-0.24431094527244568,-0.36614418029785156,0.22560755908489227
1780625919352014000,8.46101416015625,-0.22090654075145721,-0.7195522785186768,0.2641461491584778
1780625919362009000,8.471009033203124,-0.19669948518276215,-0.9590221643447876,0.3026101887226105
1780625919372004000,8.481004150390625,-0.17893806099891663,-1.011307954788208,0.2716275155544281
1780625919381999000,8.4909990234375,-0.17739155888557434,-0.8848408460617065,0.18655763566493988
1780625919391994000,8.500994140625,-0.18470646440982819,-0.6649758815765381,0.09714572131633759
1780625919401988900,8.51098876953125,-0.19232682883739471,-0.417559415102005,0.03477901965379715
1780625919411984100,8.520984130859375,-0.20591481029987335,-0.1662939041852951,-0.0008783105295151472
1780625919421979100,8.530979248046876,-0.2212362438440323,0.08689761161804199,-0.010480604134500027
1780625919431974100,8.54097412109375,-0.24019502103328705,0.24649126827716827,0.00009800432599149644
1780625919441969200,8.55096923828125,-0.2597799003124237,0.2408466935157776,0.01341833733022213
1780625919451964200,8.560964111328126,-0.29606014490127563,0.08471834659576416,0.016262326389551163
1780625919461959200,8.570959228515624,-0.321321576833725,-0.15512673556804657,0.022352710366249084
1780625919471954200,8.5809541015625,-0.3065119981765747,-0.3888862431049347,0.02841140143573284
1780625919481949200,8.59094921875,-0.2797189950942993,-0.5443040728569031,0.034454647451639175
1780625919491945000,8.600945068359374,-0.2524098753929138,-0.621655285358429,0.032994434237480164
1780625919501940000,8.61093994140625,-0.2296646237373352,-0.646907389163971,0.030882015824317932
1780625919511935000,8.62093505859375,-0.2202351689338684,-0.6613355875015259,0.029103556647896767
1780625919521930200,8.63093017578125,-0.2074519842863083,-0.6869035363197327,0.01961924135684967
1780625919531925200,8.64092529296875,-0.1913377344608307,-0.7108229994773865,0.00872078724205494
1780625919541920300,8.650920166015625,-0.17651724815368652,-0.7378665804862976,0.012594088912010193
1780625919551915300,8.660915283203124,-0.17246657609939575,-0.7901372313499451,0.033373404294252396
1780625919561910300,8.67091015625,-0.1709515005350113,-0.8912928700447083,0.044737376272678375
1780625919571905000,8.680905029296875,-0.1691586673259735,-1.0067734718322754,0.02424675039947033
1780625919581900000,8.690900146484376,-0.14724591374397278,-1.031846523284912,-0.02532319910824299
1780625919591895000,8.70089501953125,-0.12649215757846832,-0.9357317090034485,-0.09264471381902695
1780625919601890000,8.71089013671875,-0.1163598969578743,-0.751132607460022,-0.16855013370513916
1780625919611885000,8.720885009765626,-0.13649685680866241,-0.5639499425888062,-0.23427535593509674
1780625919621880000,8.730880126953124,-0.20050354301929474,-0.4122788906097412,-0.276712566614151
1780625919631875000,8.740875,-0.28045323491096497,-0.2651882469654083,-0.26863810420036316
1780625919641871000,8.75087109375,-0.34902429580688477,-0.1126069724559784,-0.19417454302310944
1780625919651866000,8.7608662109375,-0.4018947184085846,0.038238998502492905,-0.09369053691625595
1780625919661861000,8.770861083984375,-0.4163929522037506,0.24984605610370636,-0.018432004377245903
1780625919671856000,8.780856201171876,-0.40118497610092163,0.46338602900505066,0.0024892566725611687
1780625919681851100,8.79085107421875,-0.37305667996406555,0.6685165166854858,-0.016528910025954247
1780625919691846100,8.80084619140625,-0.34936439990997314,0.8440651893615723,-0.042987413704395294
1780625919701841200,8.810841064453125,-0.33713674545288086,0.8892838358879089,-0.04277116432785988
1780625919711836200,8.820836181640624,-0.32895952463150024,0.7953157424926758,-0.034572623670101166
1780625919721831200,8.8308310546875,-0.31904137134552,0.6274034380912781,-0.06414622813463211
1780625919731826200,8.840826171875,-0.30899831652641296,0.46871474385261536,-0.12320209294557571
1780625919741821000,8.850821044921876,-0.3046587109565735,0.32076364755630493,-0.17107321321964264
1780625919751817000,8.86081689453125,-0.30522996187210083,0.145808607339859,-0.162287175655365
1780625919761812000,8.87081201171875,-0.32164302468299866,0.01423539500683546,-0.09218159317970276
1780625919771807000,8.880806884765626,-0.354530930519104,0.00692102313041687,-0.019405921921133995
1780625919781803000,8.890802978515625,-0.39055949449539185,0.1315990388393402,0.04415734112262726
1780625919791797800,8.9007978515625,-0.4433593153953552,0.3121107518672943,0.12660694122314453
1780625919801792800,8.910792724609376,-0.5198961496353149,0.4865257143974304,0.2668948173522949
1780625919811787800,8.920787841796875,-0.5814788341522217,0.599987804889679,0.4371453821659088
1780625919821782800,8.93078271484375,-0.6048928499221802,0.5968788266181946,0.567935585975647
1780625919831777800,8.94077783203125,-0.5782154202461243,0.42947226762771606,0.588991105556488
1780625919841772800,8.950772705078125,-0.49865347146987915,0.14328685402870178,0.46421054005622864
1780625919851767800,8.960767822265625,-0.3783057630062103,-0.14138615131378174,0.26160043478012085
1780625919861763000,8.97076318359375,-0.24068158864974976,-0.3059876263141632,0.11102132499217987
1780625919871758000,8.980758056640624,-0.12348198890686035,-0.19268156588077545,0.04031706228852272
1780625919881753000,8.990753173828125,-0.08985718339681625,0.13358069956302643,0.035827770829200745
1780625919891747800,9.000747802734375,-0.14573216438293457,0.5261804461479187,0.04748602584004402
1780625919901742800,9.010742919921874,-0.20328174531459808,0.892953634262085,0.043908070772886276
1780625919911737900,9.02073779296875,-0.2574826776981354,1.1426620483398438,0.040411338210105896
1780625919921732900,9.03073291015625,-0.33858630061149597,1.307013988494873,0.016266588121652603
1780625919931729000,9.04072900390625,-0.432913601398468,1.3434478044509888,0.008134892210364342
1780625919941724000,9.050723876953125,-0.5012074708938599,1.19338858127594,0.022036593407392502
1780625919951719000,9.060718994140625,-0.5088701844215393,0.8312149047851562,0.041554901748895645
1780625919961713700,9.070713623046874,-0.46057718992233276,0.3880468010902405,0.038179874420166016
1780625919971708700,9.080708740234375,-0.3712707459926605,0.019302858039736748,0.009092831052839756
1780625919981704000,9.090703857421875,-0.26556989550590515,-0.17018158733844757,-0.03169667720794678
1780625919991699000,9.100698974609376,-0.189967542886734,-0.1270410418510437,-0.07978564500808716
1780625920001694000,9.11069384765625,-0.16949795186519623,0.08616285026073456,-0.11302854865789413
1780625920011689000,9.12068896484375,-0.2266312837600708,0.34967198967933655,-0.09687408059835434
1780625920021684000,9.13068408203125,-0.31670257449150085,0.46740102767944336,-0.04308222234249115
1780625920031679000,9.140678955078124,-0.3937736749649048,0.40530648827552795,0.0009060074225999415
1780625920041674000,9.150674072265625,-0.41086795926094055,0.21853633224964142,0.013027651235461235
1780625920051669000,9.1606689453125,-0.3471848666667938,-0.038305312395095825,0.004209392238408327
1780625920061663700,9.170663818359374,-0.2503989338874817,-0.18430618941783905,0.004730040207505226
1780625920071659800,9.18065966796875,-0.14618809521198273,-0.2699260115623474,-0.027889421209692955
1780625920081654800,9.19065478515625,-0.03334330767393112,-0.4759756028652191,-0.1284802109003067
1780625920091650000,9.200650146484374,0.07665775716304779,-0.6561989188194275,-0.26920509338378906
1780625920101645000,9.21064501953125,0.15392431616783142,-0.5181403756141663,-0.39269161224365234
1780625920111640000,9.22064013671875,0.15022145211696625,-0.21130424737930298,-0.47148337960243225
1780625920121635000,9.230635009765624,0.11099522560834885,0.11198778450489044,-0.39200931787490845
1780625920131629800,9.2406298828125,0.12393818795681,0.4473559260368347,-0.2646252512931824
1780625920141624800,9.250624755859375,0.16380251944065094,0.6867493391036987,-0.19325494766235352
1780625920151619800,9.260619873046876,0.1796983927488327,0.7352705597877502,-0.1892884373664856
1780625920161614800,9.27061474609375,0.12777367234230042,0.7181211113929749,-0.15809430181980133
1780625920171609900,9.28060986328125,0.050692204385995865,0.5468322038650513,-0.136208176612854
1780625920181604900,9.29060498046875,0.0217732060700655,0.09852124750614166,-0.19664408266544342
1780625920191599900,9.300599853515624,0.05718152970075607,-0.10850543528795242,-0.19217289984226227
1780625920201595000,9.310594970703125,0.10053273290395737,0.09383727610111237,-0.23389212787151337
1780625920211590000,9.32058984375,0.1008901298046112,0.4514087438583374,-0.3385159969329834
1780625920221586000,9.3305859375,0.02557646669447422,0.7105388045310974,-0.4037626385688782
1780625920231581000,9.340580810546875,-0.08689841628074646,0.584819495677948,-0.4212987720966339
1780625920241576000,9.350575927734376,-0.14022502303123474,0.1824190765619278,-0.40169790387153625
1780625920251571000,9.360571044921874,-0.1290045827627182,-0.1233440414071083,-0.3684893548488617
1780625920261566000,9.37056591796875,-0.08463126420974731,-0.27303045988082886,-0.33907952904701233
1780625920271561000,9.38056103515625,-0.028149612247943878,-0.08005968481302261,-0.2903425991535187
1780625920281556000,9.390555908203124,0.01441329438239336,0.16678711771965027,-0.2799869179725647
1780625920291551000,9.400551025390625,0.0316692478954792,0.19060084223747253,-0.3453533947467804
1780625920301546000,9.4105458984375,0.034032270312309265,0.1531919538974762,-0.44660279154777527
1780625920311540700,9.420540771484376,0.04686311259865761,-0.10489632189273834,-0.5898475646972656
1780625920321535700,9.43053564453125,0.0828235074877739,-0.37866342067718506,-0.6930400133132935
1780625920331530800,9.44053076171875,0.09272061288356781,-0.14196805655956268,-0.6433696746826172
1780625920341525800,9.45052587890625,0.04938938841223717,0.39856308698654175,-0.5405532717704773
1780625920351522000,9.46052197265625,-0.02797970362007618,0.8478215932846069,-0.41420409083366394
1780625920361517000,9.47051708984375,-0.1138666495680809,1.1341772079467773,-0.2761772572994232
1780625920371512000,9.480511962890626,-0.18421190977096558,1.0738749504089355,-0.22765952348709106
1780625920381506800,9.4905068359375,-0.19858552515506744,0.5485610961914062,-0.4070710837841034
1780625920391501800,9.500501708984375,-0.117865651845932,0.04157434031367302,-0.6215442419052124
1780625920401496800,9.510496826171876,0.005882923025637865,-0.11902279406785965,-0.6908724308013916
1780625920411491800,9.520491943359374,0.09628046303987503,0.004008856136351824,-0.6383269429206848
1780625920421486800,9.53048681640625,0.11898470669984818,0.22962839901447296,-0.4376452565193176
1780625920431481900,9.54048193359375,0.06091155484318733,0.34557604789733887,-0.2899678945541382
1780625920441476900,9.550476806640624,0.001663144095800817,0.3345244526863098,-0.2698216140270233
1780625920451472000,9.560471923828125,0.012328038923442364,0.1750064343214035,-0.29433494806289673
1780625920461467000,9.570466796875,0.09673532843589783,-0.13029594719409943,-0.3755808174610138
1780625920471462000,9.5804619140625,0.1785700023174286,-0.3324897885322571,-0.4362020790576935
1780625920481457000,9.590456787109375,0.2606281340122223,-0.32576239109039307,-0.3543567359447479
1780625920491452000,9.600451904296875,0.34631213545799255,-0.15714967250823975,-0.17618142068386078
1780625920501448000,9.610447998046874,0.40439966320991516,0.1418900191783905,0.01347373053431511
1780625920511443000,9.62044287109375,0.4076250195503235,0.36721929907798767,0.20910128951072693
1780625920521438000,9.63043798828125,0.3887040615081787,0.41882121562957764,0.32160520553588867
1780625920531433000,9.640432861328126,0.41386720538139343,0.2562757134437561,0.30118781328201294
1780625920541428000,9.650427978515625,0.5025659203529358,0.053692787885665894,0.1858936995267868
1780625920551422700,9.660422607421875,0.6002618670463562,-0.11435560137033463,0.0337744764983654
1780625920561417700,9.670417724609376,0.6464362740516663,-0.36914047598838806,-0.14053474366664886
1780625920571412700,9.680412841796874,0.6243179440498352,-0.6434282660484314,-0.2986024022102356
1780625920581407700,9.69040771484375,0.559790313243866,-0.6409810781478882,-0.2698170840740204
1780625920591403000,9.700403076171876,0.5048458576202393,-0.14347274601459503,0.06786719709634781
1780625920601398000,9.71039794921875,0.4608443081378937,0.45021697878837585,0.3870584964752197
1780625920611393000,9.72039306640625,0.4157889485359192,0.5475749373435974,0.4203791618347168
1780625920621388000,9.730387939453125,0.41101205348968506,0.21191518008708954,0.2888283431529999
1780625920631383000,9.740383056640624,0.4547336995601654,-0.2587583363056183,0.17810475826263428
1780625920641378800,9.75037890625,0.563976526260376,-0.47546958923339844,0.14711540937423706
1780625920651373800,9.760373779296875,0.8433876633644104,-0.31709912419319153,0.2180955857038498
1780625920661368800,9.770368896484374,1.348504662513733,-0.13875575363636017,0.3484639823436737
1780625920671363800,9.78036376953125,1.8983176946640015,-0.3327830135822296,0.3029308319091797
1780625920681358800,9.79035888671875,2.018324613571167,-0.5571567416191101,0.046359509229660034
1780625920691353900,9.800353759765626,1.513171672821045,-0.11587227135896683,0.015623700805008411
1780625920701348900,9.810348876953125,0.8226328492164612,0.8971494436264038,0.3789435923099518
1780625920711344000,9.82034423828125,0.3493393659591675,1.210486888885498,0.7466006875038147
1780625920721339000,9.8303388671875,0.25148096680641174,0.5175179839134216,0.8005944490432739
1780625920731334000,9.840333984375,0.43293437361717224,-0.2517930865287781,0.661617636680603
1780625920741329000,9.850328857421875,0.5955190062522888,-0.5700067281723022,0.4511716961860657
1780625920751323000,9.860322998046875,0.58256596326828,-0.5050588846206665,0.3630112111568451
1780625920761318100,9.870318115234374,0.48915770649909973,-0.2288190722465515,0.5188716650009155
1780625920771313200,9.880313232421875,0.40522632002830505,0.013455354608595371,0.7823373675346375
1780625920781308200,9.89030810546875,0.3616546094417572,0.09064947813749313,0.9232111573219299
1780625920791304200,9.90030419921875,0.3448556661605835,0.008265652693808079,0.8947927951812744
1780625920801299200,9.91029931640625,0.31809407472610474,-0.1718769520521164,0.7787346839904785
1780625920811294000,9.9202939453125,0.2994208037853241,-0.3719376027584076,0.6490964889526367
1780625920821289000,9.9302890625,0.2982623279094696,-0.4502401351928711,0.5922452211380005
1780625920831284000,9.940283935546875,0.2962404489517212,-0.35841938853263855,0.6275951862335205
1780625920841279000,9.950279052734375,0.2845422625541687,-0.14732474088668823,0.6803894639015198
1780625920851274000,9.96027392578125,0.2628262937068939,-0.006728210020810366,0.6978573799133301
1780625920861269000,9.97026904296875,0.227476567029953,-0.006106095854192972,0.6958315372467041
1780625920871264300,9.98026416015625,0.19721001386642456,-0.078864187002182,0.6584375500679016
1780625920881259300,9.99025927734375,0.20656809210777283,-0.15492753684520721,0.6187732219696045
1780625920891254300,10.000254150390624,0.24079769849777222,-0.20201647281646729,0.579962432384491
1780625920901249300,10.010249267578125,0.2987227737903595,-0.2875595986843109,0.541542112827301
1780625920911244000,10.020244140625,0.3667662739753723,-0.3756612539291382,0.5787895917892456
1780625920921239000,10.030239013671874,0.4000973403453827,-0.2879910469055176,0.7084551453590393
1780625920931235000,10.040235107421875,0.37598055601119995,-0.06966456770896912,0.8453671932220459
1780625920941230000,10.05022998046875,0.3386526107788086,0.09741576761007309,0.9070503115653992
1780625920951225000,10.06022509765625,0.3265314996242523,0.16045944392681122,0.8964112401008606
1780625920961220000,10.07022021484375,0.3293163776397705,0.15427692234516144,0.8486908674240112
1780625920971215000,10.080215087890625,0.3444327414035797,0.11090041697025299,0.7987533807754517
1780625920981210000,10.090210205078124,0.370110422372818,0.03982597589492798,0.7428928017616272
1780625920991205000,10.100205078125,0.4028899371623993,-0.025379924103617668,0.6589744687080383
1780625921001200000,10.1102001953125,0.4373150169849396,-0.02953738532960415,0.5406877398490906
1780625921011195100,10.120195068359376,0.4690476357936859,0.049491386860609055,0.35469070076942444
1780625921021190100,10.130190185546875,0.4742477238178253,0.0963054969906807,0.042454250156879425
1780625921031185200,10.14018505859375,0.4413696825504303,0.014005031436681747,-0.34209901094436646
1780625921041180200,10.15018017578125,0.3458964228630066,-0.11789281666278839,-0.6761651635169983
1780625921051175200,10.160175048828124,0.0979798287153244,-0.028811674565076828,-1.006218433380127
1780625921061170200,10.170170166015625,-0.17859211564064026,0.44702330231666565,-1.146169900894165
1780625921071165200,10.180165283203126,-0.3508123457431793,1.0330511331558228,-1.1293922662734985
1780625921081161000,10.190160888671874,-0.5046615600585938,1.6030017137527466,-1.4133597612380981
1780625921091156000,10.200156005859375,-0.7431923747062683,2.182337522506714,-2.1449167728424072
1780625921101151000,10.21015087890625,-1.0270949602127075,3.0662686824798584,-3.037879228591919
1780625921111146200,10.220146240234374,-1.214011549949646,4.143184185028076,-3.551780939102173
1780625921121141200,10.230141357421875,-1.1734728813171387,4.7083024978637695,-3.3417627811431885
1780625921131136300,10.24013623046875,-0.9579004049301147,4.286334037780762,-2.5392651557922363
1780625921141131300,10.25013134765625,-0.7645493149757385,3.053314447402954,-1.5964492559432983
1780625921151126300,10.260126220703125,-0.7107774615287781,1.6021755933761597,-0.8568646311759949
1780625921161121000,10.27012109375,-0.7933216094970703,0.437916100025177,-0.4953535497188568
1780625921171116000,10.280115966796876,-1.0359174013137817,0.13687768578529358,-0.8549942970275879
1780625921181111000,10.290111083984375,-1.325323462486267,0.8690744042396545,-1.8455685377120972
1780625921191106000,10.30010595703125,-1.418581247329712,1.8719439506530762,-2.766942262649536
1780625921201101000,10.31010107421875,-1.320310354232788,2.1880457401275635,-3.027369976043701
1780625921211096000,10.320095947265624,-1.1938596963882446,1.4632594585418701,-2.550126314163208
1780625921221092000,10.330092041015625,-1.1560055017471313,0.7770997285842896,-1.782082438468933
1780625921231087000,10.340087158203126,-1.298514723777771,0.999338686466217,-1.2415350675582886
1780625921241082000,10.35008203125,-1.6377085447311401,1.974424958229065,-1.155809760093689
1780625921251077000,10.3600771484375,-2.0771446228027344,2.8113510608673096,-1.3560036420822144
1780625921261072100,10.370072021484376,-2.465109348297119,2.8392844200134277,-1.51222562789917
1780625921271067100,10.380067138671874,-2.6882247924804688,2.150451898574829,-1.504891276359558
1780625921281062100,10.390062255859375,-2.76395320892334,1.4362406730651855,-1.519153118133545
1780625921291057200,10.40005712890625,-2.793428421020508,1.2258373498916626,-1.7738040685653687
1780625921301052200,10.41005224609375,-2.808521032333374,1.1542606353759766,-2.13893723487854
1780625921311047200,10.420047119140625,-2.860255718231201,0.70376056432724,-2.4158575534820557
1780625921321042200,10.430042236328125,-2.9787862300872803,0.19779004156589508,-2.5484960079193115
1780625921331037000,10.440036865234376,-3.0860397815704346,0.010420150123536587,-2.467006206512451
1780625921341032000,10.450031982421875,-3.0962393283843994,0.08444777131080627,-2.096353769302368
1780625921351027000,10.46002685546875,-2.9710519313812256,0.247501403093338,-1.6426883935928345
1780625921361022000,10.47002197265625,-2.7627604007720947,0.27730831503868103,-1.3727290630340576
1780625921371018200,10.480018310546875,-2.511871099472046,0.01335548609495163,-1.2919343709945679
1780625921381013200,10.49001318359375,-2.292666435241699,-0.4765646755695343,-1.2405155897140503
1780625921391008300,10.50000830078125,-2.1276650428771973,-0.883089542388916,-1.180991530418396
1780625921401003000,10.5100029296875,-1.9738249778747559,-1.009351134300232,-1.1312650442123413
1780625921410998000,10.519998046875,-1.8264334201812744,-0.9445755481719971,-1.080714464187622
1780625921420993000,10.529992919921876,-1.6932601928710938,-0.7825435400009155,-1.0197662115097046
1780625921430988000,10.539988037109374,-1.5351645946502686,-0.6676246523857117,-0.8833953142166138
1780625921440983000,10.549983154296875,-1.3873231410980225,-0.6624999046325684,-0.5436510443687439
1780625921450978000,10.55997802734375,-1.3330780267715454,-0.6668070554733276,0.005852030124515295
1780625921460973000,10.56997314453125,-1.3715753555297852,-0.49238118529319763,0.547008216381073
1780625921470968000,10.579968017578125,-1.4182217121124268,-0.06690366566181183,0.9324523210525513
1780625921480963000,10.589963134765625,-1.412817120552063,0.34784772992134094,1.0685094594955444
1780625921490958300,10.599958251953124,-1.2510795593261719,0.2674764394760132,1.2271603345870972
1780625921500953000,10.609953125,-0.9608586430549622,-0.04747084528207779,1.5317610502243042
1780625921510949000,10.61994921875,-0.710406482219696,0.08953813463449478,1.4204922914505005
1780625921520944000,10.629944091796874,-0.38996800780296326,-0.015327290631830692,0.7320001721382141
1780625921530939100,10.639939208984375,-0.10384277254343033,-0.03982038423418999,0.5543569326400757
1780625921540934100,10.64993408203125,0.2332383096218109,0.5741626024246216,1.0707119703292847
1780625921550929200,10.65992919921875,0.3298543393611908,0.7757761478424072,1.4234575033187866
1780625921560924200,10.669924072265625,-0.08615672588348389,1.4378858804702759,1.3439562320709229
1780625921570919000,10.6799189453125,-0.6716156601905823,1.3215467929840088,1.5360276699066162
1780625921580914000,10.689913818359376,-1.3350229263305664,1.0861380100250244,1.523648738861084
1780625921590909000,10.699908935546874,-1.7731720209121704,1.2049996852874756,1.1807491779327393
1780625921600904000,10.709904052734375,-1.7454333305358887,0.5506394505500793,1.1488133668899536
1780625921610899200,10.719899169921876,-1.5633504390716553,0.3181998133659363,0.9197503924369812
1780625921620894200,10.729894287109374,-1.3359813690185547,0.212384432554245,0.6899254322052002
1780625921630889200,10.73988916015625,-1.0860029458999634,0.03690502047538757,0.5681702494621277
1780625921640884200,10.74988427734375,-0.936583936214447,0.03928269073367119,0.42589113116264343
1780625921650879200,10.759879150390624,-0.9056164622306824,0.059854280203580856,0.31659606099128723
1780625921660875000,10.769875,-0.9459747672080994,-0.004571315832436085,0.2737010419368744
1780625921670870000,10.7798701171875,-0.9852724075317383,0.03683045133948326,0.17883259057998657
1780625921680865000,10.789864990234374,-0.9444450736045837,-0.0029137644451111555,0.03624482452869415
1780625921690860000,10.799860107421875,-0.8583674430847168,-0.1798645704984665,-0.14172330498695374
1780625921700855000,10.80985498046875,-0.7875169515609741,-0.2547459900379181,-0.3603808283805847
1780625921710850000,10.81985009765625,-0.7208338379859924,-0.2690003216266632,-0.4863075911998749
1780625921720845000,10.829844970703125,-0.7065462470054626,-0.258297324180603,-0.5038032531738281
1780625921730840300,10.83984033203125,-0.686053991317749,-0.3552246689796448,-0.3893575966358185
1780625921740835000,10.8498349609375,-0.70442795753479,-0.25638917088508606,-0.26211443543434143
1780625921750830000,10.859830078125,-0.7266570925712585,-0.15011706948280334,-0.16141286492347717
1780625921760825000,10.8698251953125,-0.6802672147750854,-0.11491061002016068,-0.10925431549549103
1780625921770820400,10.8798203125,-0.6487383246421814,-0.02311703749001026,-0.17134858667850494
1780625921780815400,10.8898154296875,-0.5067042112350464,-0.20234698057174683,-0.19946837425231934
1780625921790810400,10.899810302734375,-0.3235780596733093,-0.31403541564941406,-0.2351033240556717
1780625921800805400,10.909805419921875,-0.17967309057712555,-0.3460990786552429,-0.26181936264038086
1780625921810801200,10.91980126953125,-0.09317362308502197,-0.389573335647583,-0.2951035499572754
1780625921820796200,10.929796142578125,-0.08175931125879288,-0.338916540145874,-0.21920771896839142
1780625921830791200,10.939791259765625,-0.022297315299510956,-0.12241486459970474,-0.01065131276845932
1780625921840786200,10.9497861328125,0.016956346109509468,0.19955384731292725,-0.0052296495996415615
1780625921850781200,10.95978125,0.252431184053421,0.08789204061031342,-0.06367617845535278
1780625921860776200,10.969776123046875,0.5166971683502197,-0.19124719500541687,-0.001660480978898704
1780625921870771200,10.979771240234374,0.5294057726860046,-0.014036190696060658,0.04560849815607071
1780625921880766200,10.98976611328125,0.31508898735046387,0.18479861319065094,0.2946966290473938
1780625921890761500,10.999761474609375,-0.09592653065919876,0.3656237721443176,0.6081008911132812
1780625921900756500,11.009756591796876,-0.6228582262992859,0.8597334027290344,0.6517753601074219
1780625921910751200,11.019751220703125,-1.046197533607483,1.2710988521575928,0.5712962746620178
1780625921920746200,11.029746337890625,-1.4597723484039307,1.4343465566635132,0.6336043477058411
1780625921930741200,11.0397412109375,-1.870327115058899,1.7380162477493286,0.5709643959999084
1780625921940736300,11.049736328125,-2.184478998184204,1.926160216331482,0.3412710428237915
1780625921950731300,11.059731201171875,-2.383272171020508,1.814131259918213,0.12569987773895264
1780625921960727300,11.069727294921876,-2.4991958141326904,1.4630634784698486,-0.1519370675086975
1780625921970722300,11.079722412109374,-2.5957345962524414,0.805225133895874,-0.5182969570159912
1780625921980717000,11.089717041015625,-2.688979148864746,0.07124488800764084,-0.8463621735572815
1780625921990712000,11.099712158203126,-2.7363219261169434,-0.4043770432472229,-1.063767433166504
1780625922000707000,11.10970703125,-2.602519989013672,-0.827876627445221,-1.1561027765274048
1780625922010702300,11.119702392578125,-2.181748867034912,-1.439049482345581,-1.1282529830932617
1780625922020697300,11.129697265625,-1.6404744386672974,-1.769829511642456,-1.2302978038787842
1780625922030692400,11.1396923828125,-1.1907060146331787,-1.6636106967926025,-1.3276697397232056
1780625922040687400,11.149687255859375,-1.0184985399246216,-1.3502277135849,-1.0960936546325684
1780625922050682400,11.159682373046875,-1.081546425819397,-0.7984066605567932,-0.6907443404197693
1780625922060677400,11.169677490234376,-1.2043871879577637,-0.1083507090806961,-0.5317877531051636
1780625922070672400,11.17967236328125,-1.3144334554672241,0.22276116907596588,-0.5645903944969177
1780625922080667100,11.189667236328125,-1.4195586442947388,0.07127870619297028,-0.5135480165481567
1780625922090662100,11.199662109375,-1.5897822380065918,-0.1807253062725067,-0.4013189375400543
1780625922100657200,11.2096572265625,-1.7430024147033691,-0.2662274241447449,-0.3446947932243347
1780625922110652200,11.219652099609375,-1.756763219833374,-0.2657136917114258,-0.4340105652809143
1780625922120648400,11.2296484375,-1.7113568782806396,-0.2153482586145401,-0.5630713701248169
1780625922130643500,11.2396435546875,-1.7149851322174072,-0.24772857129573822,-0.4755670726299286
1780625922140638500,11.249638427734375,-1.718265414237976,-0.11671729385852814,-0.4205719828605652
1780625922150633200,11.25963330078125,-1.7337415218353271,0.007829959504306316,-0.4603481590747833
1780625922160628200,11.269628173828124,-1.6953113079071045,-0.013279586099088192,-0.5999457240104675
1780625922170623200,11.279623291015625,-1.6236907243728638,-0.3630373179912567,-0.6545860767364502
1780625922180618200,11.2896181640625,-1.589596152305603,-0.5781919956207275,-0.663719117641449
1780625922190613200,11.29961328125,-1.6274385452270508,-0.3823433816432953,-0.6825774908065796
1780625922200608300,11.309608154296875,-1.616804599761963,-0.16877064108848572,-0.702643632888794
1780625922210603300,11.319603271484375,-1.4551903009414673,-0.2904869616031647,-0.835347056388855
1780625922220598300,11.329598388671876,-1.347135305404663,-0.7394439578056335,-0.8378453850746155
1780625922230593300,11.33959326171875,-1.3749290704727173,-0.9207969903945923,-0.7831270098686218
1780625922240588300,11.34958837890625,-1.443611741065979,-0.7326579689979553,-0.6433265209197998
1780625922250583300,11.359583251953126,-1.382051944732666,-0.4994577467441559,-0.510026216506958
1780625922260578000,11.369578125,-1.2224061489105225,-0.4033442735671997,-0.4095161557197571
1780625922270574300,11.37957421875,-1.010485291481018,-0.42828211188316345,-0.25014540553092957
1780625922280569300,11.3895693359375,-0.7905442118644714,-0.41369304060935974,-0.0006319681415334344
1780625922290564400,11.399564453125,-0.6315039396286011,-0.3076297342777252,0.12974174320697784
1780625922300559400,11.409559326171875,-0.5634657740592957,-0.3042280673980713,0.23570680618286133
1780625922310554400,11.419554443359376,-0.559850811958313,-0.26082679629325867,0.4313516616821289
1780625922320549400,11.42954931640625,-0.4956022799015045,-0.1536998152732849,0.59004145860672
1780625922330544000,11.439544189453125,-0.2888837456703186,-0.05379398912191391,0.7630608677864075
1780625922340539100,11.4495390625,-0.11424188315868378,0.03707945719361305,0.9256165027618408
1780625922350534100,11.4595341796875,0.04278980940580368,0.13305658102035522,0.9155769348144531
1780625922360529200,11.469529052734375,0.22462192177772522,0.14763100445270538,0.7559297680854797
1780625922370524200,11.479524169921875,0.31286177039146423,0.26050853729248047,0.690985918045044
1780625922380519200,11.489519287109376,0.26947593688964844,0.5523561239242554,0.8236006498336792
1780625922390514400,11.499514404296875,0.08699508756399155,0.8754510879516602,0.9060838222503662
1780625922400509400,11.509509521484375,-0.21395330131053925,1.2376290559768677,0.6889483332633972
1780625922410504400,11.51950439453125,-0.4951325058937073,1.480096459388733,0.3406217694282532
1780625922420500200,11.529500244140625,-0.7363597750663757,1.361868143081665,0.11830773204565048
1780625922430495200,11.5394951171875,-0.9262381196022034,1.1477938890457153,-0.0167976226657629
1780625922440490200,11.549490234375,-1.1405285596847534,0.95473313331604,-0.12039245665073395
1780625922450485200,11.5594853515625,-1.3785901069641113,0.8047710657119751,-0.19365336000919342
1780625922460480300,11.569480224609375,-1.5105284452438354,0.7191086411476135,-0.2764403820037842
1780625922470475300,11.579475341796876,-1.4071035385131836,0.7105007767677307,-0.47841396927833557
1780625922480470300,11.58947021484375,-1.1280697584152222,0.651466429233551,-0.7124648094177246
1780625922490465300,11.59946533203125,-0.9108301401138306,0.3305180072784424,-0.8401389122009277
1780625922500460300,11.609460205078125,-0.8594614863395691,0.12529321014881134,-0.8107448220252991
1780625922510455300,11.619455322265624,-0.8699449896812439,0.2966740131378174,-0.7087606191635132
1780625922520450300,11.6294501953125,-0.7452928423881531,0.4659842252731323,-0.7183613181114197
1780625922530445300,11.6394453125,-0.43483027815818787,0.26564446091651917,-0.7031048536300659
1780625922540440300,11.6494404296875,-0.14912477135658264,0.08913014084100723,-0.6144629120826721
1780625922550435300,11.659435302734375,0.015083345584571362,0.2888163626194,-0.5321190357208252
1780625922560430300,11.669430419921875,-0.018635204061865807,0.669098973274231,-0.4281257688999176
1780625922570425300,11.67942529296875,-0.2501145005226135,0.8182927370071411,-0.4350987374782562
1780625922580420400,11.68942041015625,-0.4648025631904602,0.5854296684265137,-0.5209071040153503
1780625922590416100,11.699416015625,-0.471131294965744,0.25832822918891907,-0.5348075032234192
1780625922600411100,11.7094111328125,-0.19267144799232483,0.14822089672088623,-0.2334984987974167
1780625922610406100,11.71940625,0.19907182455062866,0.4532865285873413,-0.026516029611229897
1780625922620401400,11.7294013671875,0.40577971935272217,0.9537256360054016,-0.12415603548288345
1780625922630396400,11.739396484375,0.3766191899776459,1.241960048675537,-0.10955365747213364
1780625922640391400,11.749391357421874,0.2022164762020111,1.3601354360580444,-0.14312440156936646
1780625922650386400,11.759386474609375,-0.1466379165649414,1.3013813495635986,-0.34603437781333923
1780625922660381400,11.76938134765625,-0.4906567931175232,1.0841819047927856,-0.569199800491333
1780625922670376200,11.779376220703124,-0.6277241110801697,0.7973227500915527,-0.6338152885437012
1780625922680371200,11.78937109375,-0.5256637930870056,0.716234028339386,-0.6752215623855591
1780625922690366200,11.7993662109375,-0.2954135239124298,0.8597093820571899,-0.636212944984436
1780625922700361200,11.809361328125,-0.08962255716323853,1.3390430212020874,-0.6154679656028748
1780625922710356200,11.819356201171875,-0.07737468183040619,1.6898001432418823,-0.8059939742088318
1780625922720351200,11.829351318359375,-0.3093447983264923,1.510930061340332,-0.9794248938560486
1780625922730346200,11.83934619140625,-0.607611358165741,1.187408208847046,-1.1241719722747803
1780625922740342300,11.84934228515625,-0.7055121064186096,0.6350075602531433,-1.211673617362976
1780625922750337300,11.859337158203125,-0.5742465257644653,0.17507541179656982,-1.2425891160964966
1780625922760332300,11.869332275390626,-0.32872274518013,0.10886576026678085,-1.2676417827606201
1780625922770327300,11.879327392578125,-0.14591112732887268,0.28964751958847046,-1.2012605667114258
1780625922780322300,11.889322265625,-0.12317492812871933,0.45439067482948303,-1.0412086248397827
1780625922790317300,11.8993173828125,-0.16916106641292572,0.5515864491462708,-0.9772070050239563
1780625922800312300,11.909312255859374,-0.21011701226234436,0.512717068195343,-1.0084013938903809
1780625922810307600,11.9193076171875,-0.2407020926475525,0.3659215271472931,-1.0091673135757446
1780625922820302600,11.929302490234376,-0.20241515338420868,0.1311899721622467,-1.0007141828536987
1780625922830297300,11.93929736328125,-0.14045244455337524,-0.18126219511032104,-0.9559123516082764
1780625922840292400,11.949292236328125,-0.12991884350776672,-0.20098130404949188,-0.8328152298927307
1780625922850287400,11.959287353515625,-0.164266437292099,0.1618746519088745,-0.6931507587432861
1780625922860282400,11.969282470703124,-0.19387440383434296,0.5680480003356934,-0.5356716513633728
1780625922870277400,11.97927734375,-0.21031275391578674,0.8641933798789978,-0.4215235412120819
1780625922880272400,11.9892724609375,-0.2033643126487732,0.8388952016830444,-0.4140040874481201
1780625922890267400,11.999267333984376,-0.18183238804340363,0.4805471897125244,-0.3991287350654602
1780625922900263400,12.009263427734375,-0.17408257722854614,0.18833768367767334,-0.3434183597564697
1780625922910258200,12.019258056640625,-0.1995226889848709,0.10794457793235779,-0.3623521029949188
1780625922920253200,12.029253173828126,-0.26945117115974426,0.15374402701854706,-0.3535071909427643
1780625922930248400,12.03924853515625,-0.3195361793041229,0.33839428424835205,-0.2763455808162689
1780625922940243500,12.049243408203125,-0.3307845890522003,0.44134944677352905,-0.27173298597335815
1780625922950238500,12.059238525390626,-0.34380635619163513,0.43955472111701965,-0.2536546289920807
1780625922960233500,12.0692333984375,-0.305442214012146,0.5268246531486511,-0.18776243925094604
1780625922970228500,12.079228515625,-0.26860880851745605,0.4777466058731079,-0.1764136552810669
1780625922980223500,12.089223388671876,-0.2935967445373535,0.4382559061050415,-0.11789654195308685
1780625922990218500,12.099218505859374,-0.3967612087726593,0.5842770338058472,-0.014289723709225655
1780625923000213500,12.109213623046875,-0.5070184469223022,0.6979748606681824,0.046187203377485275
1780625923010208300,12.119208251953125,-0.571510374546051,0.6248947381973267,0.03750556334853172
1780625923020203300,12.129203369140624,-0.5953879952430725,0.5848735570907593,0.01028619334101677
1780625923030198300,12.1391982421875,-0.6662419438362122,0.6454546451568604,0.07851318269968033
1780625923040193300,12.149193359375,-0.7753984928131104,0.743659257888794,0.16548456251621246
1780625923050188300,12.159188232421876,-0.8663095235824585,0.9354662299156189,0.20408229529857635
1780625923060183300,12.169183349609375,-0.8689596056938171,1.0685803890228271,0.24738316237926483
1780625923070179600,12.1791796875,-0.8341464996337891,1.0385448932647705,0.34781068563461304
1780625923080174300,12.18917431640625,-0.8496317267417908,0.7702913880348206,0.3995436728000641
1780625923090169300,12.19916943359375,-0.9366558790206909,0.6141603589057922,0.42225778102874756
1780625923100164400,12.209164306640625,-0.9874055981636047,0.7539600729942322,0.4298347234725952
1780625923110159400,12.219159423828126,-0.969086766242981,0.860673189163208,0.36769917607307434
1780625923120154400,12.229154296875,-0.9147329926490784,0.809645414352417,0.30344802141189575
1780625923130149400,12.2391494140625,-0.8474122881889343,0.6817854642868042,0.2705976665019989
1780625923140144400,12.249144287109376,-0.7660620212554932,0.6233818531036377,0.21340042352676392
1780625923150139400,12.259139404296874,-0.6602266430854797,0.6360794901847839,0.22906087338924408
1780625923160134400,12.269134521484375,-0.531915545463562,0.6585003733634949,0.2735556364059448
1780625923170129400,12.27912939453125,-0.4179762005805969,0.7125234007835388,0.2867492139339447
1780625923180124200,12.289124267578124,-0.34138023853302,0.7666394114494324,0.2499038428068161
1780625923190119400,12.299119384765625,-0.2787538766860962,0.7447646856307983,0.07681621611118317
1780625923200114400,12.309114501953125,-0.17656758427619934,0.709364652633667,-0.0805390477180481
1780625923210109400,12.319109375,-0.10255619883537292,0.5628593564033508,-0.16041870415210724
1780625923220104400,12.3291044921875,-0.0794018805027008,0.4250261187553406,-0.1828417181968689
1780625923230100500,12.3391005859375,-0.052924469113349915,0.49128371477127075,-0.24409416317939758
1780625923240095500,12.349095458984374,0.02918211929500103,0.5449085831642151,-0.33148473501205444
1780625923250090200,12.35909033203125,0.12720881402492523,0.4784392714500427,-0.4096125364303589
1780625923260085200,12.369085205078125,0.1585979014635086,0.4220689535140991,-0.4832436144351959
1780625923270080300,12.379080322265626,0.12192749977111816,0.4427308142185211,-0.4677368402481079
1780625923280075300,12.3890751953125,0.06263674795627594,0.36555400490760803,-0.405120849609375
1780625923290070300,12.3990703125,-0.010690194554626942,0.23072189092636108,-0.4011061489582062
1780625923300065300,12.409065185546876,-0.07580528408288956,0.22141920030117035,-0.3875485360622406
1780625923310060500,12.419060546875,-0.15067605674266815,0.26425907015800476,-0.3578289747238159
1780625923320055600,12.4290556640625,-0.2264975905418396,0.38646435737609863,-0.2856690287590027
