time,seconds_elapsed,z,y,x
1780626534504410400,0.054410400390625,1.6601263378620146,-1.109680320778489,-1.447084183423221
1780626534514406000,0.064406005859375,2.004392779752612,-0.85825699775815,-1.347645173419267
1780626534524401000,0.07440087890625,1.4006278449356555,1.1731085445940495,-0.20921594721414147
1780626534534396000,0.08439599609375,-0.12661504009068011,2.4609458766520023,2.1952318702116607
1780626534544391000,0.094390869140625,-1.5360165585905312,3.5233041820243,3.7651127044811843
1780626534554386000,0.104385986328125,-2.1711831783652302,2.4009853289470073,3.65878729596436
1780626534564381000,0.114380859375,-0.5255179120540618,0.2796989849120378,1.64681911252141
1780626534574376000,0.1243759765625,1.2891209421277046,-0.33597850601673124,-0.7145734070319681
1780626534584371200,0.13437109375,1.382760179811716,-1.4649804901197552,-1.8569778204783796
1780626534594366000,0.144365966796875,1.180981469926238,-1.5298805400535462,-1.730710570912063
1780626534604361000,0.15436083984375,0.19792904872000217,-1.6812594345226883,-2.2525343046233055
1780626534614356000,0.16435595703125,-0.6782610806137322,-0.4275926676139235,-2.291771505512297
1780626534624351000,0.17435107421875,-0.8592425016641616,1.255273617583513,-2.349129177242517
1780626534634346000,0.184345947265625,-1.6363456493020057,2.276151619315147,-2.0355637246944007
1780626534644341000,0.194341064453125,-2.613201553955674,1.6316849640145896,-1.3417714590802787
1780626534654336000,0.2043359375,-3.1723347353637217,0.9702458388641476,-1.282059333178401
1780626534664331000,0.2143310546875,-1.9136720598638057,-0.9041153703525662,0.000244348416198045
1780626534674326000,0.224325927734375,0.4955833770394325,-1.3279609603926539,-1.5570625614896416
1780626534684321000,0.234321044921875,3.0734248638004065,-2.495839787639677,-2.8900051096871495
1780626534694316000,0.24431591796875,3.8969758743584153,-3.562897649005055,-3.289508285631239
1780626534704310800,0.254310791015625,0.20952304040193556,-2.7047765525862575,-1.8876010684095321
1780626534714305800,0.264305908203125,-0.6744371384114026,0.23614012143164873,-0.34522334075663236
1780626534724300800,0.27430078125,0.7934399499326944,1.1950482814624905,0.6508702387325466
1780626534734296000,0.284296142578125,1.1684966668844223,-0.3338505540773272,1.4547691849678754
1780626534744291000,0.294291015625,1.2523714664012193,-1.0960817112758756,1.7456065267488359
1780626534754286000,0.3042861328125,0.813541657719016,-0.2767228917106986,2.0807183329336345
1780626534764281000,0.314281005859375,0.19684476061463355,0.08756605525016783,2.2156905747421085
1780626534774276000,0.324276123046875,0.12141279527246951,-0.3485308213368058,-0.31814317225981503
1780626534784271000,0.33427099609375,0.15235446150302887,-0.7165101472482085,-1.77348544440791
1780626534794266000,0.34426611328125,0.6282704305201768,-1.008688674505055,-1.908598702122271
1780626534804262000,0.354261962890625,0.9162404001712798,-1.096200076958537,-1.5924430869504809
1780626534814257000,0.3642568359375,0.5365735590755939,-0.6563187133967876,-0.7072931138306856
1780626534824252000,0.374251953125,0.17413666972219943,-0.49642421177774665,-0.6732343384929
1780626534834247000,0.384246826171875,0.4454746535241604,-0.42382922342717644,-0.7167057428855449
1780626534844242000,0.394241943359375,0.8205044824689626,2.2133599398374555,0.8075440247394144
1780626534854237200,0.4042373046875,2.2675158929169177,2.17582778930068,0.05319920947705395
1780626534864232000,0.41423193359375,3.144790310356021,1.0265487408444285,-0.3663665934851393
1780626534874227000,0.42422705078125,3.238370511329174,1.3705474717095494,-0.7245332947060465
1780626534884222000,0.434221923828125,1.8184674725592136,0.5818678680464625,-1.6124349046215414
1780626534894217000,0.444217041015625,0.25434943960011,-0.8679735051304102,-1.7766896472766995
1780626534904212000,0.4542119140625,-0.5543845255762339,-1.5699056764498351,-2.103392375425994
1780626534914207000,0.46420703125,-1.9382593886315822,-3.2742525565713643,-3.661866557279229
1780626534924202000,0.474201904296875,-2.6952795331835744,-3.3007448421776293,-3.1715979455217718
1780626534934197000,0.484197021484375,-2.0959540421187874,-1.6104501605451107,-1.9696835776820778
1780626534944192000,0.49419189453125,-1.0308996295303106,-0.04983604405373335,-1.6831489015311
1780626534954187000,0.50418701171875,1.132246957373619,0.8137240285485983,-1.8221362241998313
1780626534964182000,0.51418212890625,2.6135060898602007,1.5914900240093468,-1.374858320645988
1780626534974176800,0.5241767578125,3.162943806684017,2.2027257330983874,-0.9873330942001193
1780626534984171800,0.534171875,3.4552842465043065,1.822297552241385,-0.9896033041544258
1780626534994167000,0.5441669921875,3.0918378878474235,1.045906644526124,-1.4923046965055167
1780626535004162000,0.554162109375,2.4394302104145287,0.7329483640909195,-1.2980688032150267
1780626535014157000,0.564156982421875,2.0637924787044524,0.391832202924788,-0.3401120986901223
1780626535024152000,0.574152099609375,2.0653508140623567,0.726686381086707,0.8050433670300989
1780626535034147000,0.58414697265625,2.9322879618823525,1.6562082876354456,1.3057006132677196
1780626535044142000,0.59414208984375,3.861577228718996,2.0001807150155306,1.0471687734164297
1780626535054137000,0.60413720703125,4.2491883068174126,1.7989777591913938,0.5284872832536697
1780626535064132000,0.614132080078125,3.967244757848978,1.5439859300345182,0.21727146257162092
1780626535074126800,0.624126953125,3.3628830261826512,1.3624497977107763,-0.16989099497646093
1780626535084121900,0.634121826171875,2.320078439325094,1.5964461851119993,0.011296177779138088
1780626535094116900,0.644116943359375,1.6629647761583328,2.1043167967945338,0.7478557181045412
1780626535104111900,0.65411181640625,1.7890823881208895,2.5415192965358493,0.26650106516480443
1780626535114107000,0.66410693359375,2.477935005375743,2.770563029965758,-2.3828175118327137
1780626535124103200,0.674103271484375,3.518591474288702,1.8488146800279617,-3.0671546974897383
1780626535134098200,0.68409814453125,4.625024191448092,0.22526129228174685,-1.3740791529670358
1780626535144093000,0.694093017578125,4.342357004380226,-0.5679208834975957,3.760116795890033
1780626535154088000,0.704087890625,3.3715175835371016,1.3427698224678635,2.7568510232165453
1780626535164083000,0.7140830078125,1.9157628946632146,3.2770643991217017,1.2304197468340397
1780626535174078000,0.724077880859375,2.3718933822363613,4.247800067329407,2.2602643143534658
1780626535184073000,0.734072998046875,3.0705344030559063,4.3561511364549395,2.254435462069511
1780626535194068000,0.74406787109375,2.428597266232967,2.8243077718958256,0.9022428544789552
1780626535204063000,0.75406298828125,0.9797457808762788,1.1373168079838156,-0.1788742196381092
1780626535214058000,0.76405810546875,-3.2014474326014515,0.0979378116607666,-1.4200421549797058
1780626535224053000,0.774052978515625,-3.5612118878751993,1.5346411785840988,-1.4104466436386107
1780626535234048000,0.784048095703125,-2.6292045942515134,3.3390944465771315,0.1497691211849451
1780626535244042800,0.794042724609375,-0.38565234524607656,4.003265627039969,1.1202847169011831
1780626535254037800,0.804037841796875,1.3677221851557493,4.836389937107264,2.8774329206228253
1780626535264033000,0.814032958984375,2.022817494237423,5.449726710128784,3.9083968475610016
1780626535274028000,0.824028076171875,2.0593606337368486,5.824013611751795,3.630851241290569
1780626535284023000,0.83402294921875,1.2031254971951246,5.442327247527241,1.917233551737666
1780626535294018000,0.84401806640625,-0.33108781136572357,4.371284992700815,-0.381733125975728
1780626535304013000,0.854012939453125,-1.3660475299417971,3.8740453728869557,-1.831456133469939
1780626535314008000,0.864008056640625,-2.2153443916529416,3.8719413863450285,-2.416857728600502
1780626535324003000,0.874003173828125,-2.9873510929346083,3.8162095622509717,-2.0447084235280752
1780626535333998000,0.883998046875,-3.4812343880578873,3.660018591324985,-1.7819892149895429
1780626535343992800,0.893992919921875,-2.998168839547038,3.6674756293326616,-2.1241262436360118
1780626535353987800,0.90398779296875,-2.312306928540766,3.570063887372613,-2.881016039806604
1780626535363982800,0.91398291015625,-1.7058932327806948,2.7390660679399965,-3.990543800371885
1780626535373977900,0.923977783203125,-1.4873241316139698,1.4836428127527237,-5.412852146717905
1780626535383972900,0.933972900390625,-2.060009160773456,0.7179860650196671,-6.9278878766000265
1780626535393967900,0.9439677734375,-3.7156343878239393,-0.038407472066581246,-9.17700243590772
1780626535403963100,0.953963134765625,-5.941892387679219,-0.8395899989500641,-12.308867798238992
1780626535413958100,0.963958251953125,-5.9168608222752805,-1.7999305298715829,-14.812299063920975
1780626535423953200,0.973953125,-2.923128503870964,-3.3364252273678776,-14.98813844590783
1780626535433948200,0.9839482421875,-1.9129089665368197,-5.036465642467141,-14.82804725267291
1780626535443943000,0.99394287109375,-2.0279919742658734,-5.873712585422396,-14.57789292667508
1780626535453939000,1.00393896484375,-1.419422269515693,-5.341393761181831,-12.984274658465385
1780626535463934000,1.013933837890625,-0.636442631059885,-3.6510634237140414,-10.45656819870472
1780626535473929000,1.023928955078125,0.3509747073575854,-1.6875947750240563,-7.471240720552205
1780626535483924000,1.033924072265625,0.7096244793877006,-0.2235767001956701,-4.832946226394176
1780626535493919000,1.0439189453125,0.4511626360327005,0.5037497323602438,-3.3424627539664504
1780626535503914000,1.0539140625,0.18702771547734737,0.5074953486293554,-2.0480010353326796
1780626535513909500,1.063909423828125,0.4332388568073511,0.36627719816863535,-0.5098544789761305
1780626535523904500,1.073904541015625,0.9096464087337255,0.544217936348915,1.1162608682125805
1780626535533899500,1.0838994140625,1.1031845290184021,0.34092765285670756,2.3913059387147424
1780626535543894500,1.09389453125,1.1292688183456658,0.027368483918905256,3.4630957970380782
1780626535553889500,1.1038896484375,0.9190233088880777,-0.4207277502804994,4.327147160288691
1780626535563884500,1.113884521484375,0.9262824862360953,-1.1168927363753318,4.870823244845867
1780626535573879600,1.123879638671875,1.2648650372713803,-1.8086311381995677,5.262862076258659
1780626535583874600,1.13387451171875,1.6337342977598308,-2.3499328948408365,5.3986991182029245
1780626535593869600,1.14386962890625,1.7460595312133431,-2.716383111488819,5.2591661443501705
1780626535603864300,1.1538642578125,1.0179947013802826,-3.0985160504370928,4.349486417868733
1780626535613859300,1.163859375,-0.8334346911907196,-3.323528920915723,3.0452327885389328
1780626535623854300,1.173854248046875,-1.7578541600339113,-3.235950590705871,2.863051344048977
1780626535633849600,1.183849609375,-1.452662568077445,-3.5914316695719957,2.7537340602397915
1780626535643844600,1.1938447265625,-1.01601770221889,-3.9270506946265695,2.2135990092903373
1780626535653839600,1.203839599609375,-1.127285097182542,-4.383438956353068,0.6610439883530139
1780626535663834600,1.213834716796875,-2.082590702676773,-4.997928698801994,-1.4190689260333775
1780626535673829600,1.22382958984375,-2.6162217785596846,-4.834347909885644,-2.8216186789423228
1780626535683824600,1.23382470703125,-2.657480840665102,-3.960208283340931,-3.014289368742704
1780626535693819600,1.243819580078125,-2.715965762859583,-3.197651547449827,-2.5643711798131466
1780626535703814400,1.253814453125,-3.6387697593301533,-2.5409768602222202,-2.3125240784227845
1780626535713809400,1.263809326171875,-4.079423276308178,-1.3160235621005296,-2.1691303374886513
1780626535723804400,1.273804443359375,-3.134168378576636,0.2311456741452217,-1.9887766929477453
1780626535733799400,1.28379931640625,-2.523508423548937,1.6388059019356964,-2.2734897066295146
1780626535743794400,1.29379443359375,-2.330559501329064,2.2684674945533274,-4.0052638151198625
1780626535753789400,1.30378955078125,-2.6628531813532113,2.4868840355068444,-6.30133301782608
1780626535763784400,1.313784423828125,-2.900539070922136,2.6803333084642884,-7.732918895605206
1780626535773779700,1.32377978515625,-1.6788135026752948,2.7110820824712514,-7.69926738589406
1780626535783774700,1.333774658203125,0.7273673490881919,2.5595558884859084,-6.139488843443989
1780626535793770500,1.3437705078125,2.350265780057013,2.794808413428068,-4.410744311907887
1780626535803765500,1.353765625,4.3317140298128125,3.3491748188257215,-2.226658397349715
1780626535813760500,1.363760498046875,4.803447744709253,3.2999808720678088,-1.2051432667583226
1780626535823755500,1.373755615234375,3.8147687157928942,2.903752772271633,-1.3257576051294804
1780626535833750500,1.38375048828125,2.4359072969853877,2.525053899425268,-1.8092957395881413
1780626535843745500,1.39374560546875,1.0894618547447026,2.1653964116573334,-2.694500950026512
1780626535853740500,1.403740478515625,-0.2850760017752647,1.6710826161623,-4.024615581321716
1780626535863735600,1.413735595703125,-0.8017395762443542,1.301720311459899,-4.628930551236867
1780626535873730300,1.423730224609375,-1.7645409443214535,1.0884691904455424,-4.986011466515064
1780626535883725300,1.433725341796875,-1.6380138747751711,0.24743279207944868,-4.2874674763292075
1780626535893720600,1.443720458984375,-2.394578676775098,-0.03844809633791446,-3.2163995025396344
1780626535903715600,1.453715576171875,-2.8032766743049025,-0.1990250272631645,-2.9747768580436706
1780626535913710600,1.463710693359375,-2.680056245088577,-1.167186168807745,-3.3081741153955457
1780626535923705600,1.47370556640625,-1.731354129512608,-2.5368337690681217,-3.0793308729737996
1780626535933700600,1.48370068359375,-2.8398320887640116,-4.017513055840134,-3.6882735026896
1780626535943695600,1.493695556640625,-4.776081598877907,-4.568144366362691,-5.068808992189169
1780626535953690600,1.503690673828125,-4.99038193668425,-4.6397108884483576,-5.333159016799926
1780626535963685600,1.513685546875,-4.168279955890775,-4.616106433238089,-4.586317736434936
1780626535973680400,1.523680419921875,-2.798833138899505,-4.042418364515901,-3.3312551312536
1780626535983675400,1.53367529296875,-0.18403437888026236,-2.6087229472368954,-0.6814911485761403
1780626535993670400,1.54367041015625,1.5138707777559757,-1.5095622669070958,2.3397201283842324
1780626536003665400,1.55366552734375,1.279611940026283,-1.922349579577148,3.5225142006903885
1780626536013660400,1.563660400390625,1.4274737662851809,-1.8424717407420277,3.974547774338722
1780626536023655400,1.573655517578125,3.81479501927793,-0.9215636410206556,5.392443564939499
1780626536033650400,1.583650390625,19.35542063270807,1.6188666912347078,10.709888295257091
1780626536043645700,1.593645751953125,21.898132938420773,1.3223112640678882,12.976498179244995
1780626536053640700,1.603640625,-4.205527444267273,-3.3574580785244703,5.10804677760005
1780626536063635700,1.6136357421875,1.280296415159106,-0.47026247330009935,0.9624006783217192
1780626536073630500,1.62363037109375,4.116987283287942,-1.7398484016135334,1.326353232935071
1780626536083625500,1.63362548828125,0.8425620004981755,-2.7513933423325416,2.888672692039609
1780626536093620500,1.643620361328125,0.0021340894192457198,-1.6094973898649214,1.8229495864093304
1780626536103615500,1.653615478515625,-1.981565446394682,-1.9613304676175116,0.17442659257948398
1780626536113611500,1.663611572265625,-2.6109610815525053,-3.3806218042299148,-1.211108897164464
1780626536123606500,1.6736064453125,-1.914926736100018,-4.629223104442656,-2.0180150623917577
1780626536133601500,1.6836015625,-1.1791080772697924,-5.0849055559873575,-1.8622411478340624
1780626536143596300,1.69359619140625,-0.9571183540046214,-4.7258238222807645,-1.9452783274829386
1780626536153591600,1.703591552734375,-1.2817308318763971,-3.0545538668528196,-1.8006436465770006
1780626536163586600,1.713586669921875,-1.2939733505949378,-1.0455442409545184,-1.326710960331559
1780626536173581600,1.72358154296875,-0.6526584373235702,0.5428168373793363,-0.8362187689512968
1780626536183576600,1.73357666015625,-0.18722206900566815,1.7084712665751576,-0.7618541405797005
1780626536193571600,1.743571533203125,0.279674434992671,1.6769102994024752,-1.3094015136122703
1780626536203566600,1.753566650390625,1.460913094550371,0.31547873882353306,-1.7562638221025466
1780626536213561600,1.7635615234375,1.4829095300421118,0.1964502083390951,-1.9301421331495046
1780626536223556600,1.773556640625,2.2299884185552594,0.3449009404018521,-2.5499954484581946
1780626536233551600,1.783551513671875,2.969137975373864,1.226440906330943,-1.744597349706292
1780626536243546400,1.79354638671875,4.773915360754728,3.3051439539194103,-0.7058142734497785
1780626536253541400,1.803541259765625,3.9377147119820117,5.0393385675549505,1.58430391189754
1780626536263536400,1.813536376953125,1.085830658635497,3.8138124379813667,2.612095638540387
1780626536273531400,1.823531494140625,0.8285317215800285,2.7085695151284335,2.349378183567524
1780626536283526400,1.8335263671875,1.3026666523993014,1.5519038635522127,2.2117326308965684
1780626536293521400,1.843521484375,2.4155489840894937,0.9664017306566238,1.3454764510780572
1780626536303516700,1.8535166015625,1.535308410321176,1.0940583887547255,0.5276011480689048
1780626536313511700,1.86351171875,0.6241437059789896,1.572589508706331,-0.21325696623325346
1780626536323506700,1.873506591796875,0.3924629020437598,1.5270488237589597,-0.17799100706279278
1780626536333501700,1.883501708984375,0.07161328383684158,1.4811024806201456,-0.15296119522452353
1780626536343496400,1.893496337890625,-0.13954378750771285,1.6791422962382434,-0.6679086134254932
1780626536353491500,1.903491455078125,-0.40973917714580893,1.494713072821498,-0.5948690961778164
1780626536363486500,1.913486572265625,-0.17990823886096477,1.6762062427863478,0.015756956580281256
1780626536373481500,1.9234814453125,0.14751184377744794,1.3672539831221102,0.45658056942820546
1780626536383476500,1.9334765625,0.9203031195655464,0.856190712878108,1.4085451939314604
1780626536393471500,1.943471435546875,1.1702421953774989,0.19029446218833326,2.065395237725973
1780626536403466500,1.953466552734375,1.0103937248572707,-0.5413241146035492,2.3887901565015315
1780626536413461500,1.96346142578125,0.9913263285547494,-0.6997714861541986,3.1552491605281827
1780626536423456500,1.97345654296875,1.071716208565235,-0.21092253193631766,3.988112189310789
1780626536433451500,1.983451416015625,0.7553904975235461,0.7001962874375284,3.6684921128988264
1780626536443447600,1.993447509765625,0.7287688864491879,0.8078139277219771,3.5132618036985397
1780626536453442600,2.003442626953125,1.104675059837103,0.7207593291252851,3.3194577259540554
1780626536463437600,2.0134375,1.7522019794911146,0.1765228342063725,3.977509546753764
1780626536473432600,2.0234326171875,1.2214199363637714,-0.009391513201594353,3.5684307332128284
1780626536483427600,2.033427490234375,1.1276970389842986,0.6370452731281518,1.810525573644042
1780626536493422600,2.043422607421875,1.039919971331954,0.8560288003146648,0.8275988246440887
1780626536503417600,2.05341748046875,0.5959224046230316,0.7477259542450309,0.17590543296039104
1780626536513412400,2.063412353515625,0.017558434777986257,1.4667340557888149,-0.1402834999591112
1780626536523407400,2.073407470703125,-0.6570785918533801,2.621412040679157,0.13454875569939612
1780626536533402400,2.08340234375,-0.6083785660922527,2.894781822569668,0.0843348182439804
1780626536543397400,2.0933974609375,0.45470776129364965,2.8514234500974416,-1.1221470036417245
1780626536553392400,2.103392333984375,-0.3523264142274856,3.2788609271496534,-2.8202742785960435
1780626536563387600,2.1133876953125,0.32853640984985977,2.5850837129741904,-3.008375760784745
1780626536573382700,2.123382568359375,2.523471014147997,2.3709347663372755,-2.0388421618431805
1780626536583377700,2.133377685546875,2.8436370340049266,2.293171727699041,-0.5452162997364998
1780626536593372700,2.14337255859375,2.8784640172362326,1.9648960511445999,0.6887146700888872
1780626536603367700,2.15336767578125,2.799216877520084,2.2127496989846227,1.849324967637658
1780626536613362400,2.163362548828125,1.9097639465093612,2.0418992113262413,2.5350515618264673
1780626536623357400,2.173357421875,1.0446646085757763,1.3687509436815977,2.6195050380140543
1780626536633352400,2.1833525390625,0.5923510489422827,0.7568366046786308,2.309243157055974
1780626536643347500,2.193347412109375,0.7658931868374347,-0.25479221493154763,1.9620359855383633
1780626536653342500,2.203342529296875,1.1947113776583225,-1.8916990052476523,1.4398071781575679
1780626536663337500,2.21333740234375,1.2427975823700428,-3.638790802118182,0.6268833600759506
1780626536673332500,2.22333251953125,2.950219924414158,-4.622298273615539,0.0699959117680788
1780626536683327500,2.233327392578125,2.7146120101630684,-5.371872486075759,-0.9153741387307643
1780626536693322500,2.243322509765625,2.0840169360876084,-5.518722504943609,-1.9561217930585144
1780626536703317500,2.2533173828125,3.1175977675259112,-5.377330751481652,-2.3326240326434373
1780626536713312500,2.2633125,3.2091853333771225,-6.2281152214020485,-4.7178369151800865
1780626536723307500,2.2733076171875,3.3330116195321082,-6.342918827667832,-5.4235576651275155
1780626536733302500,2.283302490234375,3.8618238969564436,-5.123168358886241,-5.0444309222579
1780626536743297500,2.293297607421875,4.0316543939173215,-3.384445161910355,-3.91214830904901
1780626536753292500,2.30329248046875,2.956633298587799,-1.3786156273528933,-3.6323289126276967
1780626536763288600,2.31328857421875,1.1474398503303527,0.721817021484673,-3.2604952493757007
1780626536773283600,2.32328369140625,-0.12520575781464577,1.7929150981515645,-3.4050065961629152
1780626536783278600,2.333278564453125,-1.1368005290247498,1.7411299658566712,-4.481788855946064
1780626536793273300,2.3432734375,-1.3551475118733942,2.121597309680283,-4.679553654015064
1780626536803268400,2.353268310546875,-1.7762661611676216,2.54844675771147,-4.618436045229434
1780626536813263400,2.363263427734375,-2.0820703320644793,1.9905887108057736,-5.127179348093271
1780626536823258400,2.37325830078125,-0.7478945888102054,0.6322255978867412,-5.548015234923362
1780626536833253600,2.383253662109375,0.6853893250584602,0.05195055198967456,-5.594319305458664
1780626536843248600,2.39324853515625,0.21171046744361519,0.9537637828797101,-4.532034942105412
1780626536853243600,2.40324365234375,-0.1499121829174459,2.760812912584841,-2.1881337286442517
1780626536863238700,2.41323876953125,-0.4812370179094374,3.9838960329204793,-0.3440495842695236
1780626536873233700,2.423233642578125,-1.1468132428646087,4.277812928277254,1.5376561424911022
1780626536883228400,2.433228515625,-2.683633519053459,3.8436417590558527,2.2501363035708666
1780626536893223400,2.443223388671875,-4.075426900148392,3.116002022767067,1.9319997437149286
1780626536903218400,2.453218505859375,-3.9212136590361593,3.301690890856087,2.5188053604245186
1780626536913213400,2.46321337890625,-3.9032325966656205,3.4579216092705725,3.7239012809097765
1780626536923208400,2.47320849609375,-3.2041876712203026,3.733761872927844,5.2572828148216
1780626536933203500,2.483203369140625,-2.445914311736822,4.049280359239876,5.410221213692426
1780626536943198500,2.493198486328125,-1.2560989624917507,3.3214752032563086,5.181841497129201
1780626536953193500,2.503193359375,0.07991349467039108,2.8060300646662713,4.6532945926427836
1780626536963188500,2.5131884765625,-0.2070680484652519,2.3218960101410744,3.6544606649369
1780626536973183700,2.523183837890625,-0.7195346827011555,2.1278242213711143,3.248925807613134
1780626536983178500,2.533178466796875,-1.2200866419333964,2.4135724233195184,2.774944021528959
1780626536993173500,2.543173583984375,-1.6429437323927878,3.264792069786787,2.8188077131748197
1780626537003168500,2.55316845703125,-1.4129039736628533,4.6799710026443,3.666049395921826
1780626537013163500,2.56316357421875,-1.5281833807468412,4.934627900758385,3.839031050390005
1780626537023158500,2.573158447265625,-0.4773405219275504,4.64885251854211,4.636225384420157
1780626537033153500,2.583153564453125,0.44112814875245093,4.511058497311175,4.636808152744174
1780626537043148500,2.5931484375,0.27363698145933446,3.231563169401884,3.8832080457687375
1780626537053143600,2.6031435546875,-0.2174900737583637,2.0707412749290466,2.742255803892016
1780626537063138600,2.613138671875,-1.0437573575377463,0.18385960683524608,0.43976445918381213
1780626537073133600,2.623133544921875,-1.4129273545384406,-0.9050205024987459,-1.9375608849734067
1780626537083129300,2.63312939453125,-2.5322224758803844,-2.1044807551845905,-3.2574218332797287
1780626537093124600,2.64312451171875,-3.350620925980806,-3.167059717570245,-3.9173558145642278
1780626537103119600,2.65311962890625,-2.590961080574989,-0.5848845855191349,0.11975041501820087
1780626537113114600,2.663114501953125,-0.5925882917642593,3.608909750856459,4.956148827692866
1780626537123109600,2.673109619140625,-0.8623673556864261,5.698015242254733,6.918736017373204
1780626537133104600,2.683104736328125,-2.065738936597109,3.501099656739831,4.060822620734572
1780626537143099600,2.693099609375,-1.384078861194849,-0.3746764854624867,-0.2956219457089901
1780626537153094700,2.7030947265625,-1.1965209843635558,-3.3163340409755704,-3.7853123196840284
1780626537163089400,2.71308935546875,-0.1802338175535202,-3.676049980932474,-2.7847593131005763
1780626537173084400,2.72308447265625,1.0020914681971071,-1.4279068970054387,1.3085299914747477
1780626537183079400,2.733079345703125,-0.6130711078226566,0.06289893924444913,2.259762210050225
1780626537193074400,2.743074462890625,-2.5388100375771523,0.9977402872502803,1.290446053251624
1780626537203069400,2.7530693359375,-3.554725448465347,1.4014657570645213,0.36215105814933773
1780626537213064400,2.763064453125,-2.6109049674510953,0.460641535256803,-0.9215338304042816
1780626537223059500,2.7730595703125,0.1277227090716362,-2.1769424725443125,-4.059460684731603
1780626537233054500,2.783054443359375,0.46893389157745985,-4.107347056022286,-6.091517716479301
1780626537243049700,2.7930498046875,0.6802338419914246,-3.8446062201738354,-5.711048911350965
1780626537253044500,2.80304443359375,0.8039466578345745,-3.113731739747524,-2.977573210763931
1780626537263039500,2.81303955078125,1.1762673008859157,-2.1236557035148143,-0.6712766285538673
1780626537273034500,2.823034423828125,1.5962509548008441,-0.873195915953815,1.9598931282907723
1780626537283029500,2.833029541015625,0.7879401834726333,-0.8541530695706605,0.819302705463767
1780626537293024500,2.8430244140625,-0.10510174847338348,-2.36052823087424,-1.9976327840983867
1780626537303019500,2.85301953125,-0.18564524814300237,-3.6467835544377563,-3.6318478511124845
1780626537313014500,2.8630146484375,0.768105090733245,-4.462486774104834,-3.5364655691534277
1780626537323009500,2.873009521484375,2.5375989082217214,-4.682775246410071,-2.371934883290529
1780626537333004500,2.883004638671875,3.4724610067546364,-4.168308305202424,-1.5357798272252081
1780626537342999600,2.89299951171875,3.014101152694225,-3.008472499157488,-1.0641454810500144
1780626537352994600,2.90299462890625,1.7039746858082712,-1.4410925417929887,-0.45587212889790535
1780626537362989300,2.9129892578125,-0.0035107845999300478,-0.8261579781860112,-0.4106424095958471
1780626537372984300,2.922984375,-1.4736511417008935,-1.147376137444377,-0.8039175048053264
1780626537382979600,2.9329794921875,-2.764737100291252,-2.567700616496801,-1.9492343716323375
1780626537392975600,2.9429755859375,-3.3664275669217107,-4.718361231315136,-4.286327658644319
1780626537402970600,2.952970703125,-3.1271406718969343,-5.571025523632764,-6.63410717484355
1780626537412965600,2.962965576171875,-4.199159662801027,-6.235283213335276,-7.995072286954522
1780626537422960600,2.972960693359375,-4.547395592844486,-5.431275692158938,-6.364894512632489
1780626537432955400,2.982955322265625,-2.609954534858465,-2.460094520519674,-3.3559301383048292
1780626537442950400,2.992950439453125,-1.4158125545859337,1.3715718463212252,0.5414005408406257
1780626537452945400,3.0029453125,0.7334193426035344,3.733342770732939,3.510957618409395
1780626537462940400,3.0129404296875,2.1652304074406623,4.303094084528088,5.500695265343785
1780626537472935400,3.022935302734375,4.993664027094841,5.5112634211093185,7.175197919082641
1780626537482930400,3.032930419921875,5.837680902576446,6.413986752581596,6.665917440602183
1780626537492925400,3.042925537109375,1.5285422771871089,4.553242857567966,2.6271435700684784
1780626537502920700,3.052920654296875,1.25207160667181,3.3058354433149097,-0.09614859015643597
1780626537512915700,3.062915771484375,1.3692939645171165,2.179039444823563,-1.3791653701901434
1780626537522910500,3.072910400390625,2.7543197511732576,2.498807989795506,-1.5350737247824668
1780626537532905200,3.0829052734375,3.351764250797033,4.36341469771713,-1.349374627560377
1780626537542900200,3.092900146484375,1.8837796104252338,3.9592926298007365,-0.030090017837285994
1780626537552895200,3.102895263671875,-0.7391232533335685,1.1356333849415183,0.9083703974485396
1780626537562890200,3.11289013671875,-3.140882781523466,2.2531904304444788,0.6584662468194962
1780626537572885200,3.12288525390625,-6.063049162364005,2.7945389488369226,-0.84016662979424
1780626537582880500,3.132880615234375,-4.742837500923872,3.6330852839529513,-1.7721294997543096
1780626537592875500,3.14287548828125,-4.287324268466234,2.600964003673196,-2.7507483224272726
1780626537602870500,3.15287060546875,-3.340881622254848,1.4492518828511238,-2.5909271783053875
1780626537612865500,3.162865478515625,-1.0697265691179783,0.35419629975259304,-1.059783778709173
1780626537622860500,3.172860595703125,2.349692656344175,-0.49277942553460596,0.7684989854216575
1780626537632855300,3.182855224609375,5.455816259175538,-0.924186975261569,3.2159780622571703
1780626537642850300,3.192850341796875,4.962330146676302,-2.24733235206604,3.7846050481975078
1780626537652845300,3.20284521484375,2.3177906206488608,-3.8003134894609447,1.8609592913299797
1780626537662840300,3.21284033203125,0.7759317657709122,-3.639314533731341,-0.07877426150739192
1780626537672835300,3.22283544921875,0.693440456501767,-2.4021663554251194,1.497566124165058
1780626537682830300,3.232830322265625,0.2392670212805271,-0.3448118008136749,3.7950340877532955
1780626537692826600,3.24282666015625,-0.37672099690213795,1.6030916144758462,4.828260114404559
1780626537702821400,3.2528212890625,-0.9087782475970685,2.3548323573201895,5.324878095188737
1780626537712816400,3.26281640625,-1.5263139336131513,1.8573627281427383,4.905720370703936
1780626537722811400,3.272811279296875,-0.1125508589029312,0.6370131244242191,4.023780299541354
1780626537732806400,3.282806396484375,1.0770223521493374,-0.3770177878916263,3.4204537561416624
1780626537742801400,3.292801513671875,1.5194203747071324,-0.8871212731927632,2.826332847982645
1780626537752796400,3.30279638671875,1.83193471076712,-0.9549135374367237,2.6394243749707935
1780626537762791400,3.31279150390625,1.7954079378806054,-1.4323586157172918,2.781538597488403
1780626537772786400,3.322786376953125,2.154443640488386,-1.1297428655982016,3.0571593731760975
1780626537782781400,3.332781494140625,4.922740479087829,0.6696656862258911,2.715864056050777
1780626537792776400,3.3427763671875,5.405446838897467,2.54737503682673,2.205371279171109
1780626537802771500,3.352771484375,-3.202368346838653,2.2539929789990185,0.3626420565366745
1780626537812766200,3.36276611328125,-3.9569042733594775,1.1174801808744668,-1.1918974162161349
1780626537822761200,3.37276123046875,5.145521644991636,2.422503041011095,-1.702308360031247
1780626537832756200,3.382756103515625,4.259013243000209,3.797308462426066,-2.276604039257765
1780626537842751500,3.39275146484375,-1.548029360206425,2.694371770688891,-3.0053964527130126
1780626537852746500,3.40274658203125,-2.512970955182612,0.7271417236387729,-2.632159352403879
1780626537862741500,3.412741455078125,-1.2147396548822522,-0.2872504232048988,-1.7372797201693058
1780626537872736500,3.422736572265625,-0.07040069317668676,-0.43625498975813387,-1.00104166688323
1780626537882731500,3.4327314453125,-0.3717015613049269,-0.5769546693027019,-0.5306985295623541
1780626537892726500,3.4427265625,-0.39783670403659344,-1.0563777696579695,0.04268471099436283
1780626537902721300,3.45272119140625,-0.2108031433403492,-1.5382938558727501,-0.34107670593857764
1780626537912716300,3.46271630859375,-0.8251739355847238,-1.241629707634449,-1.7517191644102335
1780626537922711300,3.472711181640625,-1.1440110449254512,-0.902841989415884,-2.3904046059608457
1780626537932706300,3.482706298828125,-0.263564427191019,-1.1362222907453774,-2.0340005670309065
1780626537942701300,3.492701416015625,1.7128332611769437,-0.80322075471282,-0.11473171007335185
1780626537952696300,3.5026962890625,2.452783612984419,-0.06495674855709076,2.8360803350150583
1780626537962691300,3.51269140625,1.1112181978702544,-0.4296569066673517,4.658694990381599
1780626537972686300,3.522686279296875,-0.1542988735690713,-2.423082886725664,4.8820253146007655
1780626537982681300,3.532681396484375,-0.8547221016302704,-4.80751893967092,4.177088408507406
1780626537992677400,3.542677490234375,-2.6186723865821957,-6.772250155642628,3.2425691320627927
1780626538002672400,3.55267236328125,-2.690151814906299,-6.671131960380077,2.5507465590864418
1780626538012667400,3.56266748046875,-3.1173359017193314,-2.421028292283416,1.593671751962602
1780626538022662400,3.572662353515625,-4.959201785522699,1.0655249527096748,1.1194298536375165
1780626538032657400,3.582657470703125,-1.9398478268668053,1.2384738739520311,0.4121560290291905
1780626538042652400,3.59265234375,2.1560674422979353,1.8466127860695123,0.3641542146652937
1780626538052647400,3.6026474609375,2.8871909290492535,1.9537322675734756,0.644892041105777
1780626538062642400,3.612642333984375,1.6941703540220856,0.6445195545315742,1.1889135780997573
1780626538072637400,3.622637451171875,0.3381897523254156,-1.614862131768465,1.426381002612412
1780626538082632200,3.632632080078125,-0.24539865590333937,-2.837766680666804,1.3869795510724185
1780626538092627200,3.642627197265625,3.718128250466287,-4.456902251970767,0.6995381157897412
1780626538102622500,3.65262255859375,3.558321719391644,-5.884247423440217,-0.1577587316993624
1780626538112617500,3.662617431640625,-2.608820562392473,-5.945877657923102,-1.0295745184063911
1780626538122612500,3.672612548828125,-3.093300361615419,-4.094204665854573,-1.5672611532904206
1780626538132607500,3.682607421875,-2.0492308693885803,-0.5959054534882307,-0.8860501368299126
1780626538142602500,3.6926025390625,-0.4490215323507786,3.1129438042402264,0.42852848715931174
1780626538152597500,3.702597412109375,-0.9643442136049271,7.816879619839787,2.5144889585301278
1780626538162592500,3.712592529296875,-1.9037877947092054,11.878228310275077,4.753843171323836
1780626538172587500,3.72258740234375,-2.67652573287487,13.524471084213255,5.710777108672261
1780626538182582300,3.732582275390625,-2.152203606476635,12.334522463977336,5.480851916232705
1780626538192577300,3.742577392578125,4.391095608586073,8.07689015394151,3.040993251273036
1780626538202572300,3.752572265625,7.141138997614383,3.4708103169381617,-0.16503215676844118
1780626538212567300,3.7625673828125,4.162641073220968,0.5060322903394698,-1.7352666267812251
1780626538222562300,3.772562255859375,2.018676595040411,-1.6444979760974645,-2.374272678588331
1780626538232557300,3.782557373046875,0.35089652755483985,-2.8129075492203235,-2.063461347053945
1780626538242552300,3.79255224609375,-0.551298688390106,-3.1951386878460646,-1.0659528227329254
1780626538252547600,3.802547607421875,-0.8390916940391063,-2.9083652345031497,0.0626826661452651
1780626538262543400,3.81254345703125,-0.4814611820541322,-2.207728655952215,0.7630679002836346
1780626538272538400,3.822538330078125,0.34180034403800963,-1.5079834732830524,1.295996380855143
1780626538282533400,3.832533447265625,0.9856732712291181,-1.018638113850355,1.5630004271060227
1780626538292528400,3.8425283203125,0.8943452330969274,-0.7870084555804729,1.5347814638376236
1780626538302523400,3.8525234375,0.198122379335016,-0.8211953873425721,1.2181456639334558
1780626538312518400,3.862518310546875,-0.4443338129259646,-0.8567536074578762,0.7849401248738169
1780626538322513400,3.872513427734375,-0.7346748956225811,-0.655499213707447,0.535348108933866
1780626538332508400,3.88250830078125,-0.7466308524847031,-0.20662147374153136,0.6629346244052052
1780626538342503400,3.89250341796875,-0.45079628693833945,0.3335141617298126,1.0161024578928948
1780626538352498200,3.902498291015625,-0.013368015617132186,0.8461813600391149,1.4089388694241642
1780626538362493200,3.9124931640625,0.11444690178260207,1.1145751070827246,1.5581854280397296
1780626538372488400,3.922488525390625,-0.136149176633358,0.8086708368122577,1.208941782258451
1780626538382483500,3.9324833984375,-0.4698961242057383,0.3033545857876539,0.7158280102029443
1780626538392478500,3.942478515625,-0.6504888381995261,-0.1213309622079134,0.20324849017709493
1780626538402473500,3.952473388671875,-0.6022387481629848,-0.38576223536133764,-0.11318155802190304
1780626538412468500,3.962468505859375,-0.6285166603662073,-0.6127472826957703,-0.4617430667579174
1780626538422463500,3.97246337890625,-1.152193182337284,-0.5805033016949892,-0.5296466824218631
1780626538432458500,3.98245849609375,-1.8429283984683453,-0.12822539789676665,-0.1366252697125077
1780626538442453500,3.99245361328125,-2.3198352782189846,0.2758651058375835,0.355966232034564
1780626538452448300,4.0024482421875,-2.2740203063748776,0.5399667086452246,0.64758595636487
1780626538462443300,4.012443359375,-1.8485830632291733,0.5142687882870436,0.8013067377850412
1780626538472438300,4.022438232421875,-1.2988766124665736,0.27631752578020097,0.9283654299899935
1780626538482433300,4.032433349609375,-0.7206079379558563,0.44267479367256163,1.41219173374027
1780626538492428300,4.04242822265625,0.38743981318473814,0.2544341952741146,1.9812085957810281
1780626538502423300,4.05242333984375,1.4739093542456625,-0.014469839379191397,2.1046467594012617
1780626538512418600,4.06241845703125,1.6570913540802894,-0.44589726285040376,2.040670838575065
1780626538522413000,4.0724130859375,0.9329681014798581,-0.8499246382206678,1.4833613654628395
1780626538532409000,4.0824091796875,-0.32792627859488127,-1.1285574552059172,0.3674132164612412
1780626538542404000,4.092404052734375,-1.7647347133278846,-0.9602782793402671,-0.23190087642669677
1780626538552399000,4.102399169921875,-2.6722797658681867,-0.6159925482273102,-0.3137102678462863
1780626538562394000,4.11239404296875,-2.8244705612421033,-0.21188684692382811,-0.34678602349609133
1780626538572389000,4.12238916015625,-2.615672327983379,0.13242577219605445,-0.46833735045641656
1780626538582384000,4.132384033203125,-1.8608534928679465,0.32347382923066614,-0.4769809679001569
1780626538592379100,4.142379150390625,-0.7024644515652209,0.4460661896765232,-0.22802841890752315
1780626538602374100,4.1523740234375,0.2877810229502618,0.5019546656370163,0.16750409983992576
1780626538612369200,4.162369140625,0.6098432318173349,0.3588280512064695,0.3995721495270729
1780626538622364200,4.1723642578125,0.32008155644387004,0.2633084066033363,0.4454083102896809
1780626538632359000,4.18235888671875,-0.10214753831028937,0.15530103634893894,0.1667462672099471
1780626538642354000,4.19235400390625,-0.4793197861112654,-0.03731763100326061,-0.39683834064900875
1780626538652349000,4.202348876953125,-0.7410382931746542,-0.0892021320194006,-0.846054226528108
1780626538662344200,4.21234423828125,-0.8428375295039265,0.1814578063905239,-0.9187073748067021
1780626538672339200,4.222339111328125,-0.722361503624916,0.5102122063726187,-0.7371218503832817
1780626538682334200,4.232334228515625,-0.4939829561054706,0.6111211427986621,-0.48985155538916586
1780626538692329200,4.2423291015625,-0.2559912154577672,0.4637731112807989,-0.1261935998082161
1780626538702324200,4.25232421875,-0.1449334446568042,0.1851139908105135,0.2979848754480481
1780626538712319200,4.2623193359375,-0.1003823552686721,-0.11854688444733619,0.5031751473426819
1780626538722314200,4.272314208984375,-0.008569090902805328,-0.4032669123917818,0.505778315578401
1780626538732309000,4.28230908203125,0.13562544502019883,-0.5845955394446849,0.378489906270802
1780626538742304000,4.292303955078125,0.1895392599068582,-0.5802531263262033,0.16035042869299648
1780626538752299000,4.302299072265625,0.1166249764740467,-0.40282676740884776,-0.04012216702997684
1780626538762294000,4.3122939453125,0.13999883779883385,-0.08373042261004447,-0.21611060209870336
1780626538772289000,4.3222890625,0.1817196721971035,0.20100889455676077,-0.49336745455563064
1780626538782284000,4.332283935546875,0.3222759246829897,0.3506464983165264,-0.7609159829467534
1780626538792280300,4.3422802734375,0.5173088866353035,0.414747506827116,-0.9331754606202244
1780626538802275000,4.352275146484375,0.7337351305544376,0.37592823908925055,-0.9619406595945358
1780626538812270000,4.36227001953125,0.9611819501817226,0.24967326448261737,-0.9075421299308538
1780626538822265000,4.37226513671875,1.089425979713723,0.12051029347479343,-0.8160562708884477
1780626538832260000,4.382260009765625,1.096483570075035,0.06990706444084643,-0.6546008035629988
1780626538842255000,4.392255126953125,0.8449171853221953,0.059819970190525054,-0.515856934261322
1780626538852250000,4.40225,0.5175450334787368,0.08815934496819973,-0.41108284683972596
1780626538862245000,4.4122451171875,0.3540928393781185,0.07993746006786823,-0.3911336992666125
1780626538872240000,4.422240234375,0.20748408192023635,0.02682546308338642,-0.38256314705908295
1780626538882235100,4.432235107421875,0.07080781267285347,-0.04520107772946357,-0.32669396032094955
1780626538892230100,4.442230224609375,0.10506656756214797,-0.10533961234986781,-0.1905892073512077
1780626538902225000,4.452224853515625,0.38281149579696355,-0.098477909886837,-0.008257540735602378
1780626538912220000,4.462219970703125,0.7856265727680176,0.012754852154850959,0.1651578289747238
1780626538922215000,4.47221484375,0.9440811047118156,0.14635960500240325,0.2561728556349873
1780626538932210200,4.482210205078125,0.7939537446737289,0.2103232508689165,0.19200053545385598
1780626538942205200,4.492205078125,0.4286882808309048,0.19031448206305504,0.019238661216199396
1780626538952200200,4.5022001953125,-0.01825352263636887,0.21213643777072427,-0.059921676999330514
1780626538962195200,4.5121953125,-0.3944049760222435,0.19475684842467306,-0.136800041757524
1780626538972190200,4.522190185546875,-0.6260299581170081,0.06993687505722046,-0.18730390207022427
1780626538982185200,4.532185302734375,-0.8264999234914779,-0.13475333836078643,-0.2606640295743942
1780626538992180200,4.54218017578125,-0.9689970078468322,-0.38814182397425173,-0.3549564704701304
1780626539002175000,4.552175048828125,-1.0199860213279723,-0.6858119343847036,-0.40726007368117567
1780626539012170000,4.562169921875,-1.064454108607769,-0.8952110561460256,-0.46227147454619405
1780626539022165000,4.5721650390625,-1.1808113740563393,-0.9214081581979989,-0.36729748112708327
1780626539032160000,4.582159912109375,-1.3842004417479037,-0.7457336113840342,-0.11837708083838223
1780626539042155000,4.592155029296875,-1.5773989548146723,-0.35864801846444605,0.35659663889259097
1780626539052151300,4.6021513671875,-1.516509309566021,0.08824936133921146,0.8331424302458763
1780626539062146300,4.612146240234375,-0.9721966806709765,0.3668108666539192,1.249630643260479
1780626539072141000,4.62214111328125,-0.06619009887748398,0.3378004607468843,1.4271338668063283
1780626539082136000,4.632135986328125,0.8972387625813484,0.044299160453677176,1.302288758997619
1780626539092131000,4.642131103515625,1.595367157703638,-0.3137292648077011,0.7569701679304242
1780626539102126000,4.6521259765625,1.488202083492279,-0.30005905137360095,-0.026128128468990323
1780626539112121000,4.66212109375,0.8906301580965519,0.09815934545695781,-0.4934729607567191
1780626539122116000,4.6721162109375,0.3265910844683647,0.4581745606213808,-0.743807319496572
1780626539132111000,4.682111083984375,-0.19161562778949737,0.6944967606216669,-0.6818985603332519
1780626539142106000,4.692106201171875,-0.677234075653553,0.8952619095504284,-0.04488017521202564
1780626539152101000,4.70210107421875,-0.8379343406975269,1.1445137337505817,0.7553975117862224
1780626539162096000,4.71209619140625,-0.6468108803391456,1.126169098764658,1.1761819606900215
1780626539172091000,4.7220908203125,-0.11167407606840132,0.7208931846380233,1.2435536614343523
1780626539182086000,4.7320859375,0.35521044523119927,0.11317337471544742,1.0843673080846667
1780626539192081200,4.7420810546875,0.20757073729038236,-0.497339280796051,0.6482751076728105
1780626539202076200,4.752076171875,-0.4024386448740959,-0.9092460112392902,0.13726064500659704
1780626539212071200,4.7620712890625,-1.0380851571202276,-1.0939701259493828,-0.2838891300782561
1780626539222066200,4.772066162109375,-1.5794658242166042,-0.8868284277260303,-0.3862602480113506
1780626539232061200,4.782061279296875,-1.9951497351109981,-0.3471463812410831,-0.3388724738925695
1780626539242056200,4.79205615234375,-2.180344974464178,0.1466442671626806,-0.35029286257326603
1780626539252051200,4.80205126953125,-1.9761983664035796,0.46105391544997687,-0.38510494049638505
1780626539262046200,4.812046142578125,-1.6393875012159347,0.5447556964874267,-0.37278847975879903
1780626539272041000,4.822041015625,-1.2027859630424529,0.4573813644170761,-0.3374006477743387
1780626539282036000,4.832035888671875,-0.5319277790963649,0.2243225501269102,-0.2957780130535364
1780626539292031000,4.842031005859375,0.06691014764718711,-0.17539456082880495,-0.31217034492790696
1780626539302026000,4.85202587890625,0.35957558163814246,-0.5852355909138918,-0.3973430753007531
1780626539312022300,4.862022216796875,0.32214053480029103,-0.7763228109151125,-0.42848523253947496
1780626539322017300,4.872017333984375,-0.06368950510025025,-0.7077525480359792,-0.35029198579043147
1780626539332012300,4.88201220703125,-0.67632572863698,-0.444222023114562,-0.16742635842859743
1780626539342007000,4.892007080078125,-1.1132792220532894,-0.06304010128080845,0.19893851802349088
1780626539352002000,4.902001953125,-1.1435762337047606,0.13724573969841003,0.6748425043419003
1780626539361997000,4.9119970703125,-0.9892705650687217,0.1714671582520008,1.1349664454653858
1780626539371992000,4.921991943359375,-0.5296516508579254,0.20318448503017425,1.4507611183702944
1780626539381987000,4.931987060546875,0.3109737555544823,0.1111433301925659,1.4487021400138735
1780626539391982000,4.941982177734375,1.242712388304621,-0.18137305071651935,0.9556082417026162
1780626539401977000,4.95197705078125,1.7908605037093162,-0.4501379691600799,0.07692424972653389
1780626539411972000,4.96197216796875,1.8119722653210162,-0.336411636736989,-0.7012658163651824
1780626539421967000,4.971967041015625,1.3948995304167269,0.1923293290168047,-1.069575104883313
1780626539431962000,4.981962158203125,0.8959668429493903,0.7835387336432933,-1.1379416618838905
1780626539441957000,4.99195703125,0.5247662169039249,1.1793348717629908,-1.172281153859198
1780626539451951900,5.001951904296875,0.33437910799607634,1.171145135566592,-1.0105737575992941
1780626539461947100,5.011947021484375,0.3686695001326501,0.7686889550358057,-0.5219944141030312
1780626539471942100,5.021942138671875,0.5577659847080707,0.22474106779992578,0.18996376892924308
1780626539481937200,5.031937255859375,0.6561690757930279,-0.4616846145689487,0.30245149946808814
1780626539491932200,5.04193212890625,0.38588834595903754,-1.164794889757037,-0.3994920700281858
1780626539501927200,5.05192724609375,-0.42383112312331794,-1.657203143891692,-1.3161281915187835
1780626539511922200,5.061922119140625,-1.7928632218338547,-1.7446762601613997,-1.691929881618917
1780626539521917700,5.071917724609375,-2.9103111078739166,-1.314185825279355,-1.3218208502024411
1780626539531912400,5.081912353515625,-3.149123371124267,-0.4120207122117281,-0.5994131693482398
1780626539541908500,5.091908447265625,-2.8203391605257986,0.2864221556872129,0.06948182476609945
1780626539551903500,5.101903564453125,-2.275069523166865,0.5683505070865154,0.7839554977506399
1780626539561898500,5.1118984375,-1.3383138659723102,0.7822013475596904,1.921056617157161
1780626539571893500,5.1218935546875,0.3445578260526061,0.8559346922904253,3.1898835437968374
1780626539581888500,5.131888427734375,2.136819428731501,0.6124743109732866,3.7774697894901035
1780626539591883500,5.141883544921875,2.7760791630387303,-0.2749427302956581,2.886840508176386
1780626539601878500,5.15187841796875,1.8662313865140079,-1.3738281008154154,0.9309238823011518
1780626539611873300,5.161873291015625,0.5979316986188292,-1.8536819938033817,-0.4764367780208587
1780626539621868300,5.171868408203125,-0.29550241098254915,-1.7550509391814468,-1.102172137105465
1780626539631863300,5.18186328125,-0.6951205916084349,-1.0139280364632606,-0.9584814590513706
1780626539641858600,5.191858642578125,-0.27297259926646944,0.08186638230383396,-0.17903379411399364
1780626539651853600,5.201853515625,0.8370563888192176,0.8145143021434545,0.5661652720019221
1780626539661848600,5.2118486328125,1.8473380316041408,0.9833324071913957,0.6576555149585008
1780626539671843600,5.221843505859375,2.2907953539565202,0.8157745313376188,0.08143675871491432
1780626539681838600,5.231838623046875,2.301503210453689,0.4940080905467272,-0.8885507214739918
1780626539691833600,5.24183349609375,2.0277071659751233,0.1648579692453146,-1.6204679889515041
1780626539701828400,5.251828369140625,1.7383520255759357,-0.16386135942339897,-1.959678901018202
1780626539711823400,5.2618232421875,1.4351706043981014,-0.24936405240297316,-2.2546476435154674
1780626539721818400,5.271818359375,0.8166293946012854,0.0786836606144905,-2.3310589752838013
1780626539731813400,5.2818134765625,0.04287117347717285,0.692202512204647,-1.9088219894841312
1780626539741808400,5.291808349609375,-0.22010551695376634,1.149744620141387,-1.0504825741395354
1780626539751803400,5.301803466796875,-0.2122729236319661,1.1722335153251886,-0.12573767273426056
1780626539761798400,5.31179833984375,-0.45683308288455005,0.7262877371579408,0.5532365245848894
1780626539771793400,5.32179345703125,-0.7510624051913619,-0.02539806062877178,1.0534285644635557
1780626539781789400,5.33178955078125,-0.9838488322809338,-0.7683528549492359,1.3044172954589128
1780626539791784400,5.341784423828125,-1.3753481499895452,-1.2221657132297754,1.488785728599131
1780626539801779500,5.351779541015625,-1.4934604424118996,-1.3894120389163493,1.7071470322340725
1780626539811774500,5.3617744140625,-1.1027505215153097,-1.2913573228776454,1.8693743607148527
1780626539821769500,5.37176953125,-0.557532468213141,-0.9069237057715653,1.8528923047304153
1780626539831764500,5.381764404296875,-0.3431616955190897,-0.43734512308239937,1.572677479250729
1780626539841759500,5.391759521484375,-0.3034954555630684,0.025483400824666023,1.1879752743363379
1780626539851754500,5.40175439453125,-0.07084843694418669,0.33812603943943975,0.8571054896354675
1780626539861749500,5.41174951171875,0.21739099729806183,0.39332828670144077,0.6067278762757777
1780626539871744500,5.42174462890625,0.08020955500751734,0.2453542322397232,0.44016573346108195
1780626539881739300,5.4317392578125,-0.21449629876986145,-0.06221241828501224,0.29798370640426874
1780626539891734300,5.441734375,-0.2547042443871498,-0.3141244016051292,0.16440730286836625
1780626539901729500,5.4517294921875,-0.3093945966042578,-0.33160745132565494,-0.10259557433873415
1780626539911724500,5.461724609375,-0.5759564520455897,-0.1804851619660854,-0.4289589875310659
1780626539921719600,5.471719482421875,-0.8113117067098617,0.030281741017103195,-0.6872837605029344
1780626539931714600,5.481714599609375,-0.9366223862037062,0.21966157257854937,-0.8393605741083622
1780626539941709600,5.49170947265625,-0.9477334166742861,0.3237187439024448,-0.9374705274656414
1780626539951704600,5.50170458984375,-0.8381988368526101,0.36433892358243464,-1.029932538063824
1780626539961699600,5.511699462890625,-0.8353931317821145,0.4877700729399919,-0.9393076797649264
1780626539971694600,5.521694580078125,-0.8903376048907637,0.5464946491092443,-0.7163900279998779
1780626539981689300,5.531689453125,-0.8214905708968638,0.5047755682766437,-0.4516346374586224
1780626539991684400,5.541684326171875,-0.7322491297803819,0.42496319589316844,-0.18285890536010263
1780626540001680400,5.551680419921875,-0.7954489516675471,0.3615378946870565,0.07347381701171397
1780626540011675400,5.56167529296875,-0.8761253935344516,0.22427345028817652,0.25885698015242814
1780626540021670700,5.571670654296875,-0.8648973125554621,-0.03375146295428276,0.3291360927760601
1780626540031665700,5.581665771484375,-0.7901919079221784,-0.3308727073103189,0.3409428504258394
1780626540041660700,5.59166064453125,-0.6690589525043964,-0.6252198107779026,0.28145342736393214
1780626540051655400,5.601655517578125,-0.571921789702028,-0.808170486074686,0.14327157585918904
1780626540061650400,5.611650390625,-0.5537608407199383,-0.7793582330882549,0.09360708898007869
1780626540071645400,5.6216455078125,-0.48981166177019475,-0.47558746771514415,0.293764627404511
1780626540081640400,5.631640380859375,-0.3670959672056138,-0.037321722656488414,0.5941153552010655
1780626540091635500,5.641635498046875,-0.06190773625001311,0.34199148269593715,0.8217971526280045
1780626540101630500,5.65163037109375,0.3697743926346302,0.5571171654105186,0.8535141871452331
1780626540111625500,5.66162548828125,0.8125988239109516,0.5315238744705915,0.7374056357607245
1780626540121620500,5.671620361328125,1.1581611508309841,0.2219347782075405,0.3988005806326866
1780626540131615500,5.681615478515625,1.1350352729178965,-0.24034429512321948,-0.1728267561674118
1780626540141610500,5.691610595703125,1.047817592713982,-0.5309966357260942,-0.6790627523854375
1780626540151605200,5.701605224609375,1.026591264811903,-0.56123629116714,-0.9521581012487411
1780626540161600500,5.7116005859375,0.8883610441207885,-0.3546656708300113,-0.9980965533420443
1780626540171595500,5.721595458984375,0.7300150140527636,-0.05637655173838138,-0.9053022420495748
1780626540181590500,5.731590576171875,0.6350536609195172,0.16960136438012122,-0.7579846056699753
1780626540191585500,5.74158544921875,0.6232138777829707,0.4047597812980413,-0.47259705372750754
1780626540201580500,5.75158056640625,0.7548902929164468,0.612191986900568,-0.09353928444087505
1780626540211575600,5.761575439453125,0.8266134668685495,0.6543944673359394,0.007055179208517074
1780626540221570600,5.771570556640625,0.6897605258800089,0.5336386746674776,-0.19293577047735452
1780626540231566300,5.78156640625,0.510128473611921,0.31868133425712586,-0.3960989204585552
1780626540241561300,5.791561279296875,0.42041605398282406,0.025115152034163472,-0.4729246782466769
1780626540251556400,5.801556396484375,0.37685382950156926,-0.28312545222938057,-0.30728783358335493
1780626540261551400,5.81155126953125,0.2656381647251546,-0.48476738399267194,-0.06423954019844531
1780626540271546400,5.82154638671875,-0.06691606593132018,-0.619081161892414,-0.023563246417045592
1780626540281541600,5.831541748046875,-0.5499518038257957,-0.7002420262753963,-0.19212533087730407
1780626540291536600,5.84153662109375,-1.1685786460794507,-0.755034523692727,-0.3719219260573387
1780626540301531600,5.85153173828125,-1.647138699864596,-0.7427630711406469,-0.2936111904084682
1780626540311526700,5.861526611328125,-1.4902762594178318,-0.581242137363553,0.038949031597375866
1780626540321521400,5.871521484375,-1.240780981850624,-0.2874567594319582,0.4064230383351445
1780626540331516400,5.881516357421875,-0.8843009550750255,-0.0010737667113542555,0.677806614844501
1780626540341511400,5.891511474609375,-0.48883536408394573,0.0702443335711956,0.7219441549956798
1780626540351506400,5.90150634765625,-0.27759616741389037,0.011575286981463432,0.4958133864030242
1780626540361501400,5.91150146484375,0.031518589335680004,-0.17572949187159537,0.14784955129921434
1780626540371496400,5.921496337890625,0.12054624157100916,-0.44966099929809566,-0.31857290544658895
1780626540381491500,5.931491455078125,-0.33314678972214457,-0.6265969443500041,-0.9176163646996021
1780626540391486500,5.941486572265625,-0.9306918271109461,-0.6119716221481561,-1.3951798086628318
1780626540401481500,5.9514814453125,-0.84485712569803,-0.4356570238649845,-1.586764164531231
1780626540411476500,5.9614765625,0.018432313269376752,-0.02611702255308628,-1.5574655893325804
1780626540421471200,5.97147119140625,1.0334218414843082,0.6328057358622551,-1.3074948032081126
1780626540431466500,5.981466552734375,1.94590055103451,1.404782042005658,-0.6226809399500489
1780626540441461500,5.99146142578125,2.724844358102977,2.0175936221092936,0.26340456045418975
1780626540451457500,6.00145751953125,2.712965704260766,2.0342168401300906,0.6115861299619079
1780626540461452500,6.01145263671875,1.4079180019438267,1.1944722351402044,0.3817769651174545
1780626540471447600,6.021447509765625,0.3120969874307513,0.14669512056708334,0.3063184040293097
1780626540481442600,6.031442626953125,-0.48238370372653006,-0.5790080947011709,0.4788678045600652
1780626540491437300,6.041437255859375,-0.6433528488397597,-0.9096265349894761,0.677746993611753
1780626540501432300,6.051432373046875,-0.0439300348803401,-0.7247241411030292,0.7660217816531658
1780626540511427300,6.06142724609375,0.6374798651531338,-0.2114303353279829,0.4612114440992474
1780626540521422000,6.071422119140625,0.5832403254434466,0.15855857684016228,0.02639028653651476
1780626540531417000,6.0814169921875,-0.43077831191271543,0.2783177596867084,0.0011252046376466751
1780626540541412000,6.091412109375,-1.2225330852374434,0.12726678199768066,0.5219353773921728
1780626540551407000,6.101406982421875,-1.2089371060833334,-0.2711217107027769,1.130158168400824
1780626540561402000,6.111402099609375,-0.8003823164165019,-0.6144324593037367,1.588257910220325
1780626540571397000,6.121397216796875,-0.629512247274816,-0.7525754401028156,1.6860425771459937
1780626540581392100,6.13139208984375,-0.6811988876312971,-0.7362906602561473,1.2916551367804407
1780626540591387100,6.14138720703125,-0.9833107798814773,-0.3758569274187088,0.9846820682346821
1780626540601382100,6.151382080078125,-1.3956392428681255,-0.025526070922613144,0.6850599469736218
1780626540611377000,6.161376953125,-1.5960650768399238,0.13869886111617089,0.3571887595668435
1780626540621372000,6.171371826171875,-1.4380971593692897,0.25790859338641164,0.15415157405287028
1780626540631367200,6.1813671875,-1.0270113899201154,0.3628799569457769,0.05884148054718971
1780626540641362200,6.191362060546875,-0.6704778793916106,0.46295711872279643,-0.022007541407644746
1780626540651357200,6.201357177734375,-0.4507283362686634,0.5551145934164524,-0.09275690189152956
1780626540661353200,6.211353271484375,-0.2426443887591362,0.6037187575876712,-0.13131430382281542
1780626540671348000,6.221347900390625,-0.10244827482253313,0.6750123079508542,-0.1509215060904622
1780626540681343000,6.231343017578125,-0.125794663618505,0.7662813093721866,-0.10575286932587623
1780626540691338000,6.241337890625,-0.16016045907884835,0.7988239810585975,-0.03655512219816446
1780626540701333000,6.2513330078125,-0.20804975297898054,0.7437707868784665,0.08550123167484998
1780626540711328000,6.261327880859375,-0.4004106461778283,0.5674561885952949,0.2530456635251641
1780626540721323000,6.271322998046875,-0.6979331648111343,0.19287410341799258,0.3362050082489848
1780626540731318000,6.281318115234375,-0.7742670474290847,-0.2964098812162876,0.4409869867160916
1780626540741313000,6.29131298828125,-0.7692337294369935,-0.8315899401068687,0.39533699617534873
1780626540751308300,6.301308349609375,-0.7151613629877567,-1.1791466557145118,0.07887947544753551
1780626540761303300,6.31130322265625,-0.603512129099667,-1.1191524980008603,-0.345861602127552
1780626540771298000,6.321298095703125,-0.4579772844836116,-0.6774462570995092,-0.6378519133359194
1780626540781293000,6.33129296875,-0.33144992267638446,-0.1498474471181631,-0.7753779312804341
1780626540791288000,6.3412880859375,-0.1944309774711728,0.2714887904495001,-0.8500231301590799
1780626540801283000,6.351282958984375,0.05640490105003118,0.5971732814669609,-0.7469304199531674
1780626540811278000,6.361278076171875,0.3005184855788946,0.7425579039573669,-0.5242711268633604
1780626540821273000,6.371273193359375,0.35544074685573573,0.6726110920280217,-0.20630817000865936
1780626540831268000,6.38126806640625,0.1094055466145277,0.3671113109052181,0.11236761129051447
1780626540841263000,6.39126318359375,-0.1922138859435916,-0.08455050682127475,0.4346770729169249
1780626540851258000,6.401258056640625,-0.33140403770804405,-0.5247656323820352,0.7856234309628606
1780626540861253000,6.411253173828125,-0.3709215168431401,-0.9512748886734247,1.0555968484133482
1780626540871249200,6.421249267578125,-0.505161060462892,-1.3042337555855512,1.1435928195133804
1780626540881244200,6.431244140625,-0.48808776058703657,-1.4875842438548803,1.0547685808956622
1780626540891239200,6.4412392578125,-0.12143880649656057,-1.3785305794179439,0.6913461876362562
1780626540901234200,6.451234130859375,-0.042540041826665397,-1.0095739329069853,0.13469605521559713
1780626540911229200,6.461229248046875,-0.2708300342798233,-0.4516419439822435,-0.17890344573259354
1780626540921224200,6.47122412109375,-0.23502397688329218,0.08288111230432987,-0.2962684269189834
1780626540931219200,6.48121923828125,0.07275806995779276,0.3344914823293686,-0.392992186614871
1780626540941214200,6.491214111328125,0.24937194344848393,0.2547381466567516,-0.5357514290377497
1780626540951209000,6.501208984375,0.4580336908459663,0.006175473764538765,-0.593390840318799
1780626540961204000,6.511203857421875,0.8143500514924525,-0.1642524045675993,-0.5522875532969832
1780626540971199000,6.521198974609375,1.0485787863448262,-0.12802139975726604,-0.43295711725652214
1780626540981194000,6.531194091796875,0.8533934833750129,0.0338543388068676,-0.22676818971335885
1780626540991189000,6.54118896484375,0.6211509539037943,0.29939152737557884,0.2195201182812452
1780626541001184000,6.55118408203125,0.6390645039960742,0.5090121829330921,0.8531567520096898
1780626541011179300,6.56117919921875,0.5449146864414215,0.5439847121149302,1.4930682282239198
1780626541021174300,6.57117431640625,0.569615704716742,0.38161914420723914,1.9065519987255333
1780626541031169300,6.581169189453125,0.8436156012043357,-0.022401801422238347,1.9167299861297011
1780626541041164000,6.5911640625,0.9049299016058444,-0.4356359810769558,1.596939521586895
1780626541051159000,6.601158935546875,0.34750790802985426,-0.5183779771715402,1.2280182386502623
1780626541061154000,6.611154052734375,-0.49262657306045293,-0.4256266282379627,0.8625991186156868
1780626541071150000,6.621150146484375,-0.9051710168853402,-0.22413608764410017,0.5135208925291895
1780626541081145000,6.63114501953125,-0.7970446964263915,0.1669616635262966,0.21381401559412477
1780626541091140000,6.64114013671875,-0.28806086280494925,0.6609270839750766,-0.05734656581431627
1780626541101135000,6.651135009765625,0.26058365781456233,1.0803361528724431,-0.37740006520748137
1780626541111130000,6.661130126953125,0.5854509872302412,1.2799813578605652,-0.6892401552677154
1780626541121124900,6.671124755859375,0.662066024877131,1.0471849938988684,-1.1956184825658798
1780626541131120000,6.6811201171875,0.205085350215435,0.3413397407889366,-1.7464418085291982
1780626541141115100,6.691115234375,-0.6543301699280738,-0.5463140318453311,-2.1559607670530676
1780626541151110100,6.701110107421875,-1.3847919779002666,-1.1990864509373902,-2.093628229519725
1780626541161105200,6.711105224609375,-1.4810653634801507,-1.3623819931715726,-1.243757367312908
1780626541171100200,6.72110009765625,-1.2129098091065882,-1.1019541104406119,-0.21997166144102812
1780626541181095200,6.73109521484375,-0.9350286872714757,-0.7290238841235637,0.21469693590849637
1780626541191090200,6.741090087890625,-0.456659772144258,-0.40431788274943825,0.016845920860767364
1780626541201085200,6.751085205078125,-0.5403077771678566,-0.19056758004128932,-0.6972960359513759
1780626541211080200,6.761080078125,-0.9914692441567778,-0.2619634217351675,-1.4687208456918597
1780626541221075000,6.771074951171875,-1.2430913046196101,-0.37565818997621536,-1.5628671561151741
1780626541231070000,6.781070068359375,-1.2801067378059028,-0.19906535927355287,-0.7147247251361608
1780626541241065000,6.79106494140625,-1.1266510370627045,0.2071434517890215,0.5324073793068528
1780626541251060000,6.80106005859375,-0.8123346200168132,0.6230968272745608,1.558182797691226
1780626541261055000,6.811054931640625,-0.4106099686309695,0.9214660258650779,2.2221666388884187
1780626541271051300,6.82105126953125,0.12873247063606977,0.9936468804568052,2.4902853683829305
1780626541281046300,6.83104638671875,0.40152620620429513,0.7514192558050156,2.2145839286744593
1780626541291041000,6.841041015625,0.44026042600721116,0.2609948689639568,1.490149125906825
1780626541301036000,6.8510361328125,0.09251432530730962,-0.22891163148283958,0.6503180116772651
1780626541311031000,6.861031005859375,-0.5630030085787177,-0.6229945359438658,-0.10354834501892328
1780626541321026000,6.871026123046875,-1.1452364950671792,-0.8432055590987205,-0.5643129221335053
1780626541331021000,6.88102099609375,-1.3217059916511178,-0.6228098270267248,-0.5392495002865791
1780626541341016000,6.89101611328125,-0.6217831143274903,0.1866127049356699,-0.10033990436643361
1780626541351011000,6.901010986328125,0.019983342103660106,1.0450368759542703,0.26219021622836586
1780626541361006000,6.911006103515625,0.017213585129380225,1.3616215301930903,-0.006819324626028537
1780626541371001000,6.9210009765625,-0.1157885256499052,1.1181237394750119,-0.5790472576677799
1780626541380996000,6.93099609375,-0.21272885070592162,0.5852005196005106,-1.0728142329350112
1780626541390991000,6.9409912109375,-0.45617344993203873,0.02699146730005741,-1.303089261725545
1780626541400986000,6.950986083984375,-0.6530021361947059,-0.35959962010085583,-1.2165317989960311
1780626541410981000,6.960981201171875,-0.6426598981395364,-0.46551674007773397,-0.8941799595326184
1780626541420976000,6.97097607421875,-0.6086144206747413,-0.26234862166047096,-0.4479197085887193
1780626541430971100,6.98097119140625,-0.44209962413311005,0.14150164357721803,0.04759206451922655
1780626541440966100,6.990966064453125,-0.010613748472929,0.5018336696058512,0.4439095961645245
1780626541450961200,7.000961181640625,0.39668315008729693,0.6556640488803386,0.5068883226469159
1780626541460957000,7.01095703125,0.5028697346553206,0.6073813717484474,0.12539952682107686
1780626541470952000,7.020951904296875,0.4601701183527708,0.508342905369401,-0.2894523171633482
1780626541480947000,7.030947021484375,0.5569882783338427,0.5123258375257254,-0.4035457293331623
1780626541490942000,7.04094189453125,0.7275833299264312,0.4607663306802511,-0.4121560290291905
1780626541500937000,7.05093701171875,0.7606620081856846,0.3083779669076204,-0.36907208958417176
1780626541510932200,7.06093212890625,0.1753346473351121,-0.007327566409111023,-0.4088958581894636
1780626541520927500,7.070927490234375,-0.5793994321063161,-0.4566051193475723,-0.4325450293242931
1780626541530922500,7.080922607421875,-0.5971314881518482,-0.7525292628735304,-0.22187924862802028
1780626541540917500,7.09091748046875,-0.5256900537505745,-0.7621183444738387,-0.0367255103290081
1780626541550912500,7.10091259765625,-0.5253919475868344,-0.4750818562805652,0.002269406236708164
1780626541560907500,7.110907470703125,-0.4930895143970847,-0.07506079394221306,-0.020957447832822797
1780626541570902500,7.120902587890625,-0.6839452637299895,0.2462123103737831,-0.09343786989301442
1780626541580897500,7.1308974609375,-0.9457491109892725,0.4118056081563234,-0.1453703017041087
1780626541590892500,7.140892578125,-1.0617729066997765,0.4660638525664806,-0.036870471757650375
1780626541600887600,7.150887451171875,-0.8632759949639439,0.5461480276286602,0.2638727624878287
1780626541610882600,7.160882568359375,-0.3347507177874446,0.7147656416684389,0.7495914558559655
1780626541620877600,7.170877685546875,0.24861177273094653,0.7937152597427368,1.1957359714657068
1780626541630872600,7.18087255859375,0.5095952435180544,0.6308697993636131,1.284912676782906
1780626541640867600,7.19086767578125,0.12405892586708069,0.25061200663745403,1.0334458068817853
1780626541650863400,7.20086328125,-0.38676322909742594,-0.1861117696762085,0.7841901832893491
1780626541660858600,7.210858642578125,-0.4656716383785009,-0.46722997373640535,0.5725608182579278
1780626541670853600,7.220853515625,-0.633035160703957,-0.566450810945034,0.22634061195105312
1780626541680848600,7.2308486328125,-0.8139496539980172,-0.6154805070519447,-0.23179741605222223
1780626541690843600,7.24084375,-0.734239865206182,-0.60724576267004,-0.6292661635592579
1780626541700838700,7.250838623046875,-0.38763942741006613,-0.37497663745284077,-0.7786115063741803
1780626541710833700,7.260833740234375,0.13450053264349698,-0.01051087262034416,-0.7836217357516289
1780626541720828400,7.270828369140625,0.6086997608706355,0.3103320235848427,-0.7987941704422235
1780626541730823400,7.280823486328125,0.983766414694488,0.5212152464240789,-0.8442989072933793
1780626541740818400,7.290818359375,1.1791866954639554,0.6346522405117749,-0.8544374394699931
1780626541750813400,7.3008134765625,1.4057713453039526,0.7277256610065698,-0.8069017813131213
1780626541760808400,7.310808349609375,1.723998506052792,0.703224841478467,-0.6242445360049605
1780626541770803500,7.320803466796875,1.7105878203377127,0.43152503862679004,-0.675130381372571
1780626541780798500,7.330798583984375,1.4622832138597965,-0.01551321095228195,-0.8984832096844911
1780626541790793500,7.34079345703125,1.2818060890696943,-0.37931788152754303,-1.0015589687556028
1780626541800788500,7.35078857421875,1.1400620150387286,-0.4214852906495333,-0.7692427895262837
1780626541810783700,7.36078369140625,0.9602359015032649,-0.20624270355701446,-0.35994185766726733
1780626541820778500,7.370778564453125,0.9640938921056688,0.016364274823665616,-0.10330226130336523
1780626541830773500,7.3807734375,1.0294411012850702,0.02354337267279625,-0.2517690677180886
1780626541840769500,7.39076953125,0.9874771057806908,-0.0061252048820257185,-0.5279883938208222
1780626541850764500,7.4007646484375,0.979428385490179,-0.019259996265172958,-0.6146300277024507
1780626541860759600,7.410759521484375,1.157860268188268,-0.14058394421041012,-0.6572822977319359
1780626541870754600,7.420754638671875,1.5076573100686073,-0.2927694788873195,-0.7426932207748294
1780626541880749600,7.43074951171875,1.6903867438301443,-0.40201252841651436,-0.8955033170908689
1780626541890744300,7.440744384765625,1.9418457226857542,-0.4157493773460388,-1.1450228523164987
1780626541900739300,7.4507392578125,2.404809563410282,-0.15575287176966665,-1.278131346079707
1780626541910734300,7.460734375,2.2526617303952574,0.4887064770072698,-1.196007774144411
1780626541920729300,7.470729248046875,1.5290294761821626,1.1629185744911432,-1.0312266695275902
1780626541930724600,7.480724609375,1.2575859861791132,1.5983821216106413,-0.8810980673804879
1780626541940719600,7.4907197265625,1.1926625553697348,1.9235493107557295,-0.6587398030638695
1780626541950714600,7.500714599609375,0.6792322637334466,2.25481130964458,-0.36764848652184007
1780626541960709600,7.510709716796875,-0.027896014924347397,2.394707271590829,-0.2482598905533552
1780626541970704600,7.52070458984375,0.034809447574615474,1.861762424406409,-0.6012053134620189
1780626541980699600,7.53069970703125,0.3102142424240708,0.935984965083003,-1.0421236188560723
1780626541990694400,7.5406943359375,0.17643062587827443,0.14613631764054297,-1.337478145800531
1780626542000689400,7.550689453125,-0.33533523967713114,-0.5996212591409683,-1.6715093171417712
1780626542010684400,7.560684326171875,-0.8774185020849108,-1.035277698484063,-1.6100634993150829
1780626542020680400,7.570680419921875,-0.7376189862504601,-0.7687427310496568,-0.8499749071031808
1780626542030675500,7.580675537109375,-0.4456242911279201,0.1239443595767021,0.4374354317143559
1780626542040670700,7.590670654296875,-0.6486287434160709,0.9676531920224427,1.4648676773950458
1780626542050665700,7.600665771484375,-0.8358855914741754,1.3583522992640733,1.79953451629132
1780626542060660500,7.610660400390625,-0.8657835938706994,1.1740022785633801,1.5123796624153851
1780626542070655500,7.620655517578125,-0.599834317369759,0.5498556499749422,0.8624436357930302
1780626542080650500,7.630650390625,-0.4338122727811336,-0.01619827060699463,0.1164987197458744
1780626542090645500,7.6406455078125,-0.54675446908921,-0.5841729301184415,-0.5940905130207538
1780626542100640500,7.650640625,-0.6074918463855982,-0.9933119494140148,-1.0238260378822683
1780626542110635500,7.660635498046875,-1.629293392702937,-0.9238871155321597,-0.8728291284680366
1780626542120630500,7.670630615234375,-4.111079812809825,-0.44216333701908583,-0.30682284642010926
1780626542130625500,7.68062548828125,-3.3877056250110265,-0.0825876823157072,0.3534326219037175
1780626542140620500,7.69062060546875,3.3270652783483263,-1.9939193165332079,-0.8874678946733474
1780626542150615600,7.700615478515625,1.1663286751955746,-1.9529040000557898,-0.5241515921369194
1780626542160610600,7.710610595703125,-0.8010022018805145,-1.4978706600695848,0.04940583594292402
1780626542170605300,7.720605224609375,0.07282879710644483,-1.8874960005998611,-0.23206395803391933
1780626542180600300,7.730600341796875,0.8419608197346329,-1.8230454479992388,-0.07040420030802488
1780626542190595600,7.740595703125,1.045645363241434,-1.681123533183336,0.040268882024288175
1780626542200591600,7.750591552734375,0.09351122739017009,-1.1834312011659145,0.30413024633526803
1780626542210586600,7.760586669921875,-0.6920423532068729,-0.4369517398506403,0.3718050216794014
1780626542220581600,7.77058154296875,-0.6564207124665379,0.3118430126696825,0.037225568805634976
1780626542230576600,7.78057666015625,-0.6152335465535521,0.7327572254329919,-0.5858405710697173
1780626542240571400,7.7905712890625,-0.032765959048271176,0.8240671433866024,-1.4748258845686912
1780626542250566400,7.80056640625,0.5231316014394164,0.8340700664848089,-2.223370753981173
1780626542260561400,7.8105615234375,-0.17411738049983977,0.9570131400644779,-2.6323841010704636
1780626542270556400,7.820556396484375,-1.3007704633891581,0.6783715552508831,-3.054909256161749
1780626542280551400,7.830551513671875,-1.4470733697682618,-0.23632979878485202,-3.5440041479647157
1780626542290546400,7.84054638671875,-0.6136658588454127,-0.6305787074625492,-3.1827944623187183
1780626542300541400,7.85054150390625,0.03982230730056763,-0.551551347976923,-2.225990873351693
1780626542310536700,7.86053662109375,0.6099778179824352,-0.2432353403896093,-0.7600152347147464
1780626542320531700,7.87053173828125,1.3169094050243497,-0.012690554746985435,0.43954877060651776
1780626542330526500,7.8805263671875,2.0481237849295137,0.19489304202497004,1.5740777014374732
1780626542340521500,7.890521484375,2.4744608995243906,0.33989947885274885,2.522079559789598
1780626542350516500,7.9005166015625,2.429927638053894,0.40874095988869663,2.865732838217914
1780626542360511500,7.910511474609375,2.403499065333605,0.48985038634538647,2.9539354378059506
1780626542370507500,7.920507568359375,2.5940301127567884,0.6194213536322116,3.0400898726925254
1780626542380502500,7.93050244140625,2.794092081852257,0.6548579931944608,3.0319015978008506
1780626542390497500,7.94049755859375,2.4657331109285354,0.4691173949182033,2.7012738051623106
1780626542400492500,7.950492431640625,1.6476476723000406,0.2306236960977316,2.206186394946277
1780626542410487300,7.9604873046875,0.720319476403296,-0.19310323599874973,1.5725781105294823
1780626542420482300,7.970482421875,0.32703838984444733,-0.5488952805101871,0.9055413115024566
1780626542430477600,7.9804775390625,0.4090948878929019,-0.39734629017114637,0.525306899651885
1780626542440472600,7.99047265625,0.6007727672636508,0.03463876718282699,0.17872750464379786
1780626542450467600,8.000467529296875,0.8054092046678066,0.5765466730237007,-0.0375356576681137
1780626542460462600,8.010462646484376,0.8663149242684245,1.1964204465985298,0.15527882451713085
1780626542470457600,8.02045751953125,0.8605795954868197,1.5806079799890518,0.4016837348535657
1780626542480452600,8.03045263671875,0.964646411421895,1.6111293749809263,0.6188342013940215
1780626542490447600,8.040447509765626,0.9184849642276763,1.3909920015841721,0.8650283915892243
1780626542500442600,8.050442626953124,0.6320391354039311,1.0512053354561328,1.1184098629400134
1780626542510437400,8.060437255859375,0.35045243704915047,0.6834434516876936,1.2889943931385874
1780626542520432600,8.0704326171875,0.08018062117397785,0.5170657255291938,1.5818755157068372
1780626542530427600,8.080427734375,-0.017946283318102357,0.3775999716937542,1.839953328180313
1780626542540422700,8.090422607421875,0.23182108918875455,0.40884558930695053,2.0414158117234704
1780626542550418700,8.100418701171876,0.5296159950226546,0.8276198674321175,2.244676869121194
1780626542560414000,8.1104140625,0.5019833072096109,1.3023831592828035,2.2834552203267813
1780626542570408700,8.12040869140625,0.3462035474330187,1.4418115037173032,1.9839125940427182
1780626542580403700,8.13040380859375,0.3246832050204277,1.1512474259197711,1.502640650950372
1780626542590398700,8.140398681640624,-0.18362521355748176,2.010425630176067,2.3206425029486417
1780626542600393700,8.150393798828125,0.12248773102760314,2.1930466351270677,2.3111048592746255
1780626542610388700,8.160388671875,0.827307148221135,1.7629478299111128,1.4286062774464487
1780626542620383700,8.1703837890625,1.096151561641693,1.4110592225790024,0.44552872179895636
1780626542630378800,8.180378662109375,1.1394921061962842,1.038745082333684,-0.4074871604353189
1780626542640373800,8.190373779296875,1.0847890406280756,0.7868453739732504,-0.8396791385382414
1780626542650368800,8.20036865234375,0.4581652082711458,0.8628793968617916,-0.5913502744019031
1780626542660363800,8.21036376953125,-0.20487784494459627,1.0059902292013168,-0.03486673071980476
1780626542670358800,8.22035888671875,-0.13877894061505794,1.0604501336634158,0.3577776653707027
1780626542680353500,8.230353515625,0.6043149699151515,1.0635480996787547,0.5025619838804006
1780626542690348500,8.2403486328125,1.1206102955937385,1.188107960805297,0.5992763912260533
1780626542700343600,8.250343505859375,1.3431558991760015,1.4733838690668344,0.7746542931810021
1780626542710339800,8.26033984375,1.6440899798184632,1.9117565816313027,1.1302715656474231
1780626542720334800,8.2703349609375,1.5330360814750195,2.3277321689486503,1.3667644460394979
1780626542730329900,8.280329833984375,0.8271183476507663,2.3509306737065314,1.3594424325883387
1780626542740324600,8.29032470703125,-0.2099099938929081,2.1698843707263467,1.0067138673007487
1780626542750319600,8.300319580078124,-1.5921026029497385,1.651259433056414,0.31709406506568194
1780626542760314600,8.310314697265625,-1.7889736670494079,1.0032301168382167,-0.0221294142216444
1780626542770309600,8.3203095703125,-0.4802326631724834,0.7395958392813802,0.31642244941443204
1780626542780304600,8.3303046875,1.2011007133692502,1.1148322967141866,1.6195502895846963
1780626542790299600,8.340299560546875,1.9526152462422846,1.5920429817169903,2.3708894658908246
1780626542800294700,8.350294677734375,0.8504945470631122,2.039111918695271,2.260588724002242
1780626542810289700,8.36028955078125,-0.7368044549971818,1.967158150857687,1.2714932232394813
1780626542820284700,8.37028466796875,-1.7290514055281876,1.6080036441758274,0.37050972117185593
1780626542830280000,8.380280029296875,-2.2473300139784813,1.3566378965616226,0.23280834666043518
1780626542840274700,8.390274658203126,-2.2234067020773884,1.1367284867018461,0.48505438424050806
1780626542850269700,8.400269775390624,-2.218650447461009,0.9997861138641834,0.718795627836883
1780626542860264700,8.4102646484375,-2.2502912018716335,0.9755001061305403,0.8632619664385914
1780626542870259700,8.420259765625,-1.6636743857324123,1.201622253025323,0.6784738465815782
1780626542880255700,8.430255859375,-1.7850281442940235,1.7774781673058866,0.043972704978287216
1780626542890250800,8.440250732421875,-3.2372505673885343,2.1952574430443343,-0.7934861271619796
1780626542900245800,8.450245849609376,-3.8231957678765056,2.3417611326925454,-1.4092729236841202
1780626542910240800,8.46024072265625,-3.8454274734288454,2.096344648871571,-1.8417755751714109
1780626542920235500,8.470235595703125,-4.195710399129987,1.7601769038930535,-1.640466528624296
1780626542930230500,8.48023046875,-3.905387728872895,1.3772139438614248,-0.9502695110231637
1780626542940225800,8.490225830078124,-3.483077677837014,0.7280955902975053,-0.5930237605720758
1780626542950220800,8.500220703125,-3.0420804619878528,0.10645970242097973,-0.7572866865336895
1780626542960215800,8.5102158203125,-3.1970781314760446,-0.4136653376135975,-1.3794278205186128
1780626542970210800,8.5202109375,-3.8256244563281534,-0.5175092315129936,-2.004728295317292
1780626542980205800,8.530205810546875,-3.326510567075014,-0.4643246076837182,-2.175959891247749
1780626542990200800,8.540200927734375,-2.1988275566160675,-0.317683263130486,-2.073515415817499
1780626543000195800,8.55019580078125,-2.3657751916170118,0.057811991368979215,-1.5781518190085888
1780626543010190800,8.56019091796875,-2.1147353149563073,0.26105975089371203,-1.0319687200665473
1780626543020185600,8.570185546875,-1.6700316458046436,0.059141924798488614,-0.9763643217444419
1780626543030180600,8.5801806640625,-1.1358756692647933,-0.32565438814014197,-1.1192290703684091
1780626543040176600,8.5901767578125,-1.6265958241820335,-0.6246503403268754,-1.712183857357502
1780626543050171600,8.600171630859375,-2.191775300016999,-0.7404838741622864,-1.8377993650168178
1780626543060167000,8.6101669921875,-0.5155751947104931,-0.8877981495410203,-2.05413617708683
1780626543070162000,8.620161865234374,0.4840945992976427,-0.8125891792997717,-2.442732174569368
1780626543080157000,8.630156982421875,0.3369593337476253,-0.9550381867296993,-3.2859973549008368
1780626543090151700,8.640151611328125,-1.2171136905372142,-1.1737062182262539,-3.863264743414521
1780626543100146700,8.650146728515624,-2.5633979508668183,-1.0559504841566085,-3.6864819430977103
1780626543110141700,8.6601416015625,-2.675341491526365,-1.019942912838608,-2.8343606716156002
1780626543120136700,8.67013671875,-2.1232348477542398,-0.7971523945845663,-1.3930150318443775
1780626543130131700,8.680131591796876,-0.755034523692727,-0.6920056744582951,-0.020925299128890035
1780626543140126700,8.690126708984375,-1.0074339982688427,-0.6284624459609389,0.893112038040161
1780626543150121700,8.700121826171875,-2.460509823322296,-0.7069241343878209,0.44896015755236146
1780626543160116700,8.71011669921875,-2.2055495583474634,-0.530918602053821,-0.6107195762604475
1780626543170111700,8.72011181640625,-1.1857751339435576,0.21425284540280698,-0.8732488151848316
1780626543180106800,8.730106689453125,-0.22173136458992956,0.6458332674786448,-0.8277192361533642
1780626543190101500,8.7401015625,-0.7232593292474746,0.33850890127718447,-0.8820213197052478
1780626543200096500,8.750096435546874,-1.6165210048913954,-0.12549188127964733,-1.1142723247438668
1780626543210092800,8.7600927734375,-0.9276257175385951,-0.12828063521534203,-1.2174673262804745
1780626543220087800,8.770087890625,-0.2578372817158699,0.34848026019334793,-0.7342091778069734
1780626543230082800,8.780082763671874,0.10061316834986209,1.007479883237183,0.017628011149168014
1780626543240077800,8.790077880859375,-1.0342425102174282,1.3534538596980272,0.3725800977051258
1780626543250072800,8.80007275390625,-0.9888409414798021,0.9721313603498041,0.4722597845971584
1780626543260067600,8.810067626953124,-0.5062041397750378,0.5800647641472518,0.828946732121706
1780626543270062600,8.8200625,-0.25484102250933643,0.44299657297283407,0.9982646033853292
1780626543280057600,8.8300576171875,0.5407195728391408,0.3577032849602401,0.9175532363355159
1780626543290052600,8.840052490234376,0.828301419955492,0.28387510155290363,0.7867670480400324
1780626543300047600,8.850047607421875,0.5245592961549759,-0.004338175334781408,0.48947629233598705
1780626543310042600,8.860042724609375,-0.15016776511371135,-0.4555512263804674,0.27394319786429405
1780626543320038000,8.870037841796876,-0.6519774693220853,-0.6509905041113495,0.1786298894882202
1780626543330033000,8.880032958984375,-1.2548492546916008,-0.6124862936720251,0.2231973454892635
1780626543340028000,8.89002783203125,-1.7092594943433999,-0.7403929810084402,0.4696721061915159
1780626543350023000,8.90002294921875,-1.4849147323846816,-0.9772213769651948,0.6575707592844963
1780626543360018700,8.910018798828125,-1.2957786464512346,-1.2004665071189402,0.7414625099360942
1780626543370013700,8.920013671875,-1.3847382018864154,-1.307929833624512,0.5919488248169422
1780626543380008700,8.9300087890625,-1.4896692334353923,-1.2123552439637482,0.5397083499699831
1780626543390003700,8.940003662109374,-1.756912056878209,-0.9542023204274475,0.5687970818102359
1780626543399998700,8.949998779296875,-1.8093015848070382,-0.6169843357436359,0.23174831621348857
1780626543409993700,8.95999365234375,-1.3307155197978018,-0.21220497296229004,-0.10931728380918503
1780626543419988700,8.96998876953125,0.1177145252764225,0.27980229915603994,0.07997077781558036
1780626543429983500,8.9799833984375,2.597470316338539,0.6549776740513742,0.6214724409431219
1780626543439978800,8.989978759765625,4.589460710635781,0.7755218697957694,1.2601000148266552
1780626543449973800,8.999973876953124,4.262839231029153,0.3332968657173216,1.4907394930154085
1780626543459968800,9.00996875,1.4331962355852126,-0.7243333882197738,1.407823893919587
1780626543469963800,9.0199638671875,-1.8910089771568774,-1.7658939663656055,1.565640712481737
1780626543479958800,9.029958740234376,-4.056026618629693,-2.3173962145037947,1.9279291332751511
1780626543489953800,9.039953857421875,-4.767009819149971,-2.404346914334595,2.642334709459543
1780626543499948800,9.04994873046875,-3.3029642717927694,-2.0379111646033823,3.7281250360846516
1780626543509944600,9.059944580078126,-1.4884019899785519,-1.0406833569198846,4.225810061578453
1780626543519939600,9.069939697265625,-0.06578560059666633,-0.3092486122623086,1.9839906277149915
1780626543529934600,9.0799345703125,0.36825112859010695,-0.16422639334350822,-0.9324640974804759
1780626543539929600,9.0899296875,0.5678074862509965,0.3666812489248812,-2.4091259653046726
1780626543549924600,9.099924560546874,0.6462520774126053,0.7565057652890682,-3.001506751798093
1780626543559919900,9.109919921875,0.2761059288561344,0.1264541504405439,-2.884854595056176
1780626543569915000,9.119914794921876,0.09108721511363983,-1.1149652754440904,-1.774720977552235
1780626543579910000,9.129909912109374,0.23658406580686567,-2.0477726334042847,-0.06958470061868428
1780626543589905000,9.13990478515625,0.4302992962241173,-2.2872928987935186,1.1260340742081403
1780626543599899600,9.149899658203125,-0.18465397208333015,-2.1027248514279724,1.0499883608818052
1780626543609894700,9.159894775390624,-1.055628997117281,-1.8517413811296224,0.7829708706274628
1780626543619889700,9.1698896484375,-0.6653887395590543,-1.4586748141042887,0.6805503605946898
1780626543629884700,9.179884765625,0.26271453236341474,-0.5972241348713636,0.28508739995211363
1780626543639879700,9.189879638671876,0.9811188227951526,0.26955577656030655,-0.5404805033862591
1780626543649874700,9.199874755859375,1.0341139154016972,0.8858904162235558,-1.340235920076072
1780626543659869700,9.20986962890625,0.613406038865447,1.1746505133390426,-1.4695041050240396
1780626543669865700,9.21986572265625,-0.04868249010443687,1.1319123185917734,-1.202488660596311
1780626543679860700,9.22986083984375,0.4255295976042747,0.8431913844428957,-0.7454682384461164
1780626543689855700,9.239855712890625,0.7339099025994539,0.4371368871591985,-0.4096528140366077
1780626543699850800,9.249850830078126,0.22470365839898584,0.29026348741576075,-0.29366730450987816
1780626543709845800,9.259845703125,0.3615074995487928,0.4710154836244881,0.23389234250485896
1780626543719840800,9.2698408203125,0.0002829085946083069,0.766482823293656,0.5078419701099396
1780626543729835800,9.279835693359376,-0.3747089264273643,0.884548938486725,0.28196342271268365
1780626543739830800,9.289830810546874,0.4549228653490543,1.0410969061568378,0.3789414494305849
1780626543749825800,9.29982568359375,0.17226561515331268,1.1454461922951042,0.32123949430733917
1780626543759820800,9.30982080078125,0.3262736890822649,0.8344244328804313,0.0033870120897889137
1780626543769815800,9.31981591796875,0.8248059790551662,0.3768349786706269,-0.09279869520664215
1780626543779810600,9.329810546875,0.37661914396286006,0.13042962994277477,-0.194999425008893
1780626543789805600,9.3398056640625,0.618629910993576,0.2619268891170621,-0.3304311010226607
1780626543799800600,9.349800537109376,1.2350655268132686,0.6777127990812063,0.08503449094593525
1780626543809795600,9.359795654296875,0.3385159155398607,0.7515951968938112,0.5482587361723185
1780626543819792000,9.3697919921875,-0.34889994691014287,0.7112532496333122,0.42090924432724713
1780626543829787000,9.379786865234376,0.08291910622715949,0.7552896674975752,0.19244740243852138
1780626543839782000,9.389781982421875,-0.2378290974318981,0.9537018235594034,-0.13803601329326629
1780626543849776600,9.399776611328125,0.08313304123878479,1.127656999234855,-0.39811464419513937
1780626543859771600,9.409771728515626,0.6440227109253406,0.7090005022704601,0.042754561360180375
1780626543869766700,9.4197666015625,-0.12188333539366722,0.09387070835232735,0.31925445796996355
1780626543879761700,9.42976171875,0.5062649300515651,0.02501432200819254,0.6769494134932756
1780626543889756700,9.439756591796876,0.655008799842,0.21605448799729346,0.5989940671533346
1780626543899751700,9.449751708984374,0.4620657228410244,0.4948752287700772,0.07689502363204956
1780626543909746700,9.45974658203125,0.7803548429101705,0.5625517576798796,-0.12491349686980247
1780626543919741700,9.46974169921875,0.47994274031519885,0.43322102888971564,-0.35813977668136354
1780626543929736700,9.47973681640625,0.5137783744215965,0.37690176029652356,-0.7082561136439443
1780626543939731700,9.489731689453125,0.9804676654100417,0.24908845033198593,-0.817592394414544
1780626543949726700,9.499726806640625,0.5632043763697147,0.004178454728424549,-0.6506821688145399
1780626543959721700,9.5097216796875,0.5119388840347529,-0.008513269062340258,-0.32081396237164733
1780626543969717800,9.5197177734375,0.9638087915539741,0.1067524017572403,0.4021835010692477
1780626543979712800,9.529712646484375,0.8090800021350383,0.2888902993664145,0.5837856843665242
1780626543989707800,9.539707763671874,1.5267209069788454,0.7194780571430921,0.7721402645334601
1780626543999702800,9.549702880859375,1.5493869122952222,0.7973913179069757,1.452589795102179
1780626544009697800,9.55969775390625,-0.3632511283457279,0.2170391151204705,1.8865292013943193
1780626544019692500,9.569692626953126,0.0455833550453186,-0.1901198362737894,1.95466604129225
1780626544029687600,9.5796875,1.0340928726136684,-0.3158735833600163,1.198400514499843
1780626544039682600,9.5896826171875,0.12709960873723028,-0.03887947349250316,-0.04106704666465521
1780626544049677600,9.599677490234376,0.055630117285251614,0.338138606660068,-1.0605649922147393
1780626544059672800,9.6096728515625,0.15478607256412505,0.30311873120516536,-1.402730662433803
1780626544069667800,9.619667724609375,-0.10156418546438216,0.4839361938655376,-1.5175100110411643
1780626544079662800,9.629662841796875,0.4976999308019876,0.8766481022343039,-1.3742667844936252
1780626544089657900,9.639657958984374,0.4766571427732706,0.797476365841925,-0.5008269767813385
1780626544099652900,9.64965283203125,-0.1833399668753147,0.4004693906277418,0.5540617233626545
1780626544109648000,9.65964794921875,-0.037509938704967494,0.2015896170541644,1.7706877765133975
1780626544119643600,9.6696435546875,0.3436521093845367,0.049229894854128355,1.8103268362015486
1780626544129638700,9.679638671875,1.5248293941438198,0.17451617055907845,0.4772761514544487
1780626544139633700,9.689633544921875,1.5826000305891037,0.5411055034168064,-0.7879599110864103
1780626544149628700,9.699628662109374,1.3783376871943473,0.49396147492602466,-1.1741235668554901
1780626544159623700,9.709623779296875,0.6843652427077292,0.25387889947891235,-0.8249955102778971
1780626544169618700,9.71961865234375,1.1580091751396655,0.47431247934326526,-0.12013488429114222
1780626544179614000,9.729614013671876,-0.19117256019711493,0.7048559498116374,0.5820910092778504
1780626544189608700,9.739608642578125,-0.743178666204214,1.0740510812535882,1.1625132085606456
1780626544199603700,9.749603759765625,1.1548363903224468,1.0869134854361415,1.0068344249404966
1780626544209598700,9.7595986328125,0.8140361632376909,0.8139534533903002,0.13463394976481793
1780626544219593700,9.76959375,1.6755869418442249,1.081798918901384,-1.0016960391387342
1780626544229588700,9.779588623046875,4.539457785582542,1.4035564457334577,-1.881786975303292
1780626544239583700,9.789583740234375,2.957263413184881,1.4683299466781317,-2.452804071250558
1780626544249578800,9.799578857421874,3.349808440554142,1.4907394930154085,-2.0632032806396485
1780626544259573800,9.80957373046875,3.910058058771491,1.2862291662089527,-1.0277122316658496
1780626544269569500,9.819569580078126,1.7404536740303038,1.29350763277933,-0.1956779087923467
1780626544279564500,9.829564453125,1.5055179599523543,1.485135973919928,0.6282527487330138
1780626544289559800,9.839559814453125,0.4548959773421287,1.648187770526111,1.249253918902576
1780626544299554800,9.849554931640625,-0.44589784737229343,1.5940809172853827,1.2666017979361117
1780626544309549800,9.8595498046875,0.5542857413768768,1.2834293063573539,0.867432091730088
1780626544319544800,9.869544921875,-1.9642068998366593,1.077534101063758,0.3543953294560313
1780626544329539800,9.879539794921875,-3.013013941979408,0.9029131549559533,0.28847864982560273
1780626544339534800,9.889534912109376,-2.7459499822348357,0.6205754921033978,0.47112500841356814
1780626544349529900,9.89952978515625,-1.2965455391705036,0.26707754987850785,0.33805246274657547
1780626544359524600,9.909524658203125,2.958003417897224,0.14297463873922825,-0.32207097669541834
1780626544369519600,9.91951953125,3.0996728192567824,0.8036094617694616,-1.1312334694821387
1780626544379514600,9.9295146484375,1.704383997261524,1.327267863561958,-1.585963223411888
1780626544389509600,9.939509521484375,2.173470412519574,1.5055464553944766,-1.1992668490055949
1780626544399504600,9.949504638671876,1.6420026521503925,1.3413411048389972,-0.19932985542863607
1780626544409501000,9.9595009765625,2.238279277038574,0.9005759441800415,0.9785813402067869
1780626544419496000,9.969495849609375,0.42450317716598507,0.24807927328944204,1.9443635507255792
1780626544429490700,9.97949072265625,-1.5304700303792953,-1.105101760816574,2.1185402601972223
1780626544439485700,9.989485595703124,0.11142448522150517,-2.2519516824297607,1.5470749820910392
1780626544449480700,9.999480712890625,-2.268463987421989,-2.4552625703185798,0.8042744284842163
1780626544459475700,10.009475830078125,-4.790184358510375,-2.0268531794942914,0.8400158231467008
1780626544469470700,10.019470703125,-3.556335221749544,-1.1664202990017831,1.366790165002644
1780626544479465700,10.0294658203125,-0.7854881141453981,-0.5436373599819838,1.8667244307279585
1780626544489460700,10.039460693359375,-1.612957759451866,-0.3213351367015391,1.9183517421126364
1780626544499455700,10.049455810546876,1.0315332512587307,-0.36800548326596616,1.422729202106595
1780626544509450800,10.05945068359375,1.8744997409045696,-0.33150084914602335,0.4889715576842427
1780626544519445200,10.0694453125,-0.165720723554492,-0.3753578187901526,-0.9200975139908492
1780626544529440300,10.079440185546876,0.6573498100101948,-0.34073001139275727,-2.3834362282529473
1780626544539435300,10.089435302734374,-0.5854582937538624,-0.8099263167660683,-3.0557030368879436
1780626544549431300,10.099431396484375,-1.3439900119125843,-1.7108089157424866,-2.4755127466648816
1780626544559426300,10.10942626953125,-4.272828125602007,-2.5435037483513354,-0.8445769935823977
1780626544569421300,10.11942138671875,-3.9283728831410407,-3.235387988387048,0.8960380084894597
1780626544579416300,10.129416259765625,1.1940484567701817,-2.7829756445541975,2.006641727723181
1780626544589411300,10.139411376953126,0.38700843603014945,-1.665231844307482,1.3523309931479393
1780626544599406300,10.14940625,1.9493793330609797,-0.08326762740388512,-0.2736699338808656
1780626544609401300,10.1594013671875,1.913548141223192,1.5266460881769657,-1.409891493973881
1780626544619396000,10.16939599609375,1.55422149284482,2.6975056848004457,-1.96859329822734
1780626544629391000,10.17939111328125,0.8356032674014567,3.5546515064463016,-2.0471584470286963
1780626544639386000,10.18938623046875,0.8234966500222682,3.4972894508019086,-1.3808587301045656
1780626544649381000,10.199381103515625,-0.5326303744077682,2.551932261739671,-0.35500615483075376
1780626544659376400,10.20937646484375,-4.883056703475117,1.1506054016891867,-0.054074594938941296
1780626544669371400,10.219371337890625,3.003528320753574,-0.10402363438047468,-0.43719457216318697
1780626544679366400,10.229366455078125,0.3331868294715881,-0.5322860179495066,-0.4932329049231484
1780626544689361400,10.239361328125,-1.7679706265091895,-0.583441108712554,-0.6648734835132956
1780626544699357200,10.249357177734375,0.035351883888244624,-0.5953593273801728,-0.33841073813233524
1780626544709352200,10.259352294921875,1.2859119169533253,-0.7321019763946532,-0.08194995980090461
1780626544719347200,10.26934716796875,0.39165070887804027,-0.5153907780542969,-1.0197035511247814
1780626544729342200,10.27934228515625,-1.0985305657327173,-0.01754062512665987,-2.1368407637804747
1780626544739337200,10.289337158203125,-0.842264478856325,0.29837475154846904,-2.5308605398774144
1780626544749332200,10.299332275390626,0.777493023738265,0.3104246337717399,-2.487530516716838
1780626544759327200,10.3093271484375,-3.2699662575542923,0.0998489790443331,-2.1487110881857574
1780626544769322200,10.319322265625,-2.0444015495359897,-0.32046500280350443,-1.9903492029614744
1780626544779317500,10.3293173828125,4.390909730625152,-0.7188638707675039,-2.214259519025683
1780626544789312300,10.339312255859374,-4.353850458297133,-0.9528311782047152,-1.7223979389883577
1780626544799307300,10.349307373046875,-5.069669408410787,-1.1206300962727516,-0.613226882906258
1780626544809302300,10.35930224609375,0.46073768910765645,-0.8491212128832936,1.0049927425965666
1780626544819297300,10.36929736328125,3.843954478266835,-0.003083489965414628,2.1374385835431515
1780626544829292300,10.379292236328125,1.1819155359059572,0.9922365022022277,1.9619429004274307
1780626544839288300,10.389288330078125,2.951256281724572,1.664258323100209,1.2131454444933683
1780626544849283300,10.399283447265624,3.5763638642996547,1.9628741899281739,0.357815184369497
1780626544859278000,10.409278076171875,2.333131982165575,1.6972554605558514,-0.29876391526283697
1780626544869273000,10.419273193359375,1.6091536909937858,1.0596633671998976,-0.24860516032706945
1780626544879268000,10.42926806640625,-2.0952450170665977,0.19100564266499132,0.47987365713436153
1780626544889263000,10.43926318359375,-1.4601567232251167,-0.5023240834712982,1.4558163559332489
1780626544899258400,10.44925830078125,-1.1492974608957767,-0.6240757553093135,1.4955442629486322
1780626544909253400,10.45925341796875,-0.17220833200812338,-0.10042914441931061,0.9498410564780235
1780626544919248400,10.469248291015624,0.9442775771319866,0.5334507508799433,0.6020531989956275
1780626544929243400,10.479243408203125,2.3768600647330285,1.1503315531838685,0.7007016796763986
1780626544939238400,10.48923828125,5.047871418100595,1.6400708073049783,1.0277147158838809
1780626544949233400,10.4992333984375,1.5347282723456621,1.5746302207536995,0.7929743051823228
1780626544959228200,10.509228271484375,-0.7168857025623321,0.9879200272426009,0.6341259516153485
1780626544969223200,10.51922314453125,1.6497727016299961,0.7346413586791605,1.6157587883472442
1780626544979219200,10.52921923828125,1.9509446826815604,0.7615901558812708,2.2114690115243194
1780626544989214200,10.539214111328125,1.6527473335266112,1.1314812336981297,1.542995749953389
1780626544999209200,10.549209228515625,2.743902402055263,1.516038038792461,1.0867838677071033
1780626545009204200,10.559204345703124,1.0003308882653712,1.469732945343852,0.5132204482778907
1780626545019199500,10.569199462890625,1.6346411834716796,1.3444281110689043,0.36762262142822144
1780626545029194200,10.5791943359375,-0.6555372076302767,0.9261531607680022,0.5662878754682839
1780626545039189200,10.589189208984376,0.8749906904160976,0.5963131940389051,1.182672784014046
1780626545049184300,10.599184326171875,4.2328503354787825,0.5694544862730428,1.7099067062057554
1780626545059179300,10.60917919921875,1.0134691867798566,0.5754088646328076,0.8922843550443649
1780626545069174300,10.61917431640625,0.4655366138219833,0.7371187085781246,0.15172489489521832
1780626545079169300,10.629169189453124,1.375917766571045,1.1200644252140075,0.17284659337904304
1780626545089164300,10.639164306640625,2.451863575530052,1.4837489034757017,-0.016745821487158537
1780626545099159300,10.6491591796875,1.9943699829101562,1.8374159186571835,-0.6047314052289351
1780626545109154300,10.659154296875,0.9876187062084675,1.7675626302301883,-0.9218011030383407
1780626545119150000,10.669150146484375,-0.6712298668026924,0.4592156671721488,-1.164002570335567
1780626545129145300,10.679145263671876,-4.295739045590162,-1.632227108067274,-1.326819096881151
1780626545139140400,10.689140380859374,-5.087676774266362,-3.2376679160177706,-0.8650840672992169
1780626545149135400,10.69913525390625,-3.4215292764186858,-4.091026620340347,-0.6234661720436065
1780626545159130400,10.70913037109375,-5.499834264600277,-4.269052698716521,-1.143354919104278
1780626545169125400,10.71912548828125,-4.605944227924943,-3.7056340950742364,-1.5312139806143938
1780626545179120400,10.729120361328125,-0.7445183903753757,-2.771710446435213,-1.3285146487526596
1780626545189115400,10.739115478515625,3.362025532570481,-1.930992027977109,-1.1725589478872716
1780626545199110100,10.749110107421876,0.8137462403804063,-1.0787040216259658,-1.0221147039197385
1780626545209105200,10.759105224609375,-5.325256280851364,-1.083598077277839,-0.5161779829092323
1780626545219100200,10.76910009765625,-3.5485926447987555,-1.7496861972779034,0.42955154659673567
1780626545229095200,10.77909521484375,-0.05122516032457351,-2.2613372042819857,0.6433139050688594
1780626545239090200,10.789090087890624,-3.2358570672035216,-2.1108801008328792,0.03222125771231949
1780626545249086500,10.79908642578125,-3.477612982690334,-1.808998217946291,-0.7293122726108878
1780626545259081500,10.80908154296875,-1.1742717431545258,-1.6188658144518733,-0.7881112291906028
1780626545269076200,10.819076171875,-1.0756360123574733,-1.2027088792182505,-0.49160786100458354
1780626545279071200,10.8290712890625,-0.3639928866237402,-1.1433012892208994,-0.5771415336443111
1780626545289066200,10.839066162109376,-0.976884546226263,-1.4793287489458917,-1.070838622013107
1780626545299061200,10.849061279296874,-2.724311566400528,-1.5157799723781644,-1.926720926529169
1780626545309056300,10.85905615234375,-2.8664252043962475,-1.3058525889590382,-1.9053999060809612
1780626545319051300,10.86905126953125,-3.8988288087487217,-0.8158999112829566,-1.4731220032602548
1780626545329046300,10.87904638671875,-2.800466585320234,-0.24112317054122684,-1.2248420928321777
1780626545339041300,10.889041259765625,2.1622148590117694,0.6456055962026119,-0.07347834705635904
1780626545349036300,10.899036376953125,1.2583558015078304,1.000211572734639,-0.2803814142182469
1780626545359031300,10.90903125,-0.2574801388412714,0.520385590666905,-1.5074970049403607
1780626545369026300,10.9190263671875,1.622439289024472,0.29775493914969264,-1.3695406327545643
1780626545379022300,10.929022216796875,1.6866566173911093,0.4272068831667304,-0.671639397451654
1780626545389017300,10.939017333984374,0.7554302450120448,0.5754529595028609,-0.30138650058507915
1780626545399012400,10.949012451171875,0.5692202756583691,0.5990392214693129,-0.02802990696970373
1780626545409007400,10.95900732421875,0.2793395039498806,0.8429182665899395,0.5550744075365365
1780626545419002400,10.96900244140625,1.545976227068901,1.0804919279560445,0.8554038002841174
1780626545428997400,10.978997314453125,1.7837538865745066,0.711624347968027,0.28715280804932114
1780626545438992400,10.988992431640625,-0.011829554003477096,0.10852975016068667,-0.5454436787515878
1780626545448987100,10.998987060546876,-1.0699199727982283,-0.6604390081971884,-0.5806971802992746
1780626545458982100,11.008982177734374,-2.7843279359459876,-1.5284623438186942,-0.6350853712320328
1780626545468977200,11.01897705078125,-1.5787772574305534,-1.8749150437071918,-0.6024798269098625
1780626545478972200,11.02897216796875,-2.107655001306534,-1.592756098422408,-0.39197891791909933
1780626545488967200,11.03896728515625,-3.891585413491726,-0.8850669710114598,-0.07656107896994799
1780626545498962200,11.048962158203125,-1.6284312229156492,-0.12641148034259675,0.46893323399033393
1780626545508957200,11.058957275390625,-1.5752818165302276,0.3207485689852387,0.6878593684338032
1780626545518953200,11.068953125,-1.7656091580748556,0.40565914129056035,0.4314133949458599
1780626545528947700,11.07894775390625,2.5535370665878054,0.31737854456286874,0.38628337315861133
1780626545538942700,11.088942626953125,3.4680127951741215,0.10655724451132118,0.5541529087774455
1780626545548937700,11.098937744140626,3.8110657696217296,-0.31706261048149315,0.2775726952067576
1780626545558932700,11.1089326171875,4.920730892831087,-0.7396217774402349,-0.016577182355406693
1780626545568927700,11.118927734375,4.676503034272789,-1.2891922537982463,-0.03667541497643106
1780626545578922800,11.1289228515625,3.9260628526329993,-1.7717133201688526,0.37088629939928647
1780626545588917800,11.138917724609374,3.6497149317145348,-1.676875520350039,1.6841938805393875
1780626545598912800,11.148912841796875,4.213597353476286,-0.8785605847921222,3.8389498018473383
1780626545608907800,11.15890771484375,5.331115528273582,0.13547940587932242,5.570461460009217
1780626545618902800,11.16890283203125,2.657821616926789,0.8147111398898065,6.2295975689142935
1780626545628897800,11.178897705078125,0.5468401015460491,1.8516887741595505,6.654252137249708
1780626545638892500,11.188892578125,2.3904870235472915,2.1504688916385173,5.891840947309136
1780626545648888800,11.198888916015624,3.1994460296511646,1.6415788737803696,3.568990705183148
1780626545658883800,11.2088837890625,0.9241647634297608,1.6504431482374666,1.073238303565979
1780626545668878800,11.21887890625,-0.7986614839732646,2.200186131618172,-0.546580500761792
1780626545678873900,11.228873779296874,-0.48471945319771764,2.3627782017581165,-1.5337361925683914
1780626545688868900,11.238868896484375,-1.6285744307786225,1.7838021096304058,-2.686302153740823
1780626545698863900,11.24886376953125,-3.7014001107662913,1.2096397013947366,-3.747533500909805
1780626545708858600,11.258858642578126,-3.0363293511152265,1.502028218140453,-3.071846946959197
1780626545718853600,11.268853515625,0.7094587674319743,1.3219599664121866,-2.031051361836493
1780626545728848600,11.2788486328125,3.315497005629539,0.3284954567849636,-1.9450193842858075
1780626545738843600,11.28884375,1.3788579116761683,0.14667071677818894,-2.4271812619552016
1780626545748838700,11.298838623046874,-2.477800565341115,-0.4341974727064371,-3.7053909339681264
1780626545758833700,11.308833740234375,-4.234427375537157,-1.1197668305069208,-4.169270135971904
1780626545768829000,11.318828857421876,-2.186190193361044,0.7978238641053438,-1.2484510780870914
1780626545778824700,11.32882470703125,0.7515455125331878,2.506318511556089,1.947871851107478
1780626545788819700,11.33881982421875,2.5646950049400328,2.969110210584104,3.7116684068024157
1780626545798814700,11.348814697265626,4.584825452050566,2.7884105290845036,3.379494846026599
1780626545808809700,11.358809814453124,2.3487539141893388,1.7713386416375636,1.2158936472229658
1780626545818804700,11.3688046875,-2.7576152855873106,0.3643070671394467,0.06990012324340641
1780626545828799700,11.3787998046875,-5.277775567752123,-0.9731681560516356,0.23733671080507338
1780626545838794800,11.388794677734374,-2.006248636752367,-1.3194219723671674,0.7285846889887004
1780626545848789800,11.398789794921875,3.264036282983422,0.08941811285763979,1.2312047597318887
1780626545858784800,11.40878466796875,2.616560801255703,2.120424174247682,0.776130649343878
1780626545868779800,11.41877978515625,-1.3397913911789654,2.5849171242356297,-0.6015069267570972
1780626545878774800,11.42877490234375,-2.9001591316938398,1.9770640433222055,-1.3710679884523151
1780626545888769800,11.438769775390625,-2.9848914248228073,0.9757964587286114,-1.4741658132247626
1780626545898764800,11.448764892578126,-2.3622283127903936,-0.17124182506352661,-1.4111615139096974
1780626545908760800,11.4587607421875,-2.7059868051588536,-1.347576930488646,-0.9373125604249536
1780626545918755800,11.468755859375,-4.24650710490942,-2.380691313458979,-0.26931539193317294
1780626545928750800,11.478750732421876,-4.944679339173436,-2.360407234843075,0.17780498297140002
1780626545938745900,11.488745849609375,-3.099749976146221,-0.9811904267266393,0.7970571175165474
1780626545948740600,11.49874072265625,-0.2960316955536604,0.7178086626261472,1.4756313557326792
1780626545958735600,11.508735595703126,1.9756559300899506,2.0458564245194197,1.4320146245852112
1780626545968730600,11.518730712890624,4.438798440003395,2.6076129401683805,0.6637536126378923
1780626545978725600,11.5287255859375,4.137755638289451,2.1998007855623958,-0.10895414958521724
1780626545988720600,11.538720703125,1.3776982202470303,0.898725786268711,-0.33966749672777946
1780626545998716000,11.5487158203125,0.0927618703275919,-0.7919827368617057,-0.030875030735135076
1780626546008711000,11.5587109375,-1.475395208889246,-2.2071236757963892,0.19533391766026614
1780626546018706000,11.568705810546875,-2.619973240047693,-2.423838089007139,0.8024016934148966
1780626546028701000,11.578700927734374,-1.4328887770712375,-1.353893566289544,1.8196385621652007
1780626546038696700,11.58869677734375,0.439076476919651,-0.2670908477514982,1.9117174186646937
1780626546048691700,11.598691650390625,1.2557844897150992,0.12022855392396449,-0.149105396579206
1780626546058686700,11.608686767578124,1.562789414703846,1.00296299033463,-2.36189440466091
1780626546068681700,11.618681640625,0.00045709611773490905,1.6103461156487464,-3.0294875223964453
1780626546078676700,11.6286767578125,-1.2942588895380496,1.101235733038187,-2.0327504208393394
1780626546088671700,11.638671630859376,-0.6250386089920997,0.31334348036050796,0.18233568520359694
1780626546098666800,11.648666748046875,-0.2533528297781944,0.5144482365071773,2.2564891797289253
1780626546108661800,11.658661865234375,1.047262150788307,1.0070873767882584,2.9155720971420407
1780626546118656800,11.66865673828125,2.0588252116858956,0.7130909864544868,1.759396274909377
1780626546128651800,11.67865185546875,0.8124760743141174,-0.10121697946190833,-0.007942848763242364
1780626546138646800,11.688646728515625,-1.0101672226250171,-0.5301105005413294,-0.7730148554109036
1780626546148641800,11.698641845703126,-1.4816829108566045,-1.103680788102746,-0.8996199586294591
1780626546158636800,11.70863671875,-0.9324866015732288,-2.139748760181665,-0.48210780939459796
1780626546168632800,11.7186328125,-1.435616156208515,-2.49560101044774,0.6249277690287679
1780626546178627800,11.7286279296875,-2.0982786856740714,-1.3538310224473475,2.1256093218006193
1780626546188622600,11.73862255859375,-0.8349339898377657,0.2210942357301712,3.375802713510394
1780626546198617600,11.74861767578125,1.244568683695793,1.3671622131854295,3.571051729366183
1780626546208612600,11.758612548828125,2.3840181197941304,2.2001509141743183,2.2600933417007325
1780626546218607600,11.768607666015624,2.65584242580831,2.9231279193490742,-0.06472951567247509
1780626546228602600,11.7786025390625,2.6477333536326886,2.7054174808382987,-2.478947105027735
1780626546238598000,11.788597900390625,1.855018795365095,2.3561469470500946,-3.9877673213958738
1780626546248593000,11.798593017578124,0.1410153213649988,1.9797399845331907,-4.521854616613686
1780626546258588000,11.808587890625,-2.478582071107626,1.347556179961562,-3.9309465330213307
1780626546268583000,11.8185830078125,-4.853250763276219,0.4345364954024553,-2.5819153120711444
1780626546278578000,11.828577880859376,-5.992805997836589,-0.7219067455947399,-1.1803354271076618
1780626546288573700,11.83857373046875,-6.266898833304643,-0.6637386342644691,0.6498778666943311
1780626546298568700,11.848568603515625,-4.703286996302008,-0.052315293648838995,2.1133976366117597
1780626546308563700,11.858563720703126,-2.0318039337694644,0.4227554567158222,2.256733217617869
1780626546318558700,11.868558837890625,-0.10318448014259338,1.04140056527853,0.9410470707781612
1780626546328553700,11.8785537109375,0.11362637917995452,1.5376222402215003,-1.672932920204103
1780626546338548700,11.888548828125,-0.10100479801595211,1.9843653062462805,-4.249336775377393
1780626546348544000,11.8985439453125,1.3795347880244255,2.035791542100906,-5.715495953887701
1780626546358538800,11.908538818359375,5.6463587047755714,1.3555261359274386,-5.989643149891496
1780626546368533800,11.91853369140625,8.844581330111623,0.04455050486624241,-3.784418001192808
1780626546378528800,11.92852880859375,8.097934695535898,-1.0541203461199997,0.41786140106394887
1780626546388523800,11.938523681640625,4.930354461222887,-1.9208248542279005,3.0912764545723794
1780626546398518800,11.948518798828125,1.5203390969872475,-2.2946833013057706,3.9711177998900413
1780626546408513800,11.958513671875,0.19457097046375274,-1.7536814043939113,4.332232500728964
1780626546418509800,11.968509765625,0.4352501966297626,-0.7952858700603246,3.2564474352896213
1780626546428504800,11.9785048828125,0.8598597567796706,0.6594330460250377,0.05662687323763966
1780626546438499600,11.98849951171875,0.5513239689618349,1.8818904356777666,-2.7531840251415964
1780626546448494600,11.99849462890625,-0.18615210168659685,2.4760697960257527,-3.9748002877950666
1780626546458489600,12.008489501953125,0.19050620524287223,3.0540994010835885,-3.574977378377318
1780626546468484900,12.01848486328125,1.7304875758111475,3.2319033611416814,-1.8538642185024916
1780626546478480000,12.02847998046875,3.1745857291609045,2.430801498278975,0.05860533370375633
1780626546488475000,12.038474853515625,3.0825667861551045,0.9640747490137815,0.9099538672477007
1780626546498470000,12.048469970703126,2.494273561236262,0.4033575132846832,1.5093442402422428
1780626546508465000,12.05846484375,2.5942519388139247,0.7328004800528287,2.059752409533411
1780626546518460000,12.0684599609375,1.8979396532028912,1.3668196833580732,2.2745661036893723
1780626546528455000,12.078454833984376,0.2715717925578356,2.1064695909142492,2.1957387968204913
1780626546538451000,12.088450927734375,-0.8466858024299144,2.735285380357504,1.8455049709580837
1780626546548446000,12.098446044921875,-0.6181313138216734,2.814164855805039,1.4331293078288434
1780626546558441000,12.10844091796875,0.09953998616039753,2.280141565734148,1.2019509004577993
1780626546568436000,12.11843603515625,0.7730927429527044,1.5214040958702564,1.2681661246433853
1780626546578431200,12.12843115234375,0.9186983147174119,0.8895043689370155,1.620040265058726
1780626546588426200,12.13842626953125,0.6411977166324854,0.9798352127254009,2.210617363131046
1780626546598421000,12.1484208984375,0.646039895966649,1.6551175697892904,2.6726456765711304
1780626546608416000,12.158416015625,0.31012101118266583,2.20419522112906,2.655184254160523
1780626546618411000,12.168410888671875,-0.5043336697280406,2.575944713228941,2.3684309668228027
1780626546628406000,12.178406005859374,-0.8107698549181223,2.416065116918087,1.827392829553783
1780626546638401000,12.188401123046875,-0.7176274608403443,1.7866531151473521,1.3957728061199188
1780626546648396000,12.19839599609375,-0.9369003263622522,1.0200029724627733,1.29402537304312
1780626546658392000,12.20839208984375,-1.105236200851202,0.050184711360931396,1.400572899878025
1780626546668386800,12.21838671875,-0.8648989199906587,-1.16117143856287,1.6949164962142704
1780626546678381800,12.2283818359375,-0.9673924952596425,-1.7929034077137707,1.661837817955017
1780626546688376800,12.238376953125,-1.0014256977647542,-2.0071873789072034,0.8235524718627333
1780626546698372000,12.2483720703125,-1.0807605157643556,-1.468290929841995,-0.25447861893773077
1780626546708367000,12.2583671875,-1.7361089228242634,-1.240076048451662,-1.1022981015726923
1780626546718362000,12.268362060546876,-2.5926708071023223,-1.347399528095126,-1.1075839330211281
1780626546728357000,12.278357177734375,-3.095932463684678,-1.1695347777605056,-0.09946195248812437
1780626546738352000,12.28835205078125,-1.7270353895306587,-0.6433446655333042,1.183885082413256
1780626546748347100,12.29834716796875,-0.13186872283518314,-0.29310148732066155,1.7043126855909823
1780626546758342100,12.308342041015624,-0.7556073551446199,-0.6563426787942648,0.7496952084913849
1780626546768337000,12.3183369140625,-1.5397721117317675,-1.32628016769886,-1.089739648772776
1780626546778333000,12.3283330078125,-1.117837908270955,-1.8899498234927654,-2.4032024204745888
1780626546788328000,12.338327880859374,0.19727672229111193,-1.1646598652005196,-2.2574022029206153
1780626546798323000,12.348322998046875,1.4890315200537443,-0.3176601745158434,-1.5840002527758479
1780626546808318000,12.35831787109375,0.11621288854181766,-0.15736965931653976,-1.3294058985039592
1780626546818313200,12.368313232421874,-2.560920162576437,-0.41254093669354913,-1.687679530698061
1780626546828308200,12.37830810546875,-2.639195826911926,-0.49244449449181554,-2.0338865852624175
1780626546838303000,12.388302978515625,-0.19690087471604345,-0.3668424308359623,-2.348977201551199
1780626546848298000,12.398298095703124,1.71356742067039,-0.7260837390184403,-3.103757750482857
1780626546858293000,12.40829296875,0.6608125176846981,-1.3592080393105745,-3.3141292244076728
1780626546868288000,12.4182880859375,-0.8342547754019498,-2.5958751561015845,-3.2659993997499344
1780626546878283000,12.428282958984376,0.3056991030871868,-3.7311826700896025,-3.166050540527701
1780626546888278000,12.438278076171875,1.5165958188056945,-4.191101444029808,-3.0669322869107125
1780626546898273000,12.44827294921875,0.6895423530846834,-3.1534599390238522,-2.3632880509763954
1780626546908269000,12.45826904296875,0.5456079294025897,-1.056522146564722,-0.5019131645828485
1780626546918263800,12.468263916015625,1.595285324639082,0.45588908003270623,1.1463748514473437
1780626546928259000,12.478259033203125,3.123396809193492,1.1741583459079266,1.5479352521821856
1780626546938254000,12.488254150390626,3.420806807363033,1.9566794269412755,0.8882651825308799
1780626546948249000,12.4982490234375,1.815049773070216,2.719950448581576,-0.3137731039494276
1780626546958244000,12.508244140625,2.075214036428928,2.609847567352652,-1.059508176638186
1780626546968239000,12.518239013671876,1.8292729442119597,0.7593354357570409,-1.507476692804694
1780626546978234000,12.528234130859374,0.9329320072531699,-0.942795814141631,-1.0280646983653305
1780626546988229000,12.53822900390625,1.125378240647912,-0.9807359609574079,0.5009948806941509
1780626546998224100,12.54822412109375,0.2785182506948709,-0.637802228975296,1.08407183226943
1780626547008219000,12.558218994140624,0.18881109176278113,-0.41444764709770676,0.4868097034752369
1780626547018215000,12.56821484375,-0.7793588176101446,-0.01457914497256279,-0.27165070301294325
1780626547028210000,12.5782099609375,-2.2536855204850434,0.27436054649353026,-1.0731930031195283
1780626547038205000,12.588204833984374,-0.6418097110509872,0.12524842791259289,-1.850475891238451
1780626547048200200,12.5982001953125,1.6700895134717224,-0.40270694042146205,-2.7333199255034324
