time,seconds_elapsed,z,y,x
1780626534499413200,0.049413330078125,-0.8037567138671875,-0.449127197265625,-0.0226287841796875
1780626534509408300,0.059408203125,-0.7275543212890625,-0.47406005859375,-0.013214111328125
1780626534519403000,0.069403076171875,-0.740081787109375,-0.36199951171875,0.0206298828125
1780626534529398000,0.07939794921875,-0.853912353515625,-0.142730712890625,0.2248687744140625
1780626534539393000,0.08939306640625,-1.018402099609375,-0.061004638671875,0.421051025390625
1780626534549388000,0.099387939453125,-1.1366424560546875,-0.00994873046875,0.5091552734375
1780626534559383000,0.109383056640625,-1.0945892333984375,-0.2468414306640625,0.3744049072265625
1780626534569377800,0.119377685546875,-0.8657989501953125,-0.36474609375,0.13104248046875
1780626534579372800,0.129372802734375,-0.78460693359375,-0.4533538818359375,-0.0773468017578125
1780626534589367800,0.139367919921875,-0.7918701171875,-0.5152587890625,-0.1016693115234375
1780626534599363000,0.149363037109375,-0.8553466796875,-0.5235748291015625,-0.1351318359375
1780626534609358000,0.159358154296875,-0.9680023193359375,-0.47711181640625,-0.1762237548828125
1780626534619353000,0.16935302734375,-1.016357421875,-0.303558349609375,-0.175994873046875
1780626534629348000,0.17934814453125,-1.049163818359375,-0.1461181640625,-0.2031402587890625
1780626534639343000,0.189343017578125,-1.1596221923828125,-0.15264892578125,-0.1044921875
1780626534649338000,0.199338134765625,-1.228729248046875,-0.2189788818359375,-0.1397552490234375
1780626534659334000,0.209333984375,-1.220367431640625,-0.383087158203125,-0.0150604248046875
1780626534669329000,0.219328857421875,-0.9781646728515625,-0.53173828125,-0.0545654296875
1780626534679324000,0.229323974609375,-0.739593505859375,-0.6025238037109375,-0.2398529052734375
1780626534689319000,0.23931884765625,-0.46514892578125,-0.7752685546875,-0.35919189453125
1780626534699314000,0.24931396484375,-0.66925048828125,-0.8045806884765625,-0.3237152099609375
1780626534709309000,0.259308837890625,-0.966766357421875,-0.5978851318359375,-0.15203857421875
1780626534719304200,0.26930419921875,-0.8726654052734375,-0.349456787109375,-0.03094482421875
1780626534729299000,0.279298828125,-0.768890380859375,-0.4173126220703125,0.076141357421875
1780626534739294000,0.2892939453125,-0.756378173828125,-0.5678863525390625,0.137237548828125
1780626534749289000,0.2992890625,-0.7706298828125,-0.5515289306640625,0.167999267578125
1780626534759284000,0.309283935546875,-0.84100341796875,-0.4497833251953125,0.2401580810546875
1780626534769279000,0.319279052734375,-0.88128662109375,-0.468048095703125,0.1139678955078125
1780626534779274000,0.32927392578125,-0.8803863525390625,-0.498138427734375,-0.1216888427734375
1780626534789269000,0.33926904296875,-0.867828369140625,-0.5294952392578125,-0.1757354736328125
1780626534799264000,0.349263916015625,-0.8110504150390625,-0.543365478515625,-0.1620635986328125
1780626534809259000,0.359259033203125,-0.8236846923828125,-0.5225982666015625,-0.0947113037109375
1780626534819254000,0.36925390625,-0.8748321533203125,-0.4761810302734375,-0.0296173095703125
1780626534829249000,0.3792490234375,-0.8763427734375,-0.4888916015625,-0.0660400390625
1780626534839243800,0.389243896484375,-0.852142333984375,-0.34942626953125,0.0251312255859375
1780626534849238800,0.39923876953125,-0.7483978271484375,-0.154296875,0.0926971435546875
1780626534859233800,0.40923388671875,-0.6214141845703125,-0.281951904296875,-0.030487060546875
1780626534869229000,0.41922900390625,-0.5602264404296875,-0.3127593994140625,-0.0357666015625
1780626534879224000,0.42922412109375,-0.634002685546875,-0.299041748046875,-0.1423797607421875
1780626534889219000,0.439218994140625,-0.810302734375,-0.446990966796875,-0.2054595947265625
1780626534899214000,0.449214111328125,-0.9232330322265625,-0.5437469482421875,-0.23016357421875
1780626534909209000,0.459208984375,-1.0176239013671875,-0.659332275390625,-0.3435516357421875
1780626534919204000,0.4692041015625,-1.171234130859375,-0.8006744384765625,-0.451995849609375
1780626534929199000,0.47919921875,-1.140533447265625,-0.6869049072265625,-0.308868408203125
1780626534939193900,0.48919384765625,-1.0734405517578125,-0.5210418701171875,-0.23529052734375
1780626534949188900,0.49918896484375,-0.8878173828125,-0.4060821533203125,-0.2419281005859375
1780626534959184000,0.509183837890625,-0.67657470703125,-0.3386383056640625,-0.21746826171875
1780626534969180000,0.519179931640625,-0.585113525390625,-0.2672576904296875,-0.17449951171875
1780626534979175200,0.529175048828125,-0.5356903076171875,-0.2508392333984375,-0.139984130859375
1780626534989170200,0.539170166015625,-0.5387420654296875,-0.3324737548828125,-0.1816558837890625
1780626534999165200,0.549165283203125,-0.59576416015625,-0.3888702392578125,-0.210357666015625
1780626535009160000,0.559159912109375,-0.648468017578125,-0.4278717041015625,-0.1552886962890625
1780626535019155000,0.569155029296875,-0.6640167236328125,-0.45068359375,-0.0529327392578125
1780626535029150000,0.57914990234375,-0.6116485595703125,-0.3830108642578125,0.021331787109375
1780626535039145000,0.58914501953125,-0.4956207275390625,-0.3186492919921875,0.005401611328125
1780626535049140000,0.599139892578125,-0.415283203125,-0.3342437744140625,-0.0749969482421875
1780626535059135000,0.609135009765625,-0.399169921875,-0.3584747314453125,-0.142242431640625
1780626535069130000,0.6191298828125,-0.441925048828125,-0.39208984375,-0.2167205810546875
1780626535079125000,0.629125,-0.5149688720703125,-0.38653564453125,-0.260894775390625
1780626535089120000,0.6391201171875,-0.6108245849609375,-0.3448638916015625,-0.245361328125
1780626535099115000,0.649114990234375,-0.6204071044921875,-0.2914886474609375,-0.211517333984375
1780626535109109800,0.65910986328125,-0.56378173828125,-0.2389678955078125,-0.4788665771484375
1780626535119104800,0.669104736328125,-0.4637451171875,-0.273773193359375,-0.678680419921875
1780626535129100000,0.67910009765625,-0.3370513916015625,-0.3943939208984375,-0.68988037109375
1780626535139095000,0.689094970703125,-0.274993896484375,-0.547515869140625,-0.297332763671875
1780626535149090000,0.699090087890625,-0.3466339111328125,-0.465301513671875,-0.03961181640625
1780626535159085000,0.7090849609375,-0.4726715087890625,-0.2056427001953125,-0.3505401611328125
1780626535169080000,0.719080078125,-0.53167724609375,-0.0393218994140625,-0.362396240234375
1780626535179075000,0.729074951171875,-0.4169769287109375,0.0625762939453125,-0.3291168212890625
1780626535189070000,0.739070068359375,-0.408111572265625,0.021148681640625,-0.4511566162109375
1780626535199065000,0.749065185546875,-0.48065185546875,-0.126220703125,-0.6266326904296875
1780626535209059800,0.759059814453125,-0.7820587158203125,-0.241485595703125,-0.7624053955078125
1780626535219054800,0.769054931640625,-1.0291595458984375,-0.2136993408203125,-0.91009521484375
1780626535229049900,0.7790498046875,-0.954376220703125,0.02783203125,-0.7911376953125
1780626535239044900,0.789044921875,-0.7672271728515625,0.1463470458984375,-0.70904541015625
1780626535249040000,0.799039794921875,-0.51885986328125,0.2377471923828125,-0.5782470703125
1780626535259035000,0.809034912109375,-0.376007080078125,0.3353271484375,-0.4439544677734375
1780626535269030000,0.81902978515625,-0.3259429931640625,0.4152069091796875,-0.4242706298828125
1780626535279026000,0.82902587890625,-0.32598876953125,0.4547119140625,-0.5512542724609375
1780626535289021000,0.83902099609375,-0.438720703125,0.406524658203125,-0.797515869140625
1780626535299016000,0.849015869140625,-0.5351409912109375,0.3494873046875,-1.0189666748046875
1780626535309011000,0.859010986328125,-0.5975799560546875,0.3740386962890625,-1.1399383544921875
1780626535319006000,0.869005859375,-0.6413116455078125,0.413604736328125,-1.16162109375
1780626535329001000,0.8790009765625,-0.68927001953125,0.4434967041015625,-1.1207275390625
1780626535338996000,0.888995849609375,-0.661102294921875,0.47540283203125,-1.1373291015625
1780626535348991000,0.898990966796875,-0.562530517578125,0.525909423828125,-1.1923675537109375
1780626535358986000,0.908986083984375,-0.4738006591796875,0.527740478515625,-1.28924560546875
1780626535368981000,0.91898095703125,-0.3979034423828125,0.451263427734375,-1.41839599609375
1780626535378975700,0.928975830078125,-0.3892059326171875,0.3891754150390625,-1.5605010986328125
1780626535388971000,0.938970947265625,-0.4746551513671875,0.3574981689453125,-1.7331695556640625
1780626535398966000,0.948966064453125,-0.67425537109375,0.3115081787109375,-2.006317138671875
1780626535408961000,0.9589609375,-0.83331298828125,0.2644805908203125,-2.30999755859375
1780626535418956000,0.9689560546875,-0.6321563720703125,0.1703338623046875,-2.4310455322265625
1780626535428951000,0.978950927734375,-0.4051055908203125,0.0235748291015625,-2.3807525634765625
1780626535438946000,0.988946044921875,-0.419281005859375,-0.096435546875,-2.36480712890625
1780626535448941000,0.998941162109375,-0.408782958984375,-0.0978240966796875,-2.2629241943359375
1780626535458936000,1.00893603515625,-0.3541107177734375,0.0298004150390625,-2.03533935546875
1780626535468931000,1.01893115234375,-0.2701873779296875,0.2308349609375,-1.7423858642578125
1780626535478925800,1.02892578125,-0.2038116455078125,0.4126739501953125,-1.437469482421875
1780626535488920800,1.0389208984375,-0.2144012451171875,0.5241546630859375,-1.225982666015625
1780626535498915800,1.048915771484375,-0.2560577392578125,0.561492919921875,-1.0949859619140625
1780626535508910800,1.058910888671875,-0.265289306640625,0.5389862060546875,-0.9496612548828125
1780626535518906600,1.06890673828125,-0.2207489013671875,0.549896240234375,-0.7822723388671875
1780626535528901600,1.078901611328125,-0.185791015625,0.552093505859375,-0.6297760009765625
1780626535538896600,1.088896728515625,-0.1722259521484375,0.5225677490234375,-0.515045166015625
1780626535548891600,1.0988916015625,-0.177215576171875,0.4930572509765625,-0.4100494384765625
1780626535558886700,1.10888671875,-0.187652587890625,0.436431884765625,-0.342681884765625
1780626535568881400,1.11888134765625,-0.1561126708984375,0.37066650390625,-0.289947509765625
1780626535578876400,1.12887646484375,-0.1114349365234375,0.312255859375,-0.2640380859375
1780626535588871400,1.138871337890625,-0.0677490234375,0.27496337890625,-0.256927490234375
1780626535598866400,1.148866455078125,-0.0807037353515625,0.249298095703125,-0.3029937744140625
1780626535608861400,1.158861328125,-0.2083740234375,0.221038818359375,-0.4308929443359375
1780626535618856400,1.1688564453125,-0.3695831298828125,0.229705810546875,-0.5105743408203125
1780626535628852500,1.1788525390625,-0.37286376953125,0.23089599609375,-0.5007476806640625
1780626535638847500,1.188847412109375,-0.3151397705078125,0.1969146728515625,-0.5298614501953125
1780626535648842500,1.198842529296875,-0.2728424072265625,0.174041748046875,-0.6231689453125
1780626535658837500,1.20883740234375,-0.321441650390625,0.1209869384765625,-0.8232574462890625
1780626535668832500,1.21883251953125,-0.391845703125,0.0941925048828125,-1.01068115234375
1780626535678827500,1.22882763671875,-0.3992462158203125,0.164764404296875,-1.089263916015625
1780626535688822500,1.238822509765625,-0.3824462890625,0.2596588134765625,-1.0618743896484375
1780626535698817500,1.248817626953125,-0.413238525390625,0.3268890380859375,-1.0201873779296875
1780626535708812500,1.2588125,-0.512542724609375,0.423004150390625,-1.0030975341796875
1780626535718807600,1.2688076171875,-0.4606170654296875,0.573638916015625,-0.9824981689453125
1780626535728802600,1.278802490234375,-0.36846923828125,0.7358245849609375,-0.9734039306640625
1780626535738797300,1.28879736328125,-0.324188232421875,0.8480224609375,-1.0640106201171875
1780626535748792300,1.298792236328125,-0.33538818359375,0.8861846923828125,-1.294097900390625
1780626535758787600,1.30878759765625,-0.3783721923828125,0.91070556640625,-1.4860992431640625
1780626535768782600,1.318782470703125,-0.3631439208984375,0.923492431640625,-1.5704345703125
1780626535778777600,1.328777587890625,-0.14935302734375,0.91680908203125,-1.46539306640625
1780626535788772600,1.338772705078125,0.0176239013671875,0.9038848876953125,-1.3002166748046875
1780626535798767600,1.348767578125,0.2000885009765625,0.95794677734375,-1.0892181396484375
1780626535808762600,1.3587626953125,0.323699951171875,0.9815521240234375,-0.90692138671875
1780626535818757600,1.368757568359375,0.2688140869140625,0.9518280029296875,-0.8739471435546875
1780626535828752600,1.378752685546875,0.1210784912109375,0.904632568359375,-0.9079742431640625
1780626535838747400,1.388747314453125,-0.0330047607421875,0.8668975830078125,-0.9710540771484375
1780626535848742400,1.398742431640625,-0.1971893310546875,0.818206787109375,-1.0951690673828125
1780626535858737400,1.4087373046875,-0.31866455078125,0.7632598876953125,-1.19097900390625
1780626535868732400,1.418732421875,-0.4029693603515625,0.7334747314453125,-1.24603271484375
1780626535878727400,1.4287275390625,-0.4839630126953125,0.6767120361328125,-1.2211151123046875
1780626535888722400,1.438722412109375,-0.518218994140625,0.589996337890625,-1.1219635009765625
1780626535898717400,1.448717529296875,-0.6085357666015625,0.5840301513671875,-1.0344390869140625
1780626535908712700,1.458712646484375,-0.6598968505859375,0.5145263671875,-1.0567474365234375
1780626535918707700,1.468707763671875,-0.59197998046875,0.384857177734375,-1.05902099609375
1780626535928702700,1.47870263671875,-0.6001434326171875,0.2155303955078125,-1.0532379150390625
1780626535938697500,1.488697509765625,-0.8130340576171875,0.0917510986328125,-1.1827392578125
1780626535948692500,1.4986923828125,-0.9569854736328125,0.051300048828125,-1.2843170166015625
1780626535958688500,1.5086884765625,-0.925537109375,0.0205841064453125,-1.2496185302734375
1780626535968683500,1.51868359375,-0.8512725830078125,0.0161285400390625,-1.1571044921875
1780626535978678500,1.528678466796875,-0.668548583984375,0.0956573486328125,-0.9629974365234375
1780626535988673500,1.538673583984375,-0.4297637939453125,0.2290802001953125,-0.638916015625
1780626535998668500,1.54866845703125,-0.3977813720703125,0.2342987060546875,-0.40985107421875
1780626536008663300,1.558663330078125,-0.4383087158203125,0.174774169921875,-0.35211181640625
1780626536018658300,1.568658203125,-0.388153076171875,0.2123870849609375,-0.279632568359375
1780626536028653600,1.578653564453125,0.37908935546875,0.3607025146484375,0.022979736328125
1780626536038648600,1.588648681640625,2.1967620849609375,0.629486083984375,0.613861083984375
1780626536048643600,1.5986435546875,0.161956787109375,0.2010650634765625,0.2173309326171875
1780626536058638600,1.608638671875,-0.9664154052734375,0.1633148193359375,-0.5402069091796875
1780626536068633600,1.618633544921875,-0.025848388671875,0.341400146484375,-0.6891937255859375
1780626536078628600,1.628628662109375,-0.280426025390625,0.090667724609375,-0.556488037109375
1780626536088623600,1.63862353515625,-0.41998291015625,0.1474609375,-0.5339202880859375
1780626536098618600,1.64861865234375,-0.551605224609375,0.19183349609375,-0.72552490234375
1780626536108613400,1.65861328125,-0.7013397216796875,0.08172607421875,-0.879638671875
1780626536118608400,1.6686083984375,-0.6627960205078125,-0.0765838623046875,-1.0192718505859375
1780626536128603400,1.678603271484375,-0.5717010498046875,-0.16497802734375,-1.0406341552734375
1780626536138598400,1.688598388671875,-0.5092010498046875,-0.182281494140625,-1.0445556640625
1780626536148593400,1.698593505859375,-0.509368896484375,-0.082244873046875,-1.0508270263671875
1780626536158588400,1.70858837890625,-0.530364990234375,0.1197967529296875,-1.0224456787109375
1780626536168583700,1.718583740234375,-0.494171142578125,0.306976318359375,-0.974151611328125
1780626536178578700,1.72857861328125,-0.41217041015625,0.4404449462890625,-0.9406585693359375
1780626536188573700,1.73857373046875,-0.380096435546875,0.521148681640625,-0.9716339111328125
1780626536198568700,1.748568603515625,-0.2468109130859375,0.421234130859375,-1.04376220703125
1780626536208563500,1.7585634765625,-0.1999664306640625,0.3411407470703125,-1.0565643310546875
1780626536218558500,1.768558349609375,-0.155975341796875,0.3339996337890625,-1.1263427734375
1780626536228553500,1.778553466796875,-0.061737060546875,0.385894775390625,-1.12921142578125
1780626536238548500,1.788548583984375,0.063201904296875,0.50848388671875,-1.005462646484375
1780626536248543500,1.79854345703125,0.2327117919921875,0.7599334716796875,-0.9019012451171875
1780626536258538500,1.80853857421875,-0.048126220703125,0.76361083984375,-0.6563568115234375
1780626536268534500,1.818534423828125,-0.1697998046875,0.6284942626953125,-0.6780853271484375
1780626536278529300,1.828529296875,-0.150177001953125,0.51275634765625,-0.675384521484375
1780626536288524500,1.838524658203125,-0.045684814453125,0.4093170166015625,-0.740966796875
1780626536298519600,1.84851953125,-0.0114593505859375,0.3937225341796875,-0.8292083740234375
1780626536308514600,1.8585146484375,-0.147918701171875,0.4131622314453125,-0.9194793701171875
1780626536318509600,1.868509521484375,-0.174713134765625,0.4430694580078125,-0.96160888671875
1780626536328504600,1.878504638671875,-0.2089691162109375,0.407379150390625,-0.942291259765625
1780626536338499600,1.88849951171875,-0.2258453369140625,0.426513671875,-0.986602783203125
1780626536348494600,1.89849462890625,-0.25787353515625,0.4111785888671875,-1.0194244384765625
1780626536358489600,1.908489501953125,-0.256256103515625,0.407806396484375,-0.9741668701171875
1780626536368484600,1.918484619140625,-0.222900390625,0.4029083251953125,-0.9209136962890625
1780626536378479400,1.928479248046875,-0.16558837890625,0.3513641357421875,-0.859619140625
1780626536388474400,1.938474365234375,-0.0908660888671875,0.2905426025390625,-0.7608642578125
1780626536398469400,1.948469482421875,-0.0916595458984375,0.2075653076171875,-0.7281036376953125
1780626536408464400,1.95846435546875,-0.0865325927734375,0.1540069580078125,-0.6798248291015625
1780626536418459400,1.96845947265625,-0.0658111572265625,0.1568603515625,-0.591552734375
1780626536428454400,1.978454345703125,-0.052490234375,0.2490081787109375,-0.5630035400390625
1780626536438449700,1.98844970703125,-0.0660552978515625,0.292449951171875,-0.610137939453125
1780626536448444700,1.998444580078125,-0.0196533203125,0.2930908203125,-0.613983154296875
1780626536458439700,2.008439697265625,0.0653228759765625,0.2654571533203125,-0.620208740234375
1780626536468434700,2.0184345703125,0.087188720703125,0.2188568115234375,-0.5383148193359375
1780626536478429400,2.028429443359375,0.048614501953125,0.2626190185546875,-0.715057373046875
1780626536488424400,2.038424560546875,0.07537841796875,0.3338165283203125,-0.8354949951171875
1780626536498419500,2.04841943359375,0.0469970703125,0.3421783447265625,-0.9185028076171875
1780626536508414500,2.05841455078125,0.0127716064453125,0.3753509521484375,-0.9776153564453125
1780626536518409500,2.068409423828125,-0.0506439208984375,0.499725341796875,-0.947509765625
1780626536528404500,2.078404541015625,-0.0801544189453125,0.6011810302734375,-0.93975830078125
1780626536538399500,2.0883994140625,0.004180908203125,0.5957794189453125,-0.9850616455078125
1780626536548394500,2.09839453125,0.04742431640625,0.654266357421875,-1.1460723876953125
1780626536558389500,2.108389404296875,-0.0229339599609375,0.6471405029296875,-1.257293701171875
1780626536568384500,2.118384521484375,0.1919708251953125,0.5977630615234375,-1.207427978515625
1780626536578379500,2.128379638671875,0.3318023681640625,0.6097259521484375,-1.0570220947265625
1780626536588374500,2.13837451171875,0.3299102783203125,0.5890655517578125,-0.919158935546875
1780626536598369500,2.14836962890625,0.35296630859375,0.596038818359375,-0.7835693359375
1780626536608365600,2.158365478515625,0.3087158203125,0.6305694580078125,-0.6842803955078125
1780626536618360600,2.168360595703125,0.21929931640625,0.5892333984375,-0.633331298828125
1780626536628355600,2.17835546875,0.15789794921875,0.53912353515625,-0.64849853515625
1780626536638350600,2.1883505859375,0.1483001708984375,0.4776763916015625,-0.6739501953125
1780626536648345300,2.198345458984375,0.1882781982421875,0.3602447509765625,-0.702117919921875
1780626536658340400,2.20834033203125,0.2108917236328125,0.1884765625,-0.7711334228515625
1780626536668335400,2.21833544921875,0.2837371826171875,0.0564727783203125,-0.8407440185546875
1780626536678330400,2.228330322265625,0.409912109375,-0.012542724609375,-0.8902130126953125
1780626536688325400,2.238325439453125,0.3022308349609375,-0.064453125,-1.020904541015625
1780626536698320600,2.248320556640625,0.3428955078125,-0.0398406982421875,-1.063751220703125
1780626536708315600,2.258315673828125,0.4299774169921875,-0.08184814453125,-1.2146759033203125
1780626536718310700,2.268310546875,0.4141387939453125,-0.159698486328125,-1.4000396728515625
1780626536728305700,2.2783056640625,0.4696807861328125,-0.1099853515625,-1.4148712158203125
1780626536738300700,2.28830078125,0.514984130859375,0.0392303466796875,-1.3295745849609375
1780626536748295400,2.29829541015625,0.491729736328125,0.2139892578125,-1.2504119873046875
1780626536758290400,2.30829052734375,0.3293914794921875,0.4209442138671875,-1.2464447021484375
1780626536768285400,2.318285400390625,0.185272216796875,0.5836181640625,-1.2062530517578125
1780626536778280400,2.328280517578125,0.0777435302734375,0.6108551025390625,-1.2994842529296875
1780626536788275500,2.338275390625,0.019378662109375,0.59698486328125,-1.375732421875
1780626536798270500,2.3482705078125,0.010284423828125,0.6494140625,-1.3705291748046875
1780626536808265500,2.358265380859375,-0.054718017578125,0.6390533447265625,-1.3983154296875
1780626536818260500,2.368260498046875,-0.007659912109375,0.519378662109375,-1.4601593017578125
1780626536828255500,2.37825537109375,0.1616668701171875,0.3841552734375,-1.490447998046875
1780626536838250500,2.38825048828125,0.1987152099609375,0.39007568359375,-1.469390869140625
1780626536848245500,2.39824560546875,0.1280975341796875,0.5291900634765625,-1.2679901123046875
1780626536858240500,2.408240478515625,0.079864501953125,0.6781158447265625,-1.065338134765625
1780626536868235500,2.418235595703125,0.038726806640625,0.7619171142578125,-0.8775177001953125
1780626536878230500,2.42823046875,-0.0905914306640625,0.7389068603515625,-0.7244720458984375
1780626536888225500,2.4382255859375,-0.273895263671875,0.6703643798828125,-0.73443603515625
1780626536898220500,2.448220458984375,-0.332122802734375,0.632232666015625,-0.7303009033203125
1780626536908215600,2.458215576171875,-0.3179473876953125,0.66778564453125,-0.635223388671875
1780626536918211600,2.468211669921875,-0.2987060546875,0.6760101318359375,-0.4806671142578125
1780626536928206300,2.478206298828125,-0.20733642578125,0.727447509765625,-0.379486083984375
1780626536938201300,2.488201416015625,-0.1298370361328125,0.7089385986328125,-0.408538818359375
1780626536948196400,2.4981962890625,0.03314208984375,0.639312744140625,-0.4245147705078125
1780626536958191600,2.508191650390625,0.092041015625,0.603271484375,-0.5189971923828125
1780626536968186600,2.5181865234375,0.02734375,0.5685577392578125,-0.586090087890625
1780626536978181600,2.528181640625,-0.00701904296875,0.5836639404296875,-0.6176605224609375
1780626536988176600,2.5381767578125,-0.0730743408203125,0.6420745849609375,-0.66424560546875
1780626536998171600,2.548171630859375,-0.0655975341796875,0.781829833984375,-0.5856781005859375
1780626537008166700,2.558166748046875,-0.068206787109375,0.8923797607421875,-0.536529541015625
1780626537018161400,2.568161376953125,-0.0344696044921875,0.8714141845703125,-0.4954376220703125
1780626537028156400,2.578156494140625,0.09906005859375,0.88330078125,-0.4154510498046875
1780626537038151400,2.5881513671875,0.1325836181640625,0.8121185302734375,-0.4728851318359375
1780626537048146400,2.598146484375,0.0962677001953125,0.6971588134765625,-0.5497894287109375
1780626537058141400,2.608141357421875,0.0238494873046875,0.5558624267578125,-0.72216796875
1780626537068136400,2.618136474609375,-0.0293426513671875,0.3874664306640625,-0.9833526611328125
1780626537078131500,2.62813134765625,-0.0971832275390625,0.30096435546875,-1.163116455078125
1780626537088126500,2.63812646484375,-0.232879638671875,0.128692626953125,-1.294158935546875
1780626537098121500,2.64812158203125,-0.2454681396484375,0.1761322021484375,-1.1644744873046875
1780626537108116700,2.65811669921875,-0.0977783203125,0.5496978759765625,-0.6338958740234375
1780626537118111500,2.668111572265625,0.0281829833984375,0.9078369140625,-0.2577056884765625
1780626537128106500,2.6781064453125,-0.1297149658203125,0.8900604248046875,-0.3210906982421875
1780626537138101500,2.6881015625,-0.1483154296875,0.5301971435546875,-0.7351531982421875
1780626537148096500,2.698096435546875,-0.094879150390625,0.160736083984375,-1.1666717529296875
1780626537158091500,2.708091552734375,-0.0824432373046875,-0.038726806640625,-1.3447723388671875
1780626537168086500,2.71808642578125,0.078521728515625,0.0855255126953125,-0.9962615966796875
1780626537178081500,2.72808154296875,0.0408477783203125,0.30487060546875,-0.705902099609375
1780626537188076500,2.73807666015625,-0.16558837890625,0.411041259765625,-0.748382568359375
1780626537198071600,2.748071533203125,-0.3198089599609375,0.4995574951171875,-0.849853515625
1780626537208066600,2.758066650390625,-0.333648681640625,0.488555908203125,-0.9386138916015625
1780626537218061600,2.7680615234375,-0.07769775390625,0.3050079345703125,-1.1671905517578125
1780626537228056300,2.778056396484375,0.09332275390625,0.0310821533203125,-1.46527099609375
1780626537238052600,2.788052490234375,0.0926361083984375,-0.037139892578125,-1.5594024658203125
1780626537248047600,2.798047607421875,0.1191558837890625,0.0335540771484375,-1.381500244140625
1780626537258042600,2.808042724609375,0.1204376220703125,0.1056060791015625,-1.1083831787109375
1780626537268037600,2.81803759765625,0.186431884765625,0.23406982421875,-0.8355712890625
1780626537278032600,2.82803271484375,0.1702423095703125,0.3188323974609375,-0.7302398681640625
1780626537288027600,2.838027587890625,0.0677337646484375,0.22857666015625,-0.988555908203125
1780626537298022400,2.8480224609375,0.029754638671875,0.074798583984375,-1.2268524169921875
1780626537308017400,2.858017333984375,0.073516845703125,-0.0238037109375,-1.3039398193359375
1780626537318012400,2.868012451171875,0.240631103515625,-0.0730438232421875,-1.2168426513671875
1780626537328007400,2.87800732421875,0.4119720458984375,-0.049041748046875,-1.0991058349609375
1780626537338002400,2.88800244140625,0.449249267578125,0.0436859130859375,-1.0341796875
1780626537347997400,2.89799755859375,0.368682861328125,0.2043304443359375,-0.9732818603515625
1780626537357992400,2.907992431640625,0.2198333740234375,0.3386077880859375,-0.9216156005859375
1780626537367987700,2.91798779296875,0.0664215087890625,0.3557891845703125,-0.939117431640625
1780626537377982700,2.927982666015625,-0.0695037841796875,0.2948455810546875,-1.001739501953125
1780626537387977700,2.937977783203125,-0.1728515625,0.091644287109375,-1.168304443359375
1780626537397972500,2.947972412109375,-0.1736907958984375,-0.0581512451171875,-1.4348602294921875
1780626537407967500,2.957967529296875,-0.1988067626953125,-0.1190185546875,-1.6295928955078125
1780626537417962500,2.96796240234375,-0.331146240234375,-0.148101806640625,-1.63580322265625
1780626537427957500,2.97795751953125,-0.2377166748046875,0.0526123046875,-1.36822509765625
1780626537437952500,2.987952392578125,-0.0642242431640625,0.4084625244140625,-1.029449462890625
1780626537447947500,2.997947509765625,0.054290771484375,0.751983642578125,-0.6537628173828125
1780626537457942500,3.007942626953125,0.259490966796875,0.87603759765625,-0.416961669921875
1780626537467937500,3.0179375,0.392486572265625,0.92620849609375,-0.239654541015625
1780626537477932500,3.0279326171875,0.7446441650390625,1.110748291015625,-0.1204986572265625
1780626537487927600,3.037927490234375,0.4123382568359375,1.025634765625,-0.3995208740234375
1780626537497922300,3.04792236328125,0.1912078857421875,0.8586578369140625,-0.78424072265625
1780626537507917300,3.057917236328125,0.1925201416015625,0.7356414794921875,-0.969879150390625
1780626537517912300,3.067912353515625,0.2697296142578125,0.6807098388671875,-1.04119873046875
1780626537527907300,3.0779072265625,0.40155029296875,0.80279541015625,-1.0374298095703125
1780626537537903400,3.0879033203125,0.34100341796875,0.970458984375,-0.969329833984375
1780626537547898400,3.0978984375,0.1534576416015625,0.6679840087890625,-0.8182830810546875
1780626537557893400,3.107893310546875,-0.1208648681640625,0.66656494140625,-0.7657318115234375
1780626537567888400,3.117888427734375,-0.4206695556640625,0.7544708251953125,-0.8689117431640625
1780626537577883400,3.12788330078125,-0.47607421875,0.8699951171875,-0.982391357421875
1780626537587878400,3.13787841796875,-0.3478546142578125,0.8738861083984375,-1.0698394775390625
1780626537597873400,3.147873291015625,-0.332244873046875,0.7519683837890625,-1.126617431640625
1780626537607868400,3.157868408203125,-0.1698455810546875,0.646148681640625,-1.0227813720703125
1780626537617863400,3.167863525390625,0.093780517578125,0.5418853759765625,-0.8542327880859375
1780626537627858400,3.1778583984375,0.472564697265625,0.4756317138671875,-0.631927490234375
1780626537637853400,3.187853515625,0.622039794921875,0.39410400390625,-0.4407196044921875
1780626537647848400,3.197848388671875,0.4351043701171875,0.213714599609375,-0.540191650390625
1780626537657843500,3.207843505859375,0.200042724609375,0.113250732421875,-0.7767333984375
1780626537667838200,3.217838134765625,0.163421630859375,0.198699951171875,-0.8369293212890625
1780626537677833200,3.227833251953125,0.1654510498046875,0.35235595703125,-0.5633392333984375
1780626537687828200,3.237828125,0.12255859375,0.5796966552734375,-0.406158447265625
1780626537697823200,3.2478232421875,0.0888824462890625,0.72601318359375,-0.32373046875
1780626537707818500,3.257818603515625,0.030487060546875,0.7512359619140625,-0.299591064453125
1780626537717813500,3.2678134765625,0.0648040771484375,0.6640625,-0.3760833740234375
1780626537727808500,3.27780859375,0.2382354736328125,0.55743408203125,-0.4377593994140625
1780626537737803500,3.287803466796875,0.30810546875,0.4977264404296875,-0.4889984130859375
1780626537747798500,3.297798583984375,0.3516082763671875,0.4910125732421875,-0.5166015625
1780626537757793500,3.30779345703125,0.367340087890625,0.49896240234375,-0.49853515625
1780626537767788300,3.317788330078125,0.3670654296875,0.4820709228515625,-0.4450836181640625
1780626537777783300,3.327783203125,0.5255126953125,0.622100830078125,-0.4335479736328125
1780626537787778300,3.3377783203125,0.837677001953125,0.8652191162109375,-0.43560791015625
1780626537797773300,3.347773193359375,0.4456329345703125,0.978302001953125,-0.5211334228515625
1780626537807768300,3.357768310546875,-0.3657379150390625,0.870941162109375,-0.7104949951171875
1780626537817763300,3.367763427734375,0.349517822265625,0.894317626953125,-0.779022216796875
1780626537827758300,3.37775830078125,0.88934326171875,1.08746337890625,-0.8056488037109375
1780626537837753300,3.38775341796875,0.359283447265625,1.1233367919921875,-0.8752899169921875
1780626537847749400,3.397749267578125,0.0043182373046875,0.938232421875,-0.8819427490234375
1780626537857744400,3.407744384765625,0.073394775390625,0.78497314453125,-0.7878875732421875
1780626537867739400,3.417739501953125,0.2352142333984375,0.7469482421875,-0.6841278076171875
1780626537877734400,3.427734375,0.2732391357421875,0.7412872314453125,-0.616973876953125
1780626537887729400,3.4377294921875,0.2543182373046875,0.71514892578125,-0.55340576171875
1780626537897724400,3.447724365234375,0.2807464599609375,0.65753173828125,-0.5148773193359375
1780626537907719400,3.457719482421875,0.2761077880859375,0.6437835693359375,-0.6216888427734375
1780626537917714400,3.46771435546875,0.205535888671875,0.7029266357421875,-0.733245849609375
1780626537927709400,3.47770947265625,0.2298431396484375,0.691192626953125,-0.748504638671875
1780626537937704400,3.487704345703125,0.390869140625,0.6951446533203125,-0.6383209228515625
1780626537947699200,3.49769921875,0.552581787109375,0.7500762939453125,-0.3729248046875
1780626537957694200,3.507694091796875,0.5322265625,0.8122711181640625,-0.095123291015625
1780626537967689200,3.517689208984375,0.3377685546875,0.6689910888671875,0.0091094970703125
1780626537977684500,3.5276845703125,0.2933502197265625,0.458038330078125,0
1780626537987679500,3.537679443359375,0.14105224609375,0.2242584228515625,-0.0724029541015625
1780626537997674500,3.547674560546875,0.0340576171875,0.1228790283203125,-0.126007080078125
1780626538007669500,3.55766943359375,0.0275115966796875,0.3685302734375,-0.1932220458984375
1780626538017664500,3.56766455078125,-0.102508544921875,0.8507537841796875,-0.222442626953125
1780626538027659500,3.577659423828125,-0.1256103515625,1.0283355712890625,-0.2572174072265625
1780626538037654300,3.587654296875,0.3349151611328125,1.06304931640625,-0.2505645751953125
1780626538047649300,3.597649169921875,0.5852813720703125,1.1368865966796875,-0.191131591796875
1780626538057644300,3.607644287109375,0.53253173828125,1.0999908447265625,-0.0822601318359375
1780626538067639300,3.617639404296875,0.3911895751953125,0.8827667236328125,0.0143585205078125
1780626538077634300,3.62763427734375,0.261993408203125,0.732635498046875,0.0903778076171875
1780626538087629300,3.63762939453125,0.387664794921875,0.587890625,0.10516357421875
1780626538097624300,3.647624267578125,0.847198486328125,0.41815185546875,0.0919189453125
1780626538107619300,3.657619384765625,0.2201995849609375,0.341400146484375,0.066864013671875
1780626538117614600,3.667614501953125,-0.08685302734375,0.4036407470703125,0.042877197265625
1780626538127609600,3.677609619140625,-0.0603179931640625,0.7100982666015625,0.09295654296875
1780626538137605400,3.68760546875,0.10498046875,1.0483856201171875,0.254608154296875
1780626538147600400,3.697600341796875,0.1408843994140625,1.4795074462890625,0.4640960693359375
1780626538157595400,3.707595458984375,0.02740478515625,1.940399169921875,0.742279052734375
1780626538167590400,3.71759033203125,-0.067962646484375,2.2431793212890625,0.930999755859375
1780626538177585400,3.72758544921875,-0.1292724609375,2.2617034912109375,0.9782257080078125
1780626538187580400,3.737580322265625,0.198455810546875,1.982818603515625,0.8575897216796875
1780626538197575400,3.747575439453125,0.8831634521484375,1.4747314453125,0.515716552734375
1780626538207570400,3.7575703125,0.7359771728515625,1.0976409912109375,0.2724456787109375
1780626538217565200,3.767565185546875,0.467437744140625,0.83868408203125,0.1661834716796875
1780626538227560200,3.777560302734375,0.2718505859375,0.66796875,0.1511077880859375
1780626538237555500,3.787555419921875,0.14178466796875,0.5909576416015625,0.22418212890625
1780626538247550500,3.797550537109375,0.0845794677734375,0.5872650146484375,0.344207763671875
1780626538257545500,3.80754541015625,0.0897369384765625,0.642120361328125,0.43804931640625
1780626538267540500,3.81754052734375,0.1580657958984375,0.7183380126953125,0.497528076171875
1780626538277535500,3.827535400390625,0.2442169189453125,0.780792236328125,0.53564453125
1780626538287530500,3.837530517578125,0.2787933349609375,0.8200531005859375,0.5414886474609375
1780626538297525500,3.847525390625,0.2332305908203125,0.830657958984375,0.5179595947265625
1780626538307520500,3.8575205078125,0.156463623046875,0.826629638671875,0.468963623046875
1780626538317515300,3.867515380859375,0.1103973388671875,0.8356475830078125,0.4242401123046875
1780626538327510300,3.87751025390625,0.0907440185546875,0.8722991943359375,0.4100189208984375
1780626538337505300,3.88750537109375,0.10430908203125,0.9285888671875,0.4336700439453125
1780626538347500300,3.897500244140625,0.1417236328125,0.9855804443359375,0.468963623046875
1780626538357495300,3.907495361328125,0.173675537109375,1.032135009765625,0.499542236328125
1780626538367490300,3.917490234375,0.159576416015625,1.0320281982421875,0.4872894287109375
1780626538377485300,3.9274853515625,0.1266937255859375,0.982421875,0.440521240234375
1780626538387480600,3.93748046875,0.0961761474609375,0.9344024658203125,0.3885650634765625
1780626538397476400,3.947476318359375,0.0918426513671875,0.8969573974609375,0.3453216552734375
1780626538407471400,3.957471435546875,0.0961761474609375,0.87713623046875,0.3178863525390625
1780626538417466400,3.96746630859375,0.0691375732421875,0.8580780029296875,0.286590576171875
1780626538427461400,3.97746142578125,-0.004669189453125,0.8886871337890625,0.30816650390625
1780626538437456400,3.987456298828125,-0.0695953369140625,0.93707275390625,0.3565521240234375
1780626538447451400,3.997451416015625,-0.101226806640625,0.971282958984375,0.3980865478515625
1780626538457446400,4.0074462890625,-0.0734405517578125,0.9896392822265625,0.4183807373046875
1780626538467441400,4.01744140625,-0.0238037109375,0.9676513671875,0.4273223876953125
1780626538477436400,4.0274365234375,0.0303955078125,0.964324951171875,0.44915771484375
1780626538487431200,4.03743115234375,0.1062164306640625,0.9759979248046875,0.51202392578125
1780626538497426400,4.047426513671875,0.2404937744140625,0.9435272216796875,0.5433807373046875
1780626538507421400,4.05742138671875,0.3081207275390625,0.9144287109375,0.5428466796875
1780626538517416000,4.067416015625,0.2823333740234375,0.866119384765625,0.519134521484375
1780626538527411000,4.077410888671875,0.176544189453125,0.830169677734375,0.4238739013671875
1780626538537406200,4.08740625,0.030303955078125,0.820556640625,0.3260040283203125
1780626538547401200,4.097401123046875,-0.1021881103515625,0.852783203125,0.30029296875
1780626538557396200,4.107396240234375,-0.156341552734375,0.8907623291015625,0.3003692626953125
1780626538567391200,4.11739111328125,-0.1547088623046875,0.9326324462890625,0.2916107177734375
1780626538577386200,4.12738623046875,-0.111663818359375,0.959259033203125,0.281646728515625
1780626538587381200,4.13738134765625,-0.0076141357421875,0.97540283203125,0.29217529296875
1780626538597376000,4.1473759765625,0.108917236328125,0.98516845703125,0.327423095703125
1780626538607371000,4.15737109375,0.1844482421875,0.980804443359375,0.3619384765625
1780626538617366000,4.167365966796875,0.17999267578125,0.965545654296875,0.3756561279296875
1780626538627361000,4.177361083984375,0.1408538818359375,0.9576873779296875,0.36669921875
1780626538637356000,4.18735595703125,0.0976104736328125,0.940185546875,0.3208465576171875
1780626538647351000,4.19735107421875,0.0629730224609375,0.9254608154296875,0.26434326171875
1780626538657347300,4.207347412109375,0.0417938232421875,0.935821533203125,0.235595703125
1780626538667342000,4.217342041015625,0.038818359375,0.97271728515625,0.244140625
1780626538677337000,4.227337158203125,0.0569915771484375,0.997039794921875,0.2665252685546875
1780626538687332000,4.23733203125,0.08087158203125,0.99395751953125,0.29522705078125
1780626538697327000,4.2473271484375,0.100616455078125,0.9712677001953125,0.3379974365234375
1780626538707322000,4.257322021484375,0.1057586669921875,0.941131591796875,0.370635986328125
1780626538717317000,4.267317138671875,0.1111602783203125,0.90997314453125,0.3804931640625
1780626538727312100,4.27731201171875,0.1247711181640625,0.8858489990234375,0.3721923828125
1780626538737307100,4.28730712890625,0.1388702392578125,0.8764495849609375,0.354248046875
1780626538747302100,4.29730224609375,0.1360626220703125,0.8853607177734375,0.330902099609375
1780626538757297200,4.307297119140625,0.1337432861328125,0.91119384765625,0.3137664794921875
1780626538767292000,4.3172919921875,0.1393280029296875,0.9449920654296875,0.2911529541015625
1780626538777287000,4.327286865234375,0.146697998046875,0.9665985107421875,0.2607269287109375
1780626538787282000,4.337281982421875,0.1652374267578125,0.9784088134765625,0.237274169921875
1780626538797277200,4.347277099609375,0.184356689453125,0.9793701171875,0.2264404296875
1780626538807272200,4.357272216796875,0.2064208984375,0.97198486328125,0.2284393310546875
1780626538817267200,4.36726708984375,0.2250213623046875,0.957305908203125,0.2339935302734375
1780626538827262200,4.37726220703125,0.2309722900390625,0.9483795166015625,0.2465667724609375
1780626538837257200,4.38725732421875,0.2169952392578125,0.945281982421875,0.2633819580078125
1780626538847252200,4.397252197265625,0.180999755859375,0.947265625,0.2750701904296875
1780626538857247200,4.407247314453125,0.1523284912109375,0.9497833251953125,0.2828369140625
1780626538867242000,4.417241943359375,0.1368865966796875,0.946258544921875,0.283172607421875
1780626538877237000,4.427237060546875,0.117584228515625,0.9396209716796875,0.2853851318359375
1780626538887232000,4.43723193359375,0.10601806640625,0.9335784912109375,0.29541015625
1780626538897227000,4.44722705078125,0.1182403564453125,0.9300384521484375,0.3105010986328125
1780626538907222000,4.457221923828125,0.15228271484375,0.9370269775390625,0.3306121826171875
1780626538917217000,4.467217041015625,0.180999755859375,0.950469970703125,0.344573974609375
1780626538927213300,4.47721337890625,0.177001953125,0.96124267578125,0.348052978515625
1780626538937208000,4.4872080078125,0.145233154296875,0.96337890625,0.3357086181640625
1780626538947203000,4.497203125,0.0990447998046875,0.962799072265625,0.3216094970703125
1780626538957198000,4.507197998046875,0.0510406494140625,0.9647674560546875,0.3155517578125
1780626538967193000,4.517193115234375,0.01739501953125,0.957305908203125,0.3071746826171875
1780626538977188000,4.52718798828125,-0.009735107421875,0.9412994384765625,0.30322265625
1780626538987183000,4.53718310546875,-0.0339508056640625,0.9188690185546875,0.291656494140625
1780626538997178000,4.54717822265625,-0.05078125,0.89129638671875,0.2831573486328125
1780626539007173000,4.557173095703125,-0.0607452392578125,0.8632965087890625,0.27423095703125
1780626539017168100,4.567168212890625,-0.0756988525390625,0.8518829345703125,0.27581787109375
1780626539027163100,4.5771630859375,-0.0996856689453125,0.85986328125,0.2891998291015625
1780626539037158000,4.587157958984375,-0.1285858154296875,0.890167236328125,0.324554443359375
1780626539047153000,4.59715283203125,-0.14385986328125,0.93701171875,0.374237060546875
1780626539057148200,4.607148193359375,-0.1192474365234375,0.977447509765625,0.417633056640625
1780626539067143200,4.61714306640625,-0.0433349609375,0.9914398193359375,0.4484405517578125
1780626539077138200,4.62713818359375,0.0526123046875,0.97314453125,0.45025634765625
1780626539087133200,4.63713330078125,0.1442718505859375,0.936431884765625,0.4173126220703125
1780626539097128200,4.647128173828125,0.177459716796875,0.91363525390625,0.33966064453125
1780626539107123200,4.657123291015625,0.133819580078125,0.94085693359375,0.2740325927734375
1780626539117118200,4.6671181640625,0.071746826171875,0.9818115234375,0.238128662109375
1780626539127113200,4.67711328125,0.0211334228515625,1.01373291015625,0.2245941162109375
1780626539137108000,4.68710791015625,-0.032928466796875,1.03369140625,0.257904052734375
1780626539147103000,4.69710302734375,-0.0649261474609375,1.05877685546875,0.3385467529296875
1780626539157098000,4.707097900390625,-0.0617828369140625,1.0748443603515625,0.404388427734375
1780626539167093000,4.717093017578125,-0.0213470458984375,1.05145263671875,0.425445556640625
1780626539177088000,4.727087890625,0.038970947265625,0.9985198974609375,0.4220123291015625
1780626539187084300,4.737084228515625,0.062896728515625,0.9325714111328125,0.3906707763671875
1780626539197079300,4.747079345703125,0.020660400390625,0.87841796875,0.340179443359375
1780626539207074000,4.757073974609375,-0.040740966796875,0.8477935791015625,0.289276123046875
1780626539217069000,4.767069091796875,-0.095947265625,0.8455963134765625,0.262786865234375
1780626539227064000,4.77706396484375,-0.1383514404296875,0.8875885009765625,0.264251708984375
1780626539237059000,4.78705908203125,-0.1675567626953125,0.9440765380859375,0.267364501953125
1780626539247054000,4.79705419921875,-0.1616058349609375,0.9870758056640625,0.26373291015625
1780626539257049000,4.807049072265625,-0.1264190673828125,1.005126953125,0.26214599609375
1780626539267044000,4.817044189453125,-0.085296630859375,1.0047607421875,0.265594482421875
1780626539277039000,4.8270390625,-0.0233612060546875,0.9876251220703125,0.269744873046875
1780626539287034000,4.8370341796875,0.0511322021484375,0.955230712890625,0.274078369140625
1780626539297029000,4.847029052734375,0.1028900146484375,0.90936279296875,0.2676849365234375
1780626539307024100,4.857024169921875,0.121734619140625,0.8756866455078125,0.2623443603515625
1780626539317019000,4.867018798828125,0.1039581298828125,0.8684234619140625,0.265960693359375
1780626539327014100,4.87701416015625,0.052337646484375,0.885650634765625,0.28045654296875
1780626539337009200,4.887009033203125,-0.00616455078125,0.9205780029296875,0.3096466064453125
1780626539347004200,4.897004150390625,-0.028106689453125,0.953826904296875,0.357025146484375
1780626539356999200,4.906999267578125,-0.02105712890625,0.9614105224609375,0.406951904296875
1780626539366994200,4.916994140625,0.0084991455078125,0.9642791748046875,0.449737548828125
1780626539376989200,4.9269892578125,0.07745361328125,0.9632415771484375,0.4688873291015625
1780626539386984200,4.936984130859375,0.1756134033203125,0.9418487548828125,0.4471282958984375
1780626539396979200,4.946979248046875,0.260589599609375,0.9078369140625,0.3732452392578125
1780626539406974000,4.956973876953125,0.29620361328125,0.89569091796875,0.2836761474609375
1780626539416969000,4.966968994140625,0.2824249267578125,0.928497314453125,0.222900390625
1780626539426965000,4.976965087890625,0.240966796875,0.9911956787109375,0.20526123046875
1780626539436960000,4.9869599609375,0.204498291015625,1.041473388671875,0.1996917724609375
1780626539446955300,4.996955322265625,0.1866912841796875,1.0628204345703125,0.203643798828125
1780626539456950300,5.0069501953125,0.1859130859375,1.03759765625,0.2322540283203125
1780626539466945300,5.0169453125,0.210174560546875,0.987518310546875,0.2996368408203125
1780626539476940000,5.02693994140625,0.238525390625,0.924407958984375,0.3493499755859375
1780626539486935000,5.03693505859375,0.2392120361328125,0.8492584228515625,0.3131561279296875
1780626539496930000,5.046929931640625,0.1917724609375,0.785247802734375,0.218963623046875
1780626539506925000,5.056925048828125,0.0775909423828125,0.7531585693359375,0.1447296142578125
1780626539516920600,5.066920654296875,-0.062408447265625,0.7694091796875,0.146453857421875
1780626539526915600,5.07691552734375,-0.135223388671875,0.8424835205078125,0.208465576171875
1780626539536910600,5.08691064453125,-0.123626708984375,0.9337005615234375,0.28472900390625
1780626539546905600,5.096905517578125,-0.07904052734375,0.977630615234375,0.3480072021484375
1780626539556900600,5.106900634765625,-0.00531005859375,1.0029144287109375,0.44036865234375
1780626539566895400,5.116895263671875,0.1337127685546875,1.0181121826171875,0.5703125
1780626539576890400,5.126890380859375,0.333740234375,1.0115814208984375,0.6763458251953125
1780626539586885400,5.136885498046875,0.480194091796875,0.95361328125,0.6719818115234375
1780626539596880400,5.14688037109375,0.4663238525390625,0.836090087890625,0.50994873046875
1780626539606875400,5.15687548828125,0.341156005859375,0.7496490478515625,0.331268310546875
1780626539616870400,5.166870361328125,0.2347869873046875,0.727386474609375,0.23455810546875
1780626539626865400,5.176865478515625,0.1679534912109375,0.768402099609375,0.2110443115234375
1780626539636860400,5.1868603515625,0.1666717529296875,0.869964599609375,0.2640380859375
1780626539646855700,5.196855712890625,0.2545318603515625,0.9703369140625,0.35223388671875
1780626539656850700,5.2068505859375,0.375213623046875,1.01409912109375,0.3978118896484375
1780626539666846500,5.216846435546875,0.4519805908203125,1.0113525390625,0.3700714111328125
1780626539676841500,5.226841552734375,0.477569580078125,0.9835052490234375,0.2824249267578125
1780626539686836500,5.23683642578125,0.4647064208984375,0.9500274658203125,0.1870269775390625
1780626539696831500,5.24683154296875,0.43695068359375,0.913848876953125,0.134552001953125
1780626539706826500,5.256826416015625,0.410430908203125,0.889312744140625,0.1038818359375
1780626539716821500,5.266821533203125,0.370269775390625,0.9001312255859375,0.080810546875
1780626539726816500,5.27681640625,0.291046142578125,0.952972412109375,0.0982208251953125
1780626539736811500,5.2868115234375,0.234222412109375,1.0113525390625,0.1660919189453125
1780626539746806300,5.29680615234375,0.2300262451171875,1.0379791259765625,0.26336669921875
1780626539756801300,5.30680126953125,0.2199859619140625,1.01483154296875,0.346221923828125
1780626539766796500,5.316796630859375,0.1853485107421875,0.9508514404296875,0.40631103515625
1780626539776791600,5.32679150390625,0.1618804931640625,0.8719024658203125,0.44439697265625
1780626539786786600,5.33678662109375,0.1270751953125,0.807647705078125,0.4646453857421875
1780626539796781600,5.346781494140625,0.093170166015625,0.778076171875,0.4853515625
1780626539806776600,5.356776611328125,0.106689453125,0.7728271484375,0.507965087890625
1780626539816771600,5.366771484375,0.1593017578125,0.7998199462890625,0.51776123046875
1780626539826766600,5.3767666015625,0.1992340087890625,0.8449554443359375,0.5038909912109375
1780626539836761600,5.38676171875,0.2047119140625,0.8941192626953125,0.4671478271484375
1780626539846756400,5.39675634765625,0.215179443359375,0.93536376953125,0.43243408203125
1780626539856751400,5.40675146484375,0.24627685546875,0.9548492431640625,0.401885986328125
1780626539866746400,5.416746337890625,0.2551422119140625,0.9488525390625,0.3820343017578125
1780626539876741400,5.426741455078125,0.2241363525390625,0.9257354736328125,0.36822509765625
1780626539886736400,5.436736328125,0.204254150390625,0.8922576904296875,0.356536865234375
1780626539896732700,5.446732666015625,0.2021484375,0.87908935546875,0.3373870849609375
1780626539906727700,5.456727783203125,0.181365966796875,0.8877105712890625,0.3062896728515625
1780626539916722400,5.466722412109375,0.14892578125,0.908477783203125,0.276214599609375
1780626539926717400,5.476717529296875,0.126434326171875,0.930389404296875,0.255401611328125
1780626539936712400,5.48671240234375,0.1129150390625,0.9482879638671875,0.2446136474609375
1780626539946707500,5.49670751953125,0.1161956787109375,0.95355224609375,0.232330322265625
1780626539956702500,5.506702392578125,0.118865966796875,0.9635009765625,0.2296905517578125
1780626539966697500,5.516697509765625,0.107147216796875,0.9771575927734375,0.246002197265625
1780626539976692500,5.5266923828125,0.1031341552734375,0.978271484375,0.2697906494140625
1780626539986687500,5.5366875,0.10809326171875,0.973968505859375,0.2964324951171875
1780626539996682500,5.5466826171875,0.1045989990234375,0.96771240234375,0.3225555419921875
1780626540006677500,5.556677490234375,0.0895233154296875,0.9611053466796875,0.3432159423828125
1780626540016672300,5.56667236328125,0.0810394287109375,0.9409332275390625,0.35467529296875
1780626540026667300,5.576667236328125,0.08013916015625,0.9145050048828125,0.35699462890625
1780626540036662500,5.58666259765625,0.0850677490234375,0.8834991455078125,0.3542938232421875
1780626540046657500,5.596657470703125,0.092620849609375,0.8595428466796875,0.3412628173828125
1780626540056652500,5.606652587890625,0.0899658203125,0.8519287109375,0.32879638671875
1780626540066647600,5.6166474609375,0.08624267578125,0.8699493408203125,0.3356781005859375
1780626540076642600,5.626642578125,0.0899810791015625,0.91278076171875,0.3642578125
1780626540086637600,5.636637451171875,0.1027984619140625,0.9566650390625,0.392791748046875
1780626540096632600,5.646632568359375,0.1390228271484375,0.9889373779296875,0.406890869140625
1780626540106627600,5.656627685546875,0.18017578125,0.9984283447265625,0.40277099609375
1780626540116623400,5.666623291015625,0.2222137451171875,0.98193359375,0.3803863525390625
1780626540126618400,5.676618408203125,0.2375640869140625,0.93902587890625,0.3316802978515625
1780626540136613400,5.68661328125,0.2279510498046875,0.8971710205078125,0.2733001708984375
1780626540146608600,5.696608642578125,0.22515869140625,0.8815155029296875,0.231781005859375
1780626540156603600,5.706603759765625,0.218658447265625,0.891082763671875,0.216796875
1780626540166598700,5.7165986328125,0.2017364501953125,0.9196014404296875,0.220245361328125
1780626540176593700,5.72659375,0.189208984375,0.9456329345703125,0.233978271484375
1780626540186588400,5.73658837890625,0.18658447265625,0.9684600830078125,0.254180908203125
1780626540196583400,5.74658349609375,0.1953582763671875,0.992156982421875,0.291046142578125
1780626540206578400,5.756578369140625,0.2163543701171875,1.0052337646484375,0.3206787109375
1780626540216573400,5.766573486328125,0.220458984375,0.99896240234375,0.3113250732421875
1780626540226568400,5.776568359375,0.20965576171875,0.980377197265625,0.288604736328125
1780626540236563500,5.7865634765625,0.204193115234375,0.9533233642578125,0.27197265625
1780626540246558500,5.796558349609375,0.2079010009765625,0.91778564453125,0.27716064453125
1780626540256553500,5.806553466796875,0.210968017578125,0.891265869140625,0.302734375
1780626540266548500,5.816548583984375,0.1993255615234375,0.87158203125,0.3197784423828125
1780626540276543500,5.82654345703125,0.16436767578125,0.8589935302734375,0.31341552734375
1780626540286538200,5.836538330078125,0.1174163818359375,0.849884033203125,0.2923736572265625
1780626540296533500,5.846533447265625,0.062530517578125,0.84381103515625,0.2859649658203125
1780626540306528500,5.856528564453125,0.0540008544921875,0.85052490234375,0.30963134765625
1780626540316523500,5.8665234375,0.0897674560546875,0.8718719482421875,0.3499298095703125
1780626540326518500,5.8765185546875,0.120513916015625,0.9026641845703125,0.384429931640625
1780626540336513500,5.886513427734375,0.1751708984375,0.9182281494140625,0.4058074951171875
1780626540346509600,5.896509521484375,0.210845947265625,0.9149322509765625,0.3972320556640625
1780626540356504300,5.90650439453125,0.2461090087890625,0.89892578125,0.36920166015625
1780626540366499300,5.916499267578125,0.2842254638671875,0.8693084716796875,0.3316802978515625
1780626540376494300,5.926494384765625,0.2718658447265625,0.840850830078125,0.27789306640625
1780626540386489300,5.9364892578125,0.2171478271484375,0.8305206298828125,0.220703125
1780626540396484400,5.946484375,0.1902313232421875,0.8369293212890625,0.1873779296875
1780626540406479400,5.956479248046875,0.2484588623046875,0.8643035888671875,0.1798553466796875
1780626540416474600,5.966474609375,0.3566741943359375,0.919281005859375,0.191864013671875
1780626540426469600,5.9764697265625,0.4557037353515625,0.9940948486328125,0.2361602783203125
1780626540436464600,5.986464599609375,0.54876708984375,1.0681304931640625,0.3253936767578125
1780626540446459600,5.996459716796875,0.6087799072265625,1.1030731201171875,0.3968963623046875
1780626540456454400,6.006454345703125,0.534820556640625,1.057373046875,0.39788818359375
1780626540466449400,6.016449462890625,0.4049224853515625,0.946502685546875,0.376190185546875
1780626540476444400,6.0264443359375,0.313934326171875,0.8526153564453125,0.3862762451171875
1780626540486439400,6.036439453125,0.2592315673828125,0.7951507568359375,0.4071197509765625
1780626540496434400,6.046434326171875,0.2877044677734375,0.786041259765625,0.428802490234375
1780626540506429400,6.056429443359375,0.3665313720703125,0.8259124755859375,0.420074462890625
1780626540516424200,6.066424072265625,0.408782958984375,0.87396240234375,0.3784637451171875
1780626540526419200,6.076419189453125,0.3494720458984375,0.8972625732421875,0.3495330810546875
1780626540536414200,6.086414306640625,0.2417755126953125,0.896240234375,0.3773040771484375
1780626540546409200,6.0964091796875,0.20452880859375,0.86541748046875,0.4410858154296875
1780626540556405000,6.106405029296875,0.234405517578125,0.822784423828125,0.497467041015625
1780626540566400000,6.11639990234375,0.2694549560546875,0.799041748046875,0.5319061279296875
1780626540576395000,6.12639501953125,0.274017333984375,0.7915802001953125,0.513031005859375
1780626540586390000,6.13639013671875,0.2568817138671875,0.8100128173828125,0.4712677001953125
1780626540596385000,6.146385009765625,0.2164459228515625,0.853485107421875,0.444366455078125
1780626540606380000,6.156380126953125,0.18060302734375,0.878082275390625,0.40826416015625
1780626540616375300,6.166375244140625,0.17620849609375,0.89306640625,0.3790740966796875
1780626540626370300,6.176370361328125,0.2044677734375,0.906646728515625,0.3632659912109375
1780626540636365000,6.186364990234375,0.2445526123046875,0.9188079833984375,0.3543701171875
1780626540646360000,6.196360107421875,0.2696685791015625,0.9292144775390625,0.3443450927734375
1780626540656355000,6.20635498046875,0.289154052734375,0.9384918212890625,0.3373870849609375
1780626540666350000,6.21635009765625,0.3076324462890625,0.9439697265625,0.332977294921875
1780626540676345000,6.226344970703125,0.3098602294921875,0.95538330078125,0.3328094482421875
1780626540686340000,6.236340087890625,0.3017730712890625,0.9648590087890625,0.3380126953125
1780626540696335000,6.246335205078125,0.2959747314453125,0.964691162109375,0.344024658203125
1780626540706330000,6.256330078125,0.282073974609375,0.95654296875,0.35955810546875
1780626540716325000,6.2663251953125,0.249603271484375,0.929443359375,0.3695220947265625
1780626540726320000,6.276320068359375,0.2260284423828125,0.8869171142578125,0.376617431640625
1780626540736315100,6.286315185546875,0.221832275390625,0.8346405029296875,0.381378173828125
1780626540746310000,6.296309814453125,0.2194366455078125,0.7879180908203125,0.361572265625
1780626540756305200,6.30630517578125,0.225738525390625,0.772735595703125,0.320068359375
1780626540766301200,6.31630126953125,0.234588623046875,0.802642822265625,0.2808837890625
1780626540776296200,6.326296142578125,0.2452850341796875,0.8584136962890625,0.2603759765625
1780626540786291200,6.336291259765625,0.253265380859375,0.908416748046875,0.246673583984375
1780626540796286200,6.3462861328125,0.268524169921875,0.9485931396484375,0.2466278076171875
1780626540806281200,6.35628125,0.2932586669921875,0.9746246337890625,0.2638702392578125
1780626540816276000,6.36627587890625,0.3076629638671875,0.980377197265625,0.2901458740234375
1780626540826271000,6.37627099609375,0.2940673828125,0.9627685546875,0.3227691650390625
1780626540836266000,6.386265869140625,0.259552001953125,0.92205810546875,0.3543548583984375
1780626540846261000,6.396260986328125,0.23370361328125,0.8756561279296875,0.3882598876953125
1780626540856256000,6.406256103515625,0.22442626953125,0.832427978515625,0.422149658203125
1780626540866251000,6.4162509765625,0.2166748046875,0.791656494140625,0.4422149658203125
1780626540876246300,6.426246337890625,0.2011566162109375,0.762725830078125,0.441436767578125
1780626540886241300,6.4362412109375,0.2231292724609375,0.759124755859375,0.4229583740234375
1780626540896236300,6.446236328125,0.251953125,0.7841796875,0.3728179931640625
1780626540906231000,6.45623095703125,0.23760986328125,0.832489013671875,0.3267364501953125
1780626540916226000,6.46622607421875,0.2196502685546875,0.8922882080078125,0.30859375
1780626540926221000,6.476220947265625,0.24420166015625,0.933013916015625,0.301483154296875
1780626540936216000,6.486216064453125,0.269866943359375,0.9404754638671875,0.2899017333984375
1780626540946211000,6.496211181640625,0.2888641357421875,0.9199981689453125,0.2790069580078125
1780626540956206000,6.5062060546875,0.3166351318359375,0.896331787109375,0.27960205078125
1780626540966201000,6.516201171875,0.35504150390625,0.88812255859375,0.2880706787109375
1780626540976197000,6.526197021484375,0.357177734375,0.8990020751953125,0.30352783203125
1780626540986192000,6.53619189453125,0.3284912109375,0.9211578369140625,0.3365325927734375
1780626540996187100,6.546187255859375,0.3210601806640625,0.946685791015625,0.393646240234375
1780626541006182100,6.55618212890625,0.3218231201171875,0.9594268798828125,0.4622650146484375
1780626541016177200,6.56617724609375,0.31536865234375,0.95269775390625,0.51837158203125
1780626541026172200,6.576172119140625,0.334716796875,0.9232177734375,0.5425262451171875
1780626541036167200,6.586167236328125,0.3628997802734375,0.8749847412109375,0.5237579345703125
1780626541046162200,6.596162109375,0.34039306640625,0.8475341796875,0.487548828125
1780626541056157200,6.6061572265625,0.264892578125,0.8488616943359375,0.45001220703125
1780626541066152200,6.616152099609375,0.196197509765625,0.8628997802734375,0.4130096435546875
1780626541076147200,6.626147216796875,0.1878509521484375,0.8916778564453125,0.3779296875
1780626541086142000,6.636141845703125,0.22357177734375,0.938934326171875,0.3494720458984375
1780626541096137000,6.646136962890625,0.287139892578125,0.9865570068359375,0.31817626953125
1780626541106132000,6.656132080078125,0.3367919921875,1.01898193359375,0.2854461669921875
1780626541116127000,6.666126953125,0.3645172119140625,1.01849365234375,0.2455291748046875
1780626541126122000,6.6761220703125,0.3520050048828125,0.968048095703125,0.1866607666015625
1780626541136117000,6.686116943359375,0.28265380859375,0.87994384765625,0.1365509033203125
1780626541146112300,6.6961123046875,0.1951904296875,0.7968597412109375,0.111724853515625
1780626541156107300,6.706107177734375,0.1540374755859375,0.7518310546875,0.1590728759765625
1780626541166102300,6.716102294921875,0.1701507568359375,0.7606048583984375,0.267303466796875
1780626541176098000,6.72609814453125,0.199493408203125,0.7951507568359375,0.347015380859375
1780626541186093000,6.736093017578125,0.2414093017578125,0.8310546875,0.3575439453125
1780626541196088000,6.746088134765625,0.2710723876953125,0.8596649169921875,0.3100433349609375
1780626541206083000,6.7560830078125,0.233306884765625,0.86767578125,0.2248382568359375
1780626541216078000,6.766078125,0.19512939453125,0.85247802734375,0.1736297607421875
1780626541226073000,6.776072998046875,0.17999267578125,0.853607177734375,0.2147064208984375
1780626541236068000,6.786068115234375,0.185882568359375,0.885650634765625,0.33453369140625
1780626541246063000,6.79606298828125,0.2100830078125,0.9283599853515625,0.4562835693359375
1780626541256058000,6.80605810546875,0.2474517822265625,0.9647064208984375,0.5460205078125
1780626541266053000,6.81605322265625,0.296600341796875,0.98468017578125,0.5974884033203125
1780626541276048100,6.826048095703125,0.344970703125,0.974884033203125,0.601531982421875
1780626541286043100,6.836043212890625,0.357940673828125,0.9346771240234375,0.5470733642578125
1780626541296038100,6.8460380859375,0.3499755859375,0.8804473876953125,0.4664764404296875
1780626541306033200,6.856033203125,0.2906341552734375,0.83489990234375,0.382720947265625
1780626541316028200,6.866028076171875,0.227996826171875,0.7997589111328125,0.3201446533203125
1780626541326023200,6.876023193359375,0.1773834228515625,0.7961273193359375,0.2981414794921875
1780626541336018200,6.88601806640625,0.2055206298828125,0.849609375,0.326995849609375
1780626541346013200,6.89601318359375,0.290802001953125,0.94342041015625,0.379913330078125
1780626541356008000,6.906008056640625,0.320892333984375,1.0068206787109375,0.38629150390625
1780626541366004000,6.91600390625,0.3090972900390625,1.006744384765625,0.3376312255859375
1780626541375999200,6.925999267578125,0.3015899658203125,0.9625396728515625,0.2811279296875
1780626541385994200,6.935994140625,0.2839508056640625,0.9042205810546875,0.2423248291015625
1780626541395989200,6.9459892578125,0.2570648193359375,0.85430908203125,0.2355194091796875
1780626541405984300,6.955984375,0.2479248046875,0.828704833984375,0.2578887939453125
1780626541415979300,6.965979248046875,0.2518157958984375,0.8336334228515625,0.2993011474609375
1780626541425974000,6.97597412109375,0.256805419921875,0.8668060302734375,0.34906005859375
1780626541435969000,6.985968994140625,0.2891387939453125,0.9092864990234375,0.39715576171875
1780626541445964000,6.995964111328125,0.3374481201171875,0.9356231689453125,0.4249725341796875
1780626541455959000,7.005958984375,0.3657684326171875,0.9400787353515625,0.4069671630859375
1780626541465954000,7.0159541015625,0.36578369140625,0.9298858642578125,0.358551025390625
1780626541475949000,7.025948974609375,0.367584228515625,0.92431640625,0.330963134765625
1780626541485944000,7.035944091796875,0.3852996826171875,0.9239349365234375,0.3252716064453125
1780626541495939000,7.04593896484375,0.4002532958984375,0.914306640625,0.3265228271484375
1780626541505934000,7.05593408203125,0.3805389404296875,0.8906097412109375,0.326507568359375
1780626541515929000,7.06592919921875,0.29541015625,0.8516693115234375,0.3169097900390625
1780626541525924400,7.07592431640625,0.2558441162109375,0.8102569580078125,0.323699951171875
1780626541535919400,7.08591943359375,0.265533447265625,0.7963714599609375,0.34722900390625
1780626541545914400,7.095914306640625,0.2642059326171875,0.812042236328125,0.356719970703125
1780626541555910700,7.10591064453125,0.266876220703125,0.8513336181640625,0.355621337890625
1780626541565905700,7.11590576171875,0.257171630859375,0.890350341796875,0.3504180908203125
1780626541575900700,7.125900634765625,0.2295989990234375,0.916717529296875,0.3423309326171875
1780626541585895400,7.1358955078125,0.205291748046875,0.9269866943359375,0.34185791015625
1780626541595890400,7.145890380859375,0.2046051025390625,0.9333953857421875,0.363739013671875
1780626541605885400,7.155885498046875,0.2399139404296875,0.948516845703125,0.404449462890625
1780626541615880400,7.16588037109375,0.2999725341796875,0.96282958984375,0.4593353271484375
1780626541625875500,7.17587548828125,0.3448638916015625,0.9602508544921875,0.4904632568359375
1780626541635870500,7.185870361328125,0.3395538330078125,0.9311065673828125,0.4813995361328125
1780626541645865500,7.195865478515625,0.2771759033203125,0.8861846923828125,0.453857421875
1780626541655860500,7.205860595703125,0.248870849609375,0.8471221923828125,0.434326171875
1780626541665855500,7.21585546875,0.23773193359375,0.8293914794921875,0.4083099365234375
1780626541675850800,7.225850830078125,0.2106475830078125,0.8256683349609375,0.3662872314453125
1780626541685845500,7.235845458984375,0.1982269287109375,0.822265625,0.3189697265625
1780626541695840500,7.245840576171875,0.2136383056640625,0.8367919921875,0.290283203125
1780626541705835500,7.25583544921875,0.254119873046875,0.8714752197265625,0.2830352783203125
1780626541715830500,7.26583056640625,0.3006744384765625,0.910125732421875,0.2844696044921875
1780626541725825500,7.275825439453125,0.340850830078125,0.9387969970703125,0.2801513671875
1780626541735820500,7.285820556640625,0.366363525390625,0.9553985595703125,0.2768707275390625
1780626541745816600,7.295816650390625,0.383087158203125,0.9664459228515625,0.277679443359375
1780626541755811300,7.305811279296875,0.4142303466796875,0.970794677734375,0.2925262451171875
1780626541765806300,7.315806396484375,0.4312591552734375,0.9571685791015625,0.304656982421875
1780626541775801300,7.32580126953125,0.4115447998046875,0.9170379638671875,0.2893524169921875
1780626541785796400,7.33579638671875,0.3855133056640625,0.8708038330078125,0.271209716796875
1780626541795791600,7.34579150390625,0.3693695068359375,0.849395751953125,0.27960205078125
1780626541805786600,7.35578662109375,0.348602294921875,0.8598175048828125,0.3188323974609375
1780626541815781600,7.36578173828125,0.335205078125,0.886260986328125,0.359649658203125
1780626541825776600,7.375776611328125,0.343170166015625,0.8980865478515625,0.3676300048828125
1780626541835771600,7.385771728515625,0.34228515625,0.8933258056640625,0.338775634765625
1780626541845766700,7.3957666015625,0.3384552001953125,0.89215087890625,0.3213348388671875
1780626541855761400,7.405761474609375,0.3493499755859375,0.886505126953125,0.3156585693359375
1780626541865756400,7.41575634765625,0.382843017578125,0.8692779541015625,0.30731201171875
1780626541875751400,7.42575146484375,0.415863037109375,0.8553009033203125,0.295684814453125
1780626541885746400,7.435746337890625,0.4356689453125,0.846710205078125,0.274627685546875
1780626541895741400,7.445741455078125,0.480865478515625,0.8535003662109375,0.253082275390625
1780626541905736400,7.455736328125,0.51519775390625,0.8988037109375,0.252899169921875
1780626541915731500,7.4657314453125,0.4608917236328125,0.969818115234375,0.268798828125
1780626541925727500,7.4757275390625,0.41302490234375,1.0231781005859375,0.287353515625
1780626541935722500,7.485722412109375,0.4110260009765625,1.05682373046875,0.3063507080078125
1780626541945717500,7.495717529296875,0.3960723876953125,1.0872955322265625,0.3350067138671875
1780626541955712500,7.50571240234375,0.3325653076171875,1.1129608154296875,0.3614654541015625
1780626541965707500,7.51570751953125,0.3050689697265625,1.093536376953125,0.3487548828125
1780626541975702500,7.52570263671875,0.350982666015625,1.003997802734375,0.300628662109375
1780626541985697500,7.535697509765625,0.3709716796875,0.9105987548828125,0.26544189453125
1780626541995692500,7.545692626953125,0.350189208984375,0.8260040283203125,0.2367706298828125
1780626542005687600,7.5556875,0.2941131591796875,0.7539825439453125,0.21844482421875
1780626542015682600,7.5656826171875,0.2771453857421875,0.7360992431640625,0.267425537109375
1780626542025677600,7.575677490234375,0.322723388671875,0.7936248779296875,0.385498046875
1780626542035672300,7.58567236328125,0.3309326171875,0.8854217529296875,0.5191650390625
1780626542045667300,7.595667236328125,0.3114166259765625,0.945159912109375,0.5954437255859375
1780626542055662600,7.60566259765625,0.304656982421875,0.9540863037109375,0.598602294921875
1780626542065657600,7.61565771484375,0.31793212890625,0.9042816162109375,0.54754638671875
1780626542075652600,7.625652587890625,0.3503570556640625,0.8401947021484375,0.4736785888671875
1780626542085647600,7.635647705078125,0.346771240234375,0.784271240234375,0.3951568603515625
1780626542095642600,7.645642578125,0.3360443115234375,0.7342071533203125,0.331939697265625
1780626542105638400,7.655638427734375,0.3115997314453125,0.7116851806640625,0.3088836669921875
1780626542115633400,7.66563330078125,0.0915679931640625,0.75439453125,0.35443115234375
1780626542125628400,7.67562841796875,-0.0851287841796875,0.8079986572265625,0.4091033935546875
1780626542135623400,7.68562353515625,0.4059295654296875,0.744384765625,0.3983612060546875
1780626542145618400,7.695618408203125,0.7197113037109375,0.5894317626953125,0.2880706787109375
1780626542155613400,7.705613525390625,0.315185546875,0.685211181640625,0.4039306640625
1780626542165608400,7.7156083984375,0.333404541015625,0.660247802734375,0.3852691650390625
1780626542175603700,7.725603759765625,0.4092254638671875,0.6502532958984375,0.385955810546875
1780626542185598700,7.7355986328125,0.4734954833984375,0.6601409912109375,0.400238037109375
1780626542195593500,7.745593505859375,0.4208831787109375,0.6920928955078125,0.420745849609375
1780626542205588500,7.75558837890625,0.3063507080078125,0.760894775390625,0.4468994140625
1780626542215583500,7.76558349609375,0.2652435302734375,0.8437042236328125,0.4307098388671875
1780626542225578500,7.77557861328125,0.268646240234375,0.9090728759765625,0.3820953369140625
1780626542235573500,7.785573486328125,0.2831878662109375,0.9371490478515625,0.3010406494140625
1780626542245568500,7.795568603515625,0.35919189453125,0.941131591796875,0.2079315185546875
1780626542255563500,7.8055634765625,0.344024658203125,0.953399658203125,0.1449737548828125
1780626542265558500,7.81555859375,0.2205352783203125,0.9645538330078125,0.106597900390625
1780626542275553500,7.825553466796875,0.1271209716796875,0.901885986328125,0.041961669921875
1780626542285549300,7.83554931640625,0.1590576171875,0.8333740234375,0.02081298828125
1780626542295544600,7.845544677734375,0.229705810546875,0.8322601318359375,0.079681396484375
1780626542305539600,7.85553955078125,0.27044677734375,0.8647308349609375,0.1967010498046875
1780626542315534600,7.86553466796875,0.324676513671875,0.900421142578125,0.3296051025390625
1780626542325529600,7.875529541015625,0.388824462890625,0.9272003173828125,0.432952880859375
1780626542335524600,7.885524658203125,0.4457244873046875,0.9512176513671875,0.54217529296875
1780626542345519600,7.89551953125,0.454345703125,0.9621124267578125,0.604217529296875
1780626542355514600,7.9055146484375,0.4427490234375,0.970916748046875,0.61920166015625
1780626542365509600,7.915509521484375,0.4519500732421875,0.98248291015625,0.62689208984375
1780626542375504400,7.92550439453125,0.4808807373046875,0.993377685546875,0.6336822509765625
1780626542385499400,7.93549951171875,0.4849090576171875,0.982330322265625,0.6160888671875
1780626542395494400,7.945494384765625,0.43218994140625,0.9599761962890625,0.571441650390625
1780626542405489400,7.955489501953125,0.3468475341796875,0.9230194091796875,0.513824462890625
1780626542415484400,7.965484375,0.2835540771484375,0.8754119873046875,0.4427490234375
1780626542425479400,7.9754794921875,0.2853546142578125,0.8600921630859375,0.3846282958984375
1780626542435474700,7.985474609375,0.3102874755859375,0.8928070068359375,0.35137939453125
1780626542445469700,7.9954697265625,0.34112548828125,0.9407196044921875,0.3151397705078125
1780626542455465500,8.005465576171876,0.366180419921875,1.0000457763671875,0.3126983642578125
1780626542465460500,8.01546044921875,0.3744354248046875,1.0522003173828125,0.3382568359375
1780626542475455500,8.02545556640625,0.3934326171875,1.0688018798828125,0.36029052734375
1780626542485450500,8.035450439453125,0.4150543212890625,1.0538330078125,0.3819427490234375
1780626542495445500,8.045445556640624,0.4098663330078125,1.0181121826171875,0.4112548828125
1780626542505440500,8.0554404296875,0.39697265625,0.972381591796875,0.43206787109375
1780626542515435500,8.065435546875,0.3827362060546875,0.9380035400390625,0.4574737548828125
1780626542525430800,8.0754306640625,0.3779144287109375,0.916290283203125,0.4921722412109375
1780626542535425500,8.085425537109375,0.4007720947265625,0.89697265625,0.515655517578125
1780626542545420500,8.095420654296875,0.4519500732421875,0.9135894775390625,0.5446319580078125
1780626542555415600,8.10541552734375,0.4869842529296875,0.950531005859375,0.5588836669921875
1780626542565410600,8.11541064453125,0.4863433837890625,0.980499267578125,0.557098388671875
1780626542575405800,8.12540576171875,0.50567626953125,0.94482421875,0.49884033203125
1780626542585400800,8.13540087890625,0.4877777099609375,0.9638824462890625,0.5272216796875
1780626542595395800,8.145395751953124,0.4829559326171875,1.026947021484375,0.592437744140625
1780626542605390800,8.155390869140625,0.568817138671875,0.9848785400390625,0.536468505859375
1780626542615385900,8.1653857421875,0.6406707763671875,0.9326629638671875,0.438323974609375
1780626542625381600,8.175381591796874,0.6680145263671875,0.88214111328125,0.3435516357421875
1780626542635376600,8.185376708984375,0.6915130615234375,0.8319244384765625,0.2744293212890625
1780626542645371600,8.19537158203125,0.674591064453125,0.8082122802734375,0.2688446044921875
1780626542655366700,8.20536669921875,0.6155242919921875,0.80731201171875,0.31982421875
1780626542665361700,8.215361572265625,0.5970306396484375,0.800750732421875,0.3765869140625
1780626542675356700,8.225356689453125,0.6636810302734375,0.783355712890625,0.404998779296875
1780626542685351700,8.2353515625,0.7550506591796875,0.7689971923828125,0.4216156005859375
1780626542695347000,8.245346923828125,0.8038482666015625,0.7685699462890625,0.43792724609375
1780626542705341700,8.255341796875,0.84674072265625,0.7821044921875,0.473297119140625
1780626542715336700,8.265336669921876,0.886383056640625,0.807037353515625,0.5139617919921875
1780626542725331700,8.275331787109375,0.851470947265625,0.804962158203125,0.5340576171875
1780626542735326700,8.28532666015625,0.7821044921875,0.7698211669921875,0.5266876220703125
1780626542745321700,8.29532177734375,0.662811279296875,0.7099456787109375,0.4755401611328125
1780626542755316700,8.305316650390624,0.5746002197265625,0.6190185546875,0.41986083984375
1780626542765311700,8.315311767578125,0.6567535400390625,0.540191650390625,0.417083740234375
1780626542775306800,8.325306640625,0.83990478515625,0.522918701171875,0.513031005859375
1780626542785301800,8.3353017578125,0.9914398193359375,0.541107177734375,0.639739990234375
1780626542795297500,8.345297607421875,0.9866180419921875,0.5591888427734375,0.679901123046875
1780626542805292500,8.35529248046875,0.830352783203125,0.5518951416015625,0.6262969970703125
1780626542815287800,8.365287841796874,0.708770751953125,0.4892578125,0.5202178955078125
1780626542825282800,8.37528271484375,0.6392059326171875,0.4284820556640625,0.472503662109375
1780626542835277800,8.38527783203125,0.6236724853515625,0.375518798828125,0.4878997802734375
1780626542845272800,8.39527294921875,0.642669677734375,0.326812744140625,0.5120697021484375
1780626542855267800,8.405267822265625,0.6349945068359375,0.29107666015625,0.539794921875
1780626542865262800,8.415262939453125,0.669708251953125,0.266754150390625,0.542144775390625
1780626542875257900,8.4252578125,0.7228851318359375,0.2795562744140625,0.5055084228515625
1780626542885252600,8.435252685546875,0.623748779296875,0.3042755126953125,0.4358062744140625
1780626542895247600,8.44524755859375,0.4921875,0.3035888671875,0.3664093017578125
1780626542905242600,8.45524267578125,0.485687255859375,0.268707275390625,0.3259124755859375
1780626542915237600,8.465237548828124,0.45068359375,0.2044677734375,0.311126708984375
1780626542925232600,8.475232666015625,0.441802978515625,0.14971923828125,0.376708984375
1780626542935227600,8.4852275390625,0.4848175048828125,0.0695648193359375,0.4370269775390625
1780626542945222700,8.49522265625,0.525146484375,-0.01708984375,0.4487457275390625
1780626542955218000,8.505218017578125,0.5477142333984375,-0.100738525390625,0.4134368896484375
1780626542965213700,8.515213623046876,0.485443115234375,-0.15087890625,0.3398284912109375
1780626542975208700,8.525208740234374,0.4595184326171875,-0.166900634765625,0.30706787109375
1780626542985203700,8.53520361328125,0.56683349609375,-0.176116943359375,0.3051910400390625
1780626542995198700,8.54519873046875,0.6154632568359375,-0.1610107421875,0.3401947021484375
1780626543005193700,8.55519384765625,0.5893402099609375,-0.1366729736328125,0.402435302734375
1780626543015188700,8.565188720703125,0.6396026611328125,-0.150238037109375,0.4367523193359375
1780626543025183700,8.575183837890625,0.6802978515625,-0.1920623779296875,0.4342803955078125
1780626543035178800,8.5851787109375,0.7057952880859375,-0.2401580810546875,0.3937835693359375
1780626543045173800,8.595173828125,0.5979766845703125,-0.264068603515625,0.3502960205078125
1780626543055168500,8.60516845703125,0.6656036376953125,-0.2851104736328125,0.346038818359375
1780626543065163500,8.61516357421875,0.833648681640625,-0.2950592041015625,0.31207275390625
1780626543075158800,8.62515869140625,0.8678436279296875,-0.29541015625,0.2602081298828125
1780626543085153800,8.63515380859375,0.7779693603515625,-0.3300933837890625,0.172332763671875
1780626543095148800,8.645148681640626,0.590789794921875,-0.3306884765625,0.1619720458984375
1780626543105143800,8.655143798828124,0.5259552001953125,-0.3258056640625,0.21539306640625
1780626543115138800,8.665138916015625,0.5372772216796875,-0.316070556640625,0.3450927734375
1780626543125134600,8.675134521484376,0.6431121826171875,-0.2962646484375,0.5028228759765625
1780626543135129600,8.685129638671874,0.7293701171875,-0.2967529296875,0.6331634521484375
1780626543145124600,8.69512451171875,0.5897064208984375,-0.300048828125,0.67095947265625
1780626543155119600,8.70511962890625,0.515533447265625,-0.3087005615234375,0.57366943359375
1780626543165114600,8.715114501953124,0.5963897705078125,-0.2598114013671875,0.5049896240234375
1780626543175109600,8.725109619140625,0.701568603515625,-0.18817138671875,0.50848388671875
1780626543185104600,8.735104736328125,0.7438812255859375,-0.18621826171875,0.5091552734375
1780626543195100000,8.745099853515624,0.625762939453125,-0.2340545654296875,0.49456787109375
1780626543205095000,8.755094970703125,0.6328125,-0.2633056640625,0.4681243896484375
1780626543215090000,8.76508984375,0.704498291015625,-0.23358154296875,0.485870361328125
1780626543225084700,8.775084716796876,0.7785491943359375,-0.171112060546875,0.557220458984375
1780626543235079700,8.78507958984375,0.7236480712890625,-0.1119842529296875,0.6219482421875
1780626543245074700,8.79507470703125,0.64312744140625,-0.1171112060546875,0.6358489990234375
1780626543255069700,8.805069580078126,0.6970977783203125,-0.1673126220703125,0.65869140625
1780626543265064700,8.815064697265624,0.7261199951171875,-0.191314697265625,0.692962646484375
1780626543275059700,8.825059814453125,0.7766571044921875,-0.2023468017578125,0.690338134765625
1780626543285055700,8.8350556640625,0.853912353515625,-0.2063751220703125,0.6812896728515625
1780626543295050500,8.845050537109374,0.83966064453125,-0.2240447998046875,0.6574249267578125
1780626543305045800,8.855045654296875,0.79364013671875,-0.2625579833984375,0.6283111572265625
1780626543315040800,8.865040771484376,0.72381591796875,-0.29803466796875,0.615997314453125
1780626543325035800,8.875035888671874,0.6802978515625,-0.2983856201171875,0.606964111328125
1780626543335030800,8.88503076171875,0.6153411865234375,-0.296630859375,0.6224365234375
1780626543345025800,8.89502587890625,0.61260986328125,-0.315887451171875,0.640045166015625
1780626543355020800,8.905020751953124,0.64788818359375,-0.33721923828125,0.650299072265625
1780626543365015800,8.915015869140625,0.655181884765625,-0.3519744873046875,0.6398468017578125
1780626543375010800,8.9250107421875,0.650146484375,-0.34765625,0.6201171875
1780626543385005800,8.935005859375,0.635772705078125,-0.322967529296875,0.6197357177734375
1780626543395000600,8.94500048828125,0.6181488037109375,-0.282745361328125,0.6029052734375
1780626543404995600,8.95499560546875,0.6424713134765625,-0.239959716796875,0.55303955078125
1780626543414990600,8.964990478515626,0.737640380859375,-0.184417724609375,0.5410308837890625
1780626543424985600,8.974985595703124,0.95037841796875,-0.1359100341796875,0.5763397216796875
1780626543434982000,8.98498193359375,1.2034912109375,-0.1081085205078125,0.6405181884765625
1780626543444977000,8.994976806640626,1.306976318359375,-0.124908447265625,0.69091796875
1780626543454972000,9.004971923828125,1.127838134765625,-0.211090087890625,0.6928253173828125
1780626543464966700,9.014966552734375,0.7813720703125,-0.331329345703125,0.69158935546875
1780626543474961700,9.024961669921876,0.503143310546875,-0.4132537841796875,0.71063232421875
1780626543484956700,9.034956787109374,0.354888916015625,-0.4416656494140625,0.7472991943359375
1780626543494951700,9.04495166015625,0.4151763916015625,-0.4259185791015625,0.8196563720703125
1780626543504946700,9.05494677734375,0.613800048828125,-0.3502960205078125,0.9134521484375
1780626543514941700,9.064941650390624,0.79351806640625,-0.25115966796875,0.818450927734375
1780626543524936700,9.074936767578125,0.8929443359375,-0.2132110595703125,0.5054779052734375
1780626543534931700,9.084931640625,0.9066619873046875,-0.1943817138671875,0.2738189697265625
1780626543544926700,9.0949267578125,0.9355926513671875,-0.1299591064453125,0.1818389892578125
1780626543554921700,9.104921630859375,0.9089813232421875,-0.1429901123046875,0.1516571044921875
1780626543564916700,9.114916748046875,0.8792724609375,-0.2491455078125,0.21435546875
1780626543574911700,9.124911865234376,0.874786376953125,-0.37652587890625,0.3633575439453125
1780626543584906800,9.13490673828125,0.9030303955078125,-0.435516357421875,0.5278472900390625
1780626543594902800,9.14490283203125,0.8938751220703125,-0.440521240234375,0.575042724609375
1780626543604897800,9.154897705078126,0.791229248046875,-0.4141082763671875,0.5428924560546875
1780626543614892800,9.164892822265625,0.7636566162109375,-0.3912353515625,0.5272674560546875
1780626543624887800,9.1748876953125,0.845367431640625,-0.326141357421875,0.50042724609375
1780626543634882800,9.1848828125,0.939544677734375,-0.231903076171875,0.4391326904296875
1780626543644877600,9.194877685546874,0.9754638671875,-0.157012939453125,0.3445587158203125
1780626543654872600,9.20487255859375,0.9572296142578125,-0.1137237548828125,0.297027587890625
1780626543664867600,9.21486767578125,0.8863067626953125,-0.1038818359375,0.31109619140625
1780626543674862600,9.224862548828124,0.869049072265625,-0.1263580322265625,0.34588623046875
1780626543684857600,9.234857666015625,0.9406585693359375,-0.16796875,0.3928070068359375
1780626543694852900,9.244852783203125,0.9128570556640625,-0.2024993896484375,0.4037628173828125
1780626543704848000,9.254847900390626,0.8875885009765625,-0.2012939453125,0.43206787109375
1780626543714843000,9.2648427734375,0.9062957763671875,-0.173583984375,0.4827880859375
1780626543724838000,9.274837890625,0.8267974853515625,-0.1532745361328125,0.4706878662109375
1780626543734832600,9.28483251953125,0.878936767578125,-0.1443634033203125,0.4571685791015625
1780626543744828700,9.29482861328125,0.9203643798828125,-0.125,0.4661712646484375
1780626543754823700,9.30482373046875,0.8792572021484375,-0.1366424560546875,0.43389892578125
1780626543764818700,9.314818603515626,0.9493865966796875,-0.185028076171875,0.4091644287109375
1780626543774813700,9.324813720703125,0.9363555908203125,-0.22674560546875,0.402862548828125
1780626543784808700,9.33480859375,0.9115142822265625,-0.2371978759765625,0.3821868896484375
1780626543794803700,9.3448037109375,0.9830474853515625,-0.2065887451171875,0.3878631591796875
1780626543804798700,9.354798828125,0.9760284423828125,-0.1785736083984375,0.445037841796875
1780626543814793700,9.364793701171875,0.857177734375,-0.18658447265625,0.4524383544921875
1780626543824788700,9.374788818359375,0.8694915771484375,-0.1853179931640625,0.4255523681640625
1780626543834783700,9.38478369140625,0.8834228515625,-0.177093505859375,0.3922882080078125
1780626543844778800,9.39477880859375,0.8594970703125,-0.1502685546875,0.3466949462890625
1780626543854773800,9.404773681640625,0.9456787109375,-0.1600494384765625,0.3530731201171875
1780626543864768800,9.414768798828124,0.9151763916015625,-0.2257537841796875,0.391510009765625
1780626543874763800,9.424763671875,0.8963165283203125,-0.2647857666015625,0.4145660400390625
1780626543884758800,9.4347587890625,0.97149658203125,-0.253662109375,0.4339447021484375
1780626543894754600,9.444754638671874,0.9457550048828125,-0.2291107177734375,0.3856658935546875
1780626543904749600,9.45474951171875,0.96478271484375,-0.20709228515625,0.3394012451171875
1780626543914744600,9.46474462890625,0.9735260009765625,-0.2136077880859375,0.3150177001953125
1780626543924739800,9.47473974609375,0.9458770751953125,-0.22479248046875,0.2742156982421875
1780626543934734800,9.48473486328125,0.98687744140625,-0.2314605712890625,0.238433837890625
1780626543944729900,9.494729736328125,1.003204345703125,-0.2555084228515625,0.2405242919921875
1780626543954724900,9.504724853515626,0.94671630859375,-0.27203369140625,0.254119873046875
1780626543964719900,9.514719970703124,1.0004119873046875,-0.26239013671875,0.311920166015625
1780626543974715000,9.52471484375,0.9991607666015625,-0.2511444091796875,0.361480712890625
1780626543984709600,9.534709716796876,1.026580810546875,-0.218963623046875,0.3637847900390625
1780626543994704600,9.54470458984375,1.09954833984375,-0.1810455322265625,0.410125732421875
1780626544004699600,9.55469970703125,0.9827728271484375,-0.215087890625,0.4721832275390625
1780626544014694700,9.564694580078125,0.856292724609375,-0.273529052734375,0.491058349609375
1780626544024689700,9.574689697265624,1.0047149658203125,-0.3002777099609375,0.452423095703125
1780626544034684700,9.5846845703125,0.989898681640625,-0.2922821044921875,0.334136962890625
1780626544044681000,9.594680908203125,0.916839599609375,-0.246978759765625,0.20147705078125
1780626544054675700,9.60467578125,0.951507568359375,-0.2291107177734375,0.1268157958984375
1780626544064670700,9.614670654296875,0.9285430908203125,-0.2283782958984375,0.106597900390625
1780626544074665700,9.624665771484375,0.9429931640625,-0.188232421875,0.0949554443359375
1780626544084660700,9.63466064453125,1.003387451171875,-0.1652984619140625,0.1485443115234375
1780626544094655700,9.64465576171875,0.9416046142578125,-0.1955718994140625,0.246795654296875
1780626544104650800,9.654650634765625,0.9211578369140625,-0.2260284423828125,0.3655242919921875
1780626544114645800,9.664645751953126,0.941802978515625,-0.2404937744140625,0.441741943359375
1780626544124640800,9.674640869140624,1.0416717529296875,-0.24267578125,0.3560028076171875
1780626544134635800,9.6846357421875,1.1121063232421875,-0.2099609375,0.20245361328125
1780626544144630800,9.694630859375,1.0985260009765625,-0.182464599609375,0.1115264892578125
1780626544154625500,9.70462548828125,1.048126220703125,-0.2075347900390625,0.109375
1780626544164620500,9.71462060546875,1.0372772216796875,-0.1999359130859375,0.162017822265625
1780626544174615600,9.724615478515625,1.0328369140625,-0.1705780029296875,0.229400634765625
1780626544184610600,9.734610595703124,0.8590240478515625,-0.1336669921875,0.29425048828125
1780626544194606800,9.74460693359375,0.976287841796875,-0.1008758544921875,0.3116302490234375
1780626544204601900,9.754601806640625,1.09722900390625,-0.1186370849609375,0.2527008056640625
1780626544214596900,9.764596923828124,1.026824951171875,-0.1167755126953125,0.13018798828125
1780626544224591600,9.774591552734375,1.3188323974609375,-0.069549560546875,0.0216217041015625
1780626544234586600,9.784586669921875,1.38201904296875,-0.04779052734375,-0.0618896484375
1780626544244581600,9.79458154296875,1.2384490966796875,-0.0355072021484375,-0.0846405029296875
1780626544254576600,9.80457666015625,1.3844757080078125,-0.045928955078125,-0.003021240234375
1780626544264571600,9.814571533203125,1.2668914794921875,-0.0561065673828125,0.09423828125
1780626544274566700,9.824566650390626,1.0992431640625,-0.04132080078125,0.1681365966796875
1780626544284561700,9.834561767578125,1.1211700439453125,-0.0202484130859375,0.2436065673828125
1780626544294556700,9.844556640625,0.9189605712890625,-0.00958251953125,0.2703094482421875
1780626544304552000,9.854552001953126,1.013031005859375,-0.02801513671875,0.242340087890625
1780626544314547000,9.864546875,0.929901123046875,-0.052978515625,0.185577392578125
1780626544324541700,9.874541748046875,0.680694580078125,-0.06512451171875,0.146759033203125
1780626544334537700,9.884537841796876,0.6970062255859375,-0.07867431640625,0.153167724609375
1780626544344532700,9.89453271484375,0.7259368896484375,-0.10528564453125,0.153350830078125
1780626544354527700,9.90452783203125,1.076171875,-0.13092041015625,0.105804443359375
1780626544364522800,9.914522705078125,1.3642578125,-0.0978240966796875,0.0198211669921875
1780626544374517800,9.924517822265624,1.1998138427734375,-0.02197265625,-0.0499725341796875
1780626544384512800,9.9345126953125,1.1902923583984375,0.0101470947265625,-0.060302734375
1780626544394507500,9.944507568359375,1.1742095947265625,0.0166168212890625,0.01824951171875
1780626544404502500,9.95450244140625,1.187774658203125,-0.02081298828125,0.127716064453125
1780626544414497500,9.96449755859375,1.1662139892578125,-0.0688018798828125,0.2457275390625
1780626544424492800,9.974492919921875,0.8806304931640625,-0.1740264892578125,0.30401611328125
1780626544434487800,9.98448779296875,0.910675048828125,-0.319061279296875,0.2777252197265625
1780626544444482800,9.99448291015625,0.945892333984375,-0.3860626220703125,0.194366455078125
1780626544454477800,10.004477783203125,0.5759124755859375,-0.37188720703125,0.1467742919921875
1780626544464472800,10.014472900390626,0.518585205078125,-0.2920989990234375,0.1750640869140625
1780626544474467800,10.0244677734375,0.798370361328125,-0.2053680419921875,0.221954345703125
1780626544484463600,10.034463623046875,0.882965087890625,-0.154632568359375,0.2469940185546875
1780626544494458600,10.044458740234376,0.906585693359375,-0.1482696533203125,0.215087890625
1780626544504453600,10.05445361328125,1.2255859375,-0.1435699462890625,0.1436004638671875
1780626544514448600,10.06444873046875,1.0538787841796875,-0.1450347900390625,0.0194091796875
1780626544524443100,10.074443115234375,1.0059356689453125,-0.1402587890625,-0.1346588134765625
1780626544534438400,10.0844384765625,1.03607177734375,-0.152313232421875,-0.2571868896484375
1780626544544433400,10.094433349609375,0.86602783203125,-0.225250244140625,-0.265350341796875
1780626544554428400,10.104428466796875,0.7751922607421875,-0.306640625,-0.1534423828125
1780626544564423400,10.11442333984375,0.429931640625,-0.3809967041015625,0.0220184326171875
1780626544574418400,10.12441845703125,0.9286651611328125,-0.38873291015625,0.169952392578125
1780626544584413200,10.1344130859375,1.0968170166015625,-0.2906341552734375,0.1994171142578125
1780626544594408200,10.144408203125,1.085052490234375,-0.1478118896484375,0.059783935546875
1780626544604403200,10.1544033203125,1.24591064453125,0.02783203125,-0.083709716796875
1780626544614398200,10.164398193359375,1.139068603515625,0.16888427734375,-0.1583099365234375
1780626544624394200,10.174394287109376,1.1656951904296875,0.2759246826171875,-0.1881561279296875
1780626544634389200,10.18438916015625,1.0188446044921875,0.3229827880859375,-0.1545562744140625
1780626544644384500,10.194384521484375,1.1392059326171875,0.2705841064453125,-0.05908203125
1780626544654379300,10.204379150390626,0.5849151611328125,0.150482177734375,0.0181121826171875
1780626544664374300,10.214374267578124,0.8768768310546875,0.0115966796875,-0.0106201171875
1780626544674369300,10.224369384765625,1.3320465087890625,-0.072235107421875,-0.0373077392578125
1780626544684364300,10.2343642578125,0.808837890625,-0.089508056640625,-0.0531005859375
1780626544694359300,10.244359375,0.922821044921875,-0.0902099609375,-0.0538177490234375
1780626544704354300,10.254354248046875,1.074066162109375,-0.1013946533203125,0.001251220703125
1780626544714349300,10.264349365234375,1.1197357177734375,-0.107025146484375,-0.0250244140625
1780626544724344300,10.27434423828125,0.9445037841796875,-0.065582275390625,-0.1469879150390625
1780626544734339300,10.28433935546875,0.872802734375,-0.021697998046875,-0.228118896484375
1780626544744334300,10.294334228515625,1.015228271484375,-0.0031585693359375,-0.2484130859375
1780626544754329000,10.3043291015625,0.94708251953125,-0.01141357421875,-0.2381591796875
1780626544764324000,10.314323974609374,0.5308837890625,-0.0389556884765625,-0.2113800048828125
1780626544774320400,10.3243203125,1.2707061767578125,-0.0781707763671875,-0.230438232421875
1780626544784315400,10.3343154296875,1.085906982421875,-0.1114959716796875,-0.2277069091796875
1780626544794310400,10.344310302734375,0.3348236083984375,-0.1266021728515625,-0.144134521484375
1780626544804305400,10.354305419921875,0.76837158203125,-0.1232147216796875,0.000701904296875
1780626544814300400,10.364300537109376,1.2872467041015625,-0.0628662109375,0.164215087890625
1780626544824295200,10.374295166015624,1.284698486328125,0.0380096435546875,0.2239990234375
1780626544834290200,10.384290283203125,1.1302490234375,0.119598388671875,0.17059326171875
1780626544844285200,10.39428515625,1.4156036376953125,0.1673583984375,0.097198486328125
1780626544854280200,10.4042802734375,1.254150390625,0.1644287109375,0.0144805908203125
1780626544864275200,10.414275146484375,1.2613525390625,0.11395263671875,-0.0199737548828125
1780626544874270200,10.424270263671875,0.9458160400390625,0.0361480712890625,0.015350341796875
1780626544884265200,10.43426513671875,0.7841033935546875,-0.0459136962890625,0.1040496826171875
1780626544894260200,10.44426025390625,0.879180908203125,-0.0873870849609375,0.15545654296875
1780626544904256300,10.45425634765625,0.9116973876953125,-0.055999755859375,0.1028289794921875
1780626544914251300,10.464251220703124,1.0600738525390625,0.0122528076171875,0.047760009765625
1780626544924246300,10.474246337890625,1.1233062744140625,0.0811767578125,0.026580810546875
1780626544934241300,10.4842412109375,1.430419921875,0.1422882080078125,0.0570068359375
1780626544944236300,10.494236328125,1.3913726806640625,0.173431396484375,0.065093994140625
1780626544954231300,10.504231201171875,0.9694061279296875,0.13189697265625,0.0251312255859375
1780626544964226300,10.514226318359375,1.022705078125,0.0891571044921875,0.05987548828125
1780626544974221300,10.52422119140625,1.23822021484375,0.0828704833984375,0.171142578125
1780626544984216300,10.53421630859375,1.1334686279296875,0.107513427734375,0.1469268798828125
1780626544994211000,10.544211181640625,1.2702789306640625,0.160247802734375,0.083770751953125
1780626545004206000,10.5542060546875,1.168914794921875,0.1821746826171875,0.031402587890625
1780626545014201000,10.564201171875,1.14129638671875,0.177581787109375,-0.01708984375
1780626545024196000,10.574196044921875,1.064178466796875,0.1580810546875,-0.00994873046875
1780626545034191400,10.58419140625,0.9241485595703125,0.1184844970703125,0.02679443359375
1780626545044187400,10.5941875,1.31597900390625,0.1101837158203125,0.11236572265625
1780626545054182400,10.604182373046875,1.3163909912109375,0.1174468994140625,0.1025390625
1780626545064177200,10.61417724609375,1.0015716552734375,0.1287689208984375,0.0015411376953125
1780626545074172200,10.624172119140624,1.1002197265625,0.1669921875,-0.031402587890625
1780626545084167200,10.634167236328125,1.1927947998046875,0.2129669189453125,-0.0293426513671875
1780626545094162200,10.644162109375,1.2441558837890625,0.2558135986328125,-0.0768890380859375
1780626545104157200,10.6541572265625,1.14520263671875,0.2843170166015625,-0.125335693359375
1780626545114152200,10.664152099609375,1.036468505859375,0.221771240234375,-0.141693115234375
1780626545124147200,10.674147216796875,0.74908447265625,0.036468505859375,-0.169830322265625
1780626545134142200,10.68414208984375,0.44500732421875,-0.1561737060546875,-0.1538238525390625
1780626545144137500,10.694137451171875,0.5959625244140625,-0.271820068359375,-0.1036834716796875
1780626545154132500,10.704132568359375,0.5453338623046875,-0.3162078857421875,-0.12628173828125
1780626545164127200,10.714127197265626,0.42132568359375,-0.2886505126953125,-0.188232421875
1780626545174122200,10.724122314453124,0.6893768310546875,-0.1942901611328125,-0.195526123046875
1780626545184118300,10.7341181640625,1.1580047607421875,-0.10205078125,-0.1668243408203125
1780626545194113300,10.74411328125,1.31744384765625,-0.0128936767578125,-0.1497344970703125
1780626545204108300,10.7541083984375,0.715118408203125,0.0394439697265625,-0.11761474609375
1780626545214103300,10.764103271484375,0.4237060546875,-0.0057525634765625,-0.031707763671875
1780626545224098300,10.774098388671876,0.8836517333984375,-0.0745849609375,0.0364227294921875
1780626545234093300,10.78409326171875,0.8663482666015625,-0.095672607421875,0.008544921875
1780626545244088000,10.794088134765625,0.5616302490234375,-0.0619659423828125,-0.078887939453125
1780626545254083000,10.8040830078125,0.7812042236328125,-0.0419464111328125,-0.1314239501953125
1780626545264078300,10.814078369140624,0.8823699951171875,-0.0154876708984375,-0.1108245849609375
1780626545274073300,10.8240732421875,0.9100189208984375,0.0163421630859375,-0.0950927734375
1780626545284068400,10.834068359375,0.95916748046875,-0.01470947265625,-0.12103271484375
1780626545294063400,10.8440634765625,0.787261962890625,-0.0428314208984375,-0.1976165771484375
1780626545304058400,10.854058349609375,0.7006072998046875,-0.03466796875,-0.254913330078125
1780626545314054100,10.86405419921875,0.66229248046875,0.000091552734375,-0.2135162353515625
1780626545324049200,10.874049072265626,0.5803070068359375,0.0537261962890625,-0.200836181640625
1780626545334044200,10.884044189453125,0.968994140625,0.125396728515625,-0.127349853515625
1780626545344039200,10.8940390625,1.2619171142578125,0.2039642333984375,-0.03973388671875
1780626545354034200,10.9040341796875,0.9781951904296875,0.17926025390625,-0.1514434814453125
1780626545364029200,10.914029296875,1.0626220703125,0.132965087890625,-0.2102813720703125
1780626545374024200,10.924024169921875,1.195037841796875,0.1268768310546875,-0.1489715576171875
1780626545384019500,10.93401953125,1.1123199462890625,0.1429901123046875,-0.0908203125
1780626545394014500,10.944014404296874,1.056243896484375,0.143798828125,-0.070220947265625
1780626545404009200,10.95400927734375,1.0431060791015625,0.1499176025390625,-0.0225067138671875
1780626545414004200,10.964004150390625,1.0516357421875,0.1793365478515625,0.032806396484375
1780626545423999200,10.973999267578124,1.22802734375,0.1670074462890625,0.0263671875
1780626545433994200,10.983994140625,1.0680999755859375,0.1034393310546875,-0.0599365234375
1780626545443989200,10.9939892578125,0.9560699462890625,0.033538818359375,-0.1026458740234375
1780626545453985300,11.0039853515625,0.7876129150390625,-0.0619964599609375,-0.0987396240234375
1780626545463980300,11.013980224609375,0.7388458251953125,-0.12890625,-0.111114501953125
1780626545473975300,11.023975341796875,0.8739013671875,-0.133392333984375,-0.0982818603515625
1780626545483970000,11.033969970703126,0.646484375,-0.0765838623046875,-0.0788116455078125
1780626545493965000,11.043965087890625,0.6888580322265625,0.0040130615234375,-0.0339202880859375
1780626545503960300,11.053960205078125,0.8987274169921875,0.068634033203125,0.01202392578125
1780626545513955300,11.063955322265626,0.7530975341796875,0.094573974609375,0.00634765625
1780626545523949800,11.07394970703125,1.037689208984375,0.0891571044921875,-0.015960693359375
1780626545533944800,11.08394482421875,1.3544158935546875,0.0726318359375,0.0102996826171875
1780626545543939800,11.09393994140625,1.3456268310546875,0.029144287109375,0.016082763671875
1780626545553934800,11.103934814453124,1.455078125,-0.0217132568359375,-0.0051116943359375
1780626545563929900,11.113929931640625,1.505218505859375,-0.08160400390625,-0.007171630859375
1780626545573924900,11.1239248046875,1.4341278076171875,-0.1488800048828125,0.0272216796875
1780626545583920600,11.133920654296874,1.38079833984375,-0.1863861083984375,0.12384033203125
1780626545593915600,11.14391552734375,1.3835296630859375,-0.1497802734375,0.3218841552734375
1780626545603910700,11.15391064453125,1.4964752197265625,-0.058929443359375,0.5459136962890625
1780626545613905700,11.16390576171875,1.466217041015625,0.011810302734375,0.666290283203125
1780626545623900700,11.173900634765625,1.0958099365234375,0.0824737548828125,0.70458984375
1780626545633896000,11.18389599609375,1.127288818359375,0.151611328125,0.6861419677734375
1780626545643891000,11.193890869140626,1.3214111328125,0.1060943603515625,0.498779296875
1780626545653886000,11.203885986328125,1.2305908203125,0.0553436279296875,0.2178955078125
1780626545663880700,11.213880615234375,0.96331787109375,0.0746002197265625,-0.0155792236328125
1780626545673875700,11.223875732421876,0.9193878173828125,0.1054534912109375,-0.1546478271484375
1780626545683870700,11.23387060546875,0.91046142578125,0.064056396484375,-0.26812744140625
1780626545693865700,11.24386572265625,0.6964874267578125,-0.0240478515625,-0.40777587890625
1780626545703860700,11.25386083984375,0.589019775390625,-0.0518798828125,-0.437835693359375
1780626545713856800,11.263856689453124,0.8370208740234375,-0.038055419921875,-0.3265838623046875
1780626545723851800,11.273851806640625,1.2282562255859375,-0.1336822509765625,-0.26519775390625
1780626545733846800,11.2838466796875,1.2612152099609375,-0.22393798828125,-0.2891387939453125
1780626545743841500,11.293841552734374,0.9033203125,-0.253509521484375,-0.365570068359375
1780626545753836800,11.3038369140625,0.574310302734375,-0.3799285888671875,-0.50164794921875
1780626545763831800,11.313831787109375,0.5770416259765625,-0.3346405029296875,-0.3729095458984375
1780626545773826800,11.323826904296874,0.905303955078125,-0.1182708740234375,-0.0201873779296875
1780626545783821800,11.33382177734375,1.0991973876953125,-0.0349578857421875,0.2285919189453125
1780626545793816800,11.34381689453125,1.324554443359375,-0.038116455078125,0.3087310791015625
1780626545803811800,11.353811767578126,1.3520965576171875,-0.116302490234375,0.16046142578125
1780626545813806800,11.363806884765625,0.9033660888671875,-0.2670135498046875,-0.0428009033203125
1780626545823801900,11.3738017578125,0.442779541015625,-0.4263458251953125,-0.0760650634765625
1780626545833796900,11.383796875,0.4691314697265625,-0.539154052734375,-0.052703857421875
1780626545843792600,11.393792724609375,0.99957275390625,-0.49639892578125,0.003021240234375
1780626545853787600,11.40378759765625,1.295440673828125,-0.3034515380859375,0.012939453125
1780626545863783000,11.413782958984376,0.93963623046875,-0.17578125,-0.098724365234375
1780626545873778000,11.42377783203125,0.64398193359375,-0.211639404296875,-0.22686767578125
1780626545883773000,11.43377294921875,0.5637359619140625,-0.3056182861328125,-0.2630615234375
1780626545893768000,11.443767822265626,0.6053009033203125,-0.4281005859375,-0.2648773193359375
1780626545903763000,11.453762939453124,0.6316375732421875,-0.5568084716796875,-0.235504150390625
1780626545913757700,11.4637578125,0.51806640625,-0.683135986328125,-0.1636810302734375
1780626545923752700,11.473752685546875,0.3669891357421875,-0.7560577392578125,-0.1060791015625
1780626545933747700,11.483747802734374,0.4235382080078125,-0.6791839599609375,-0.0562744140625
1780626545943742700,11.49374267578125,0.6895751953125,-0.5105133056640625,0.0140228271484375
1780626545953737700,11.50373779296875,0.94610595703125,-0.356475830078125,0.0496826171875
1780626545963732700,11.513732666015626,1.1820068359375,-0.260772705078125,-0.005523681640625
1780626545973728800,11.523728759765625,1.345794677734375,-0.2591705322265625,-0.094024658203125
1780626545983723800,11.533723876953125,1.1142730712890625,-0.3593597412109375,-0.153106689453125
1780626545993718800,11.54371875,0.8973846435546875,-0.5296630859375,-0.1406402587890625
1780626546003713800,11.5537138671875,0.769927978515625,-0.706939697265625,-0.111083984375
1780626546013708800,11.563708740234375,0.591766357421875,-0.8082427978515625,-0.079071044921875
1780626546023703800,11.573703857421876,0.588470458984375,-0.76220703125,0.009368896484375
1780626546033698800,11.58369873046875,0.77520751953125,-0.631256103515625,0.0853271484375
1780626546043693800,11.59369384765625,0.910980224609375,-0.570465087890625,-0.024658203125
1780626546053688800,11.603688720703126,0.970611572265625,-0.5167999267578125,-0.2811279296875
1780626546063683800,11.613683837890624,0.9110870361328125,-0.423736572265625,-0.42987060546875
1780626546073678800,11.623678955078125,0.7142333984375,-0.4247589111328125,-0.4089508056640625
1780626546083673600,11.633673583984375,0.699005126953125,-0.5140228271484375,-0.223236083984375
1780626546093668600,11.643668701171874,0.7634124755859375,-0.5521697998046875,0.0204620361328125
1780626546103665000,11.653664794921875,0.8232421875,-0.5047149658203125,0.176971435546875
1780626546113660000,11.663659912109376,0.9853515625,-0.490753173828125,0.153533935546875
1780626546123655000,11.673655029296874,0.96575927734375,-0.5655670166015625,-0.0151519775390625
1780626546133650000,11.68364990234375,0.776947021484375,-0.638092041015625,-0.14373779296875
1780626546143645000,11.69364501953125,0.6399383544921875,-0.679901123046875,-0.173736572265625
1780626546153639700,11.7036396484375,0.668609619140625,-0.7751007080078125,-0.1585845947265625
1780626546163634700,11.713634765625,0.6813201904296875,-0.867889404296875,-0.0728912353515625
1780626546173629700,11.723629638671875,0.5870361328125,-0.8302764892578125,0.0674896240234375
1780626546183624700,11.733624755859376,0.60345458984375,-0.67803955078125,0.2177734375
1780626546193619700,11.74361962890625,0.802825927734375,-0.536041259765625,0.2979888916015625
1780626546203614700,11.75361474609375,0.975738525390625,-0.4480133056640625,0.2315673828125
1780626546213609700,11.763609619140626,1.0316619873046875,-0.358734130859375,0.0236663818359375
1780626546223605800,11.773605712890625,1.0445098876953125,-0.3347015380859375,-0.2455902099609375
1780626546233600800,11.783600830078125,1.005706787109375,-0.380645751953125,-0.4639129638671875
1780626546243595800,11.793595703125,0.8701629638671875,-0.4152679443359375,-0.57220458984375
1780626546253590800,11.8035908203125,0.64349365234375,-0.4748382568359375,-0.574737548828125
1780626546263585800,11.813585693359375,0.358367919921875,-0.5511322021484375,-0.463470458984375
1780626546273580800,11.823580810546876,0.183746337890625,-0.6728668212890625,-0.3244171142578125
1780626546283575800,11.833575927734374,0.10797119140625,-0.738006591796875,-0.1628875732421875
1780626546293570800,11.84357080078125,0.166473388671875,-0.6793060302734375,0.020538330078125
1780626546303565800,11.85356591796875,0.411865234375,-0.6207427978515625,0.1021728515625
1780626546313560800,11.863560791015624,0.6725921630859375,-0.556640625,0.036407470703125
1780626546323555600,11.8735556640625,0.7852020263671875,-0.4930877685546875,-0.1762237548828125
1780626546333550600,11.883550537109375,0.7625885009765625,-0.4370574951171875,-0.47003173828125
1780626546343545600,11.893545654296876,0.803009033203125,-0.401153564453125,-0.6832122802734375
1780626546353542000,11.9035419921875,1.1099090576171875,-0.425567626953125,-0.7777557373046875
1780626546363537000,11.913536865234375,1.5688018798828125,-0.5328216552734375,-0.700714111328125
1780626546373532000,11.923531982421874,1.6830902099609375,-0.6612701416015625,-0.3309478759765625
1780626546383527000,11.93352685546875,1.462432861328125,-0.76434326171875,0.0426177978515625
1780626546393521700,11.943521728515625,1.0815277099609375,-0.8366851806640625,0.199005126953125
1780626546403516700,11.9535166015625,0.8268890380859375,-0.8310546875,0.247894287109375
1780626546413511700,11.96351171875,0.78765869140625,-0.747528076171875,0.2334136962890625
1780626546423506700,11.973506591796875,0.834259033203125,-0.6313629150390625,-0.0091094970703125
1780626546433501700,11.983501708984376,0.8453369140625,-0.476531982421875,-0.3528900146484375
1780626546443496700,11.99349658203125,0.774139404296875,-0.3932647705078125,-0.56597900390625
1780626546453491700,12.00349169921875,0.73809814453125,-0.3357696533203125,-0.6148834228515625
1780626546463486700,12.01348681640625,0.8458404541015625,-0.2899627685546875,-0.50482177734375
1780626546473482800,12.023482666015624,1.012420654296875,-0.3185577392578125,-0.3007659912109375
1780626546483477800,12.033477783203125,1.08990478515625,-0.458221435546875,-0.1576690673828125
1780626546493472800,12.04347265625,1.0147705078125,-0.58203125,-0.0911712646484375
1780626546503467800,12.0534677734375,0.995697021484375,-0.5933380126953125,-0.0238189697265625
1780626546513462800,12.063462890625,0.973419189453125,-0.5477752685546875,0.01971435546875
1780626546523458000,12.0734580078125,0.83770751953125,-0.4854583740234375,0.0258331298828125
1780626546533453000,12.083453125,0.6667633056640625,-0.41851806640625,-0.0005645751953125
1780626546543448000,12.093447998046875,0.616973876953125,-0.38275146484375,-0.0500335693359375
1780626546553443000,12.103443115234375,0.6679534912109375,-0.4174957275390625,-0.0914459228515625
1780626546563437800,12.113437744140626,0.73443603515625,-0.4947662353515625,-0.1066131591796875
1780626546573432800,12.123432861328125,0.7758331298828125,-0.5792999267578125,-0.0841217041015625
1780626546583427800,12.133427734375,0.7501068115234375,-0.62164306640625,-0.033905029296875
1780626546593424100,12.143424072265624,0.7259521484375,-0.580322265625,0.026611328125
1780626546603419100,12.153419189453125,0.7140960693359375,-0.5208740234375,0.04547119140625
1780626546613414100,12.1634140625,0.634033203125,-0.477264404296875,0.021026611328125
1780626546623409200,12.1734091796875,0.5619354248046875,-0.467132568359375,-0.0330810546875
1780626546633404000,12.18340380859375,0.5479278564453125,-0.514923095703125,-0.098907470703125
1780626546643399000,12.19339892578125,0.5433502197265625,-0.593780517578125,-0.134246826171875
1780626546653394000,12.203393798828126,0.5029449462890625,-0.6779022216796875,-0.1411285400390625
1780626546663389000,12.213388916015624,0.505157470703125,-0.8033905029296875,-0.1249542236328125
1780626546673384000,12.223384033203125,0.51629638671875,-0.900146484375,-0.1090850830078125
1780626546683379000,12.23337890625,0.489288330078125,-0.9468231201171875,-0.164886474609375
1780626546693374000,12.2433740234375,0.49468994140625,-0.92547607421875,-0.2803802490234375
1780626546703369000,12.253368896484375,0.4496612548828125,-0.8722686767578125,-0.3943634033203125
1780626546713364200,12.2633642578125,0.363983154296875,-0.876678466796875,-0.4537200927734375
1780626546723360000,12.273360107421874,0.2794036865234375,-0.8742828369140625,-0.401702880859375
1780626546733355000,12.28335498046875,0.310333251953125,-0.8346099853515625,-0.2783966064453125
1780626546743350000,12.29335009765625,0.5132598876953125,-0.7751007080078125,-0.1780548095703125
1780626546753345000,12.303344970703124,0.5580902099609375,-0.773834228515625,-0.2064361572265625
1780626546763340000,12.313340087890625,0.4545440673828125,-0.8272552490234375,-0.3723297119140625
1780626546773335000,12.3233349609375,0.4320068359375,-0.8994293212890625,-0.56103515625
1780626546783330000,12.333330078125,0.527069091796875,-0.8909454345703125,-0.629364013671875
1780626546793325000,12.343324951171875,0.68365478515625,-0.7843017578125,-0.5774993896484375
1780626546803319800,12.35331982421875,0.7033843994140625,-0.7325897216796875,-0.5318450927734375
1780626546813314800,12.363314697265626,0.436920166015625,-0.73919677734375,-0.547119140625
1780626546823309800,12.373309814453124,0.2645263671875,-0.76318359375,-0.6032867431640625
1780626546833305000,12.38330517578125,0.4151458740234375,-0.745819091796875,-0.631591796875
1780626546843301000,12.393301025390626,0.6759796142578125,-0.754913330078125,-0.700653076171875
1780626546853296000,12.403296142578125,0.7293548583984375,-0.8023681640625,-0.7613067626953125
1780626546863291100,12.413291015625,0.5340728759765625,-0.8970489501953125,-0.7639007568359375
1780626546873286000,12.423285888671876,0.5180816650390625,-1.0267181396484375,-0.7574005126953125
1780626546883281000,12.433281005859374,0.6924896240234375,-1.1143035888671875,-0.747344970703125
1780626546893276000,12.44327587890625,0.7026824951171875,-1.0920562744140625,-0.7204132080078125
1780626546903271000,12.45327099609375,0.6160888671875,-0.9108734130859375,-0.5871429443359375
1780626546913266000,12.463265869140624,0.6804962158203125,-0.70947265625,-0.38653564453125
1780626546923261000,12.473260986328125,0.814849853515625,-0.603485107421875,-0.2837066650390625
1780626546933256000,12.483255859375,0.946746826171875,-0.531494140625,-0.3021392822265625
1780626546943251200,12.493251220703126,0.844573974609375,-0.4445343017578125,-0.4123077392578125
1780626546953246200,12.50324609375,0.7454071044921875,-0.395355224609375,-0.517547607421875
1780626546963242000,12.513241943359375,0.8123016357421875,-0.4977264404296875,-0.5751800537109375
1780626546973237000,12.523237060546874,0.6958465576171875,-0.71923828125,-0.5836029052734375
1780626546983232000,12.53323193359375,0.6937408447265625,-0.8055419921875,-0.4599761962890625
1780626546993227000,12.54322705078125,0.6537322998046875,-0.7724456787109375,-0.32293701171875
1780626547003222000,12.553221923828126,0.5930328369140625,-0.7516021728515625,-0.33856201171875
1780626547013217000,12.563217041015625,0.5787506103515625,-0.7208099365234375,-0.41009521484375
1780626547023212000,12.5732119140625,0.39434814453125,-0.683929443359375,-0.4916229248046875
1780626547033207000,12.58320703125,0.3866424560546875,-0.677276611328125,-0.56951904296875
1780626547043202000,12.5932021484375,0.6499786376953125,-0.71722412109375,-0.6542205810546875
1780626547053196800,12.60319677734375,0.7275238037109375,-0.7667083740234375,-0.7140045166015625
1780626547063192000,12.613192138671875,0.510009765625,-0.7425994873046875,-0.65826416015625
1780626547073187000,12.62318701171875,0.564422607421875,-0.69305419921875,-0.55450439453125
1780626547083183000,12.63318310546875,0.7158203125,-0.6577301025390625,-0.4632568359375
1780626547093178000,12.64317822265625,0.61944580078125,-0.648345947265625,-0.39447021484375
1780626547103173000,12.653173095703124,0.5770111083984375,-0.67401123046875,-0.368011474609375
1780626547113168100,12.663168212890625,0.5254058837890625,-0.685028076171875,-0.338531494140625
1780626547123163000,12.673162841796875,0.4580535888671875,-0.666748046875,-0.29766845703125
1780626547133158000,12.683157958984374,0.5440216064453125,-0.6658172607421875,-0.3145294189453125
1780626547143153000,12.69315283203125,0.6644744873046875,-0.691131591796875,-0.3491973876953125
1780626547153148000,12.70314794921875,0.540985107421875,-0.7267608642578125,-0.3785400390625
1780626547163143000,12.713142822265626,0.38360595703125,-0.765777587890625,-0.4107208251953125
1780626547173138000,12.723137939453125,0.5181732177734375,-0.81256103515625,-0.4420166015625
1780626547183133200,12.73313330078125,0.6784515380859375,-0.8028564453125,-0.417327880859375
1780626547193128200,12.743128173828126,0.67620849609375,-0.7566986083984375,-0.3530426025390625
1780626547203124000,12.7531240234375,0.614227294921875,-0.7513275146484375,-0.2974090576171875
1780626547213119000,12.763118896484375,0.554473876953125,-0.7608642578125,-0.2476043701171875
1780626547223114000,12.773114013671876,0.5279998779296875,-0.7570343017578125,-0.1965484619140625
1780626547233109000,12.78310888671875,0.5324249267578125,-0.7659454345703125,-0.1693572998046875
1780626547243104000,12.79310400390625,0.507415771484375,-0.8090972900390625,-0.1755828857421875
1780626547253099000,12.80309912109375,0.5022430419921875,-0.8623809814453125,-0.2062530517578125
1780626547263094000,12.813093994140624,0.4884033203125,-0.909088134765625,-0.2596893310546875
1780626547273089000,12.823089111328125,0.4389801025390625,-0.9248809814453125,-0.2843780517578125
1780626547283084000,12.833083984375,0.4675445556640625,-0.912384033203125,-0.28192138671875
1780626547293078800,12.843078857421874,0.5390625,-0.8899383544921875,-0.2744598388671875
1780626547303074000,12.853073974609375,0.5377655029296875,-0.8441925048828125,-0.2403411865234375
1780626547313070000,12.863070068359375,0.5196380615234375,-0.799896240234375,-0.2049713134765625
1780626547323065000,12.873065185546874,0.4887847900390625,-0.7799072265625,-0.1890411376953125
1780626547333060000,12.88306005859375,0.45416259765625,-0.781585693359375,-0.180633544921875
1780626547343055000,12.89305517578125,0.4542999267578125,-0.8085784912109375,-0.181854248046875
1780626547353050000,12.903050048828124,0.39453125,-0.8562774658203125,-0.2070159912109375
1780626547363044900,12.913044921875,0.40093994140625,-0.9058837890625,-0.2562713623046875
1780626547373039900,12.923039794921875,0.5109405517578125,-0.922027587890625,-0.2928314208984375
1780626547383035000,12.933034912109376,0.6170654296875,-0.882354736328125,-0.2757568359375
1780626547393030000,12.94302978515625,0.6483612060546875,-0.8211822509765625,-0.2311859130859375
1780626547403025000,12.95302490234375,0.5919342041015625,-0.763580322265625,-0.1856689453125
1780626547413020200,12.963020263671876,0.5330963134765625,-0.7281951904296875,-0.1658172607421875
1780626547423015200,12.97301513671875,0.528167724609375,-0.74212646484375,-0.1898193359375
1780626547433011000,12.983010986328125,0.539093017578125,-0.7869110107421875,-0.236541748046875
1780626547443006000,12.993005859375,0.5301055908203125,-0.834320068359375,-0.2771148681640625
1780626547453001000,13.0030009765625,0.5211944580078125,-0.87542724609375,-0.3052978515625
1780626547462996000,13.012995849609375,0.4844512939453125,-0.8853302001953125,-0.2890167236328125
1780626547472991000,13.022990966796876,0.449005126953125,-0.873291015625,-0.242828369140625
1780626547482986000,13.032986083984374,0.4619598388671875,-0.8474273681640625,-0.1908721923828125
