time,seconds_elapsed,z,y,x
1780626534499413200,0.049413330078125,-1.1423856019973755,-0.07384812831878662,0.07706096023321152
1780626534509408300,0.059408203125,-1.4672914743423462,-0.6191924214363098,0.22197820246219635
1780626534519403000,0.069403076171875,-1.2654728889465332,-1.1379263401031494,0.3071000277996063
1780626534529398000,0.07939794921875,-0.5480008125305176,-1.4965758323669434,0.2844271957874298
1780626534539393000,0.08939306640625,0.43036577105522156,-1.0788087844848633,0.03376302495598793
1780626534549388000,0.099387939453125,1.3408656120300293,-0.2071382701396942,-0.0771067664027214
1780626534559383000,0.109383056640625,1.6928812265396118,0.15494830906391144,-0.13611815869808197
1780626534569377800,0.119377685546875,1.5613961219787598,0.03351348638534546,-0.20760779082775116
1780626534579372800,0.129372802734375,1.2053309679031372,-0.1539221853017807,-0.28223034739494324
1780626534589367800,0.139367919921875,0.9069048762321472,-0.42609378695487976,-0.3638261556625366
1780626534599363000,0.149363037109375,0.6303057670593262,-0.5359060168266296,-0.4024696946144104
1780626534609358000,0.159358154296875,0.3872808814048767,-0.5402256846427917,-0.32274317741394043
1780626534619353000,0.16935302734375,0.2751633822917938,-0.712578296661377,-0.1320003718137741
1780626534629348000,0.17934814453125,0.3464444875717163,-0.867836594581604,0.26429715752601624
1780626534639343000,0.189343017578125,0.491719126701355,-0.8663318753242493,0.8283578753471375
1780626534649338000,0.199338134765625,0.635915219783783,-0.49405527114868164,1.5640329122543335
1780626534659334000,0.209333984375,0.6337963938713074,-0.6002820730209351,2.1615328788757324
1780626534669329000,0.219328857421875,0.39483413100242615,-1.1603856086730957,2.5467705726623535
1780626534679324000,0.229323974609375,-0.2053142786026001,-2.0951621532440186,2.3345108032226562
1780626534689319000,0.23931884765625,-0.8778015971183777,-2.7910871505737305,1.4190610647201538
1780626534699314000,0.24931396484375,-1.2953407764434814,-2.1347455978393555,1.0115269422531128
1780626534709309000,0.259308837890625,-1.3622020483016968,-0.8290010094642639,0.7413854002952576
1780626534719304200,0.26930419921875,-1.067028284072876,0.07529555261135101,0.43488460779190063
1780626534729299000,0.279298828125,-0.6923182606697083,0.5927855372428894,0.07532963901758194
1780626534739294000,0.2892939453125,-0.383556991815567,0.9277235865592957,-0.2900422215461731
1780626534749289000,0.2992890625,-0.11192253977060318,1.2296112775802612,-0.603410005569458
1780626534759284000,0.309283935546875,0.2364564836025238,1.352462887763977,-0.8063521981239319
1780626534769279000,0.319279052734375,0.4743023216724396,1.352097511291504,-0.9207189679145813
1780626534779274000,0.32927392578125,0.48712918162345886,1.273262858390808,-0.886370837688446
1780626534789269000,0.33926904296875,0.3414241671562195,0.850281834602356,-0.7112621665000916
1780626534799264000,0.349263916015625,0.18782369792461395,0.30961671471595764,-0.5082964897155762
1780626534809259000,0.359259033203125,0.1370483934879303,-0.04145316779613495,-0.3236425220966339
1780626534819254000,0.36925390625,0.1006869301199913,-0.08497481048107147,-0.14164821803569794
1780626534829249000,0.3792490234375,0.07657627016305923,-0.10717438906431198,0.021025389432907104
1780626534839243800,0.389243896484375,0.3803923428058624,-0.09099728614091873,0.12786155939102173
1780626534849238800,0.39923876953125,0.7546607255935669,-0.2068522423505783,0.07144728302955627
1780626534859233800,0.40923388671875,0.8926364779472351,-0.5278531908988953,-0.10235326737165451
1780626534869229000,0.41922900390625,0.8503299951553345,-0.9642821550369263,-0.22899989783763885
1780626534879224000,0.42922412109375,0.7615804672241211,-1.2075283527374268,-0.2530362606048584
1780626534889219000,0.439218994140625,0.7334020733833313,-1.340806245803833,-0.16672320663928986
1780626534899214000,0.449214111328125,0.6962608098983765,-1.2809597253799438,0.008984440006315708
1780626534909209000,0.459208984375,0.37689268589019775,-0.8443389534950256,0.25817084312438965
1780626534919204000,0.4692041015625,0.042630549520254135,-0.2818250358104706,0.6166791915893555
1780626534929199000,0.47919921875,-0.11517159640789032,0.09402024000883102,0.9677597284317017
1780626534939193900,0.48919384765625,-0.10030769556760788,0.26774781942367554,1.1546446084976196
1780626534949188900,0.49918896484375,-0.08139099925756454,0.27104082703590393,1.0882978439331055
1780626534959184000,0.509183837890625,-0.1223251149058342,0.21461349725723267,0.823164165019989
1780626534969180000,0.519179931640625,-0.22034408152103424,0.12201139330863953,0.49786412715911865
1780626534979175200,0.529175048828125,-0.3364794850349426,-0.131671741604805,0.28712257742881775
1780626534989170200,0.539170166015625,-0.44187140464782715,-0.5246078372001648,0.3066885769367218
1780626534999165200,0.549165283203125,-0.48058924078941345,-0.9840534329414368,0.5467051267623901
1780626535009160000,0.559159912109375,-0.31695106625556946,-1.4535259008407593,0.9259328842163086
1780626535019155000,0.569155029296875,0.11900255084037781,-1.8205348253250122,1.3032716512680054
1780626535029150000,0.57914990234375,0.7332428097724915,-2.145155668258667,1.5177799463272095
1780626535039145000,0.58914501953125,1.323167324066162,-2.4286270141601562,1.5050714015960693
1780626535049140000,0.599139892578125,1.7180204391479492,-2.573735237121582,1.2526791095733643
1780626535059135000,0.609135009765625,1.9009971618652344,-2.581134557723999,0.8710176944732666
1780626535069130000,0.6191298828125,1.9761382341384888,-2.5372235774993896,0.5336021184921265
1780626535079125000,0.629125,2.129641532897949,-2.4813432693481445,0.38356444239616394
1780626535089120000,0.6391201171875,2.4743869304656982,-2.6795289516448975,0.4749065935611725
1780626535099115000,0.649114990234375,2.866635799407959,-2.9635233879089355,0.6472458839416504
1780626535109109800,0.65910986328125,2.7838568687438965,-2.681311845779419,0.6674632430076599
1780626535119104800,0.669104736328125,2.311631441116333,-1.8262441158294678,0.32264062762260437
1780626535129100000,0.67910009765625,1.7079731225967407,-1.4847877025604248,-0.3501420319080353
1780626535139095000,0.689094970703125,1.8398634195327759,-2.725465774536133,-0.8889533281326294
1780626535149090000,0.699090087890625,2.4008095264434814,-3.4227490425109863,-1.1966544389724731
1780626535159085000,0.7090849609375,2.936978816986084,-3.266022205352783,-1.449831247329712
1780626535169080000,0.719080078125,3.515169858932495,-3.3024117946624756,-1.6233590841293335
1780626535179075000,0.729074951171875,3.9518942832946777,-3.5067532062530518,-1.7418782711029053
1780626535189070000,0.739070068359375,4.045546531677246,-3.569195032119751,-1.82070791721344
1780626535199065000,0.749065185546875,3.8455629348754883,-3.5248031616210938,-1.7692673206329346
1780626535209059800,0.759059814453125,3.4156758785247803,-3.232266902923584,-1.0346630811691284
1780626535219054800,0.769054931640625,2.9383676052093506,-2.6533548831939697,-0.08278729021549225
1780626535229049900,0.7790498046875,2.6089351177215576,-2.357480764389038,0.6289627552032471
1780626535239044900,0.789044921875,2.5098493099212646,-2.445918083190918,0.7836865186691284
1780626535249040000,0.799039794921875,2.7475874423980713,-2.6117992401123047,0.5626758933067322
1780626535259035000,0.809034912109375,3.219348430633545,-2.8002471923828125,0.2837614119052887
1780626535269030000,0.81902978515625,3.777251720428467,-3.0548393726348877,0.12596406042575836
1780626535279026000,0.82902587890625,4.1930365562438965,-3.4252240657806396,0.09229370951652527
1780626535289021000,0.83902099609375,4.318047046661377,-3.7445898056030273,0.14526478946208954
1780626535299016000,0.849015869140625,4.315929889678955,-3.8466522693634033,0.20922672748565674
1780626535309011000,0.859010986328125,4.364287853240967,-3.670747995376587,0.2300443798303604
1780626535319006000,0.869005859375,4.532907962799072,-3.405034303665161,0.24211622774600983
1780626535329001000,0.8790009765625,4.7300639152526855,-3.166376829147339,0.31224605441093445
1780626535338996000,0.888995849609375,4.860345840454102,-2.919489622116089,0.38558152318000793
1780626535348991000,0.898990966796875,4.9211883544921875,-2.7728307247161865,0.48564979434013367
1780626535358986000,0.908986083984375,4.914890766143799,-2.795292854309082,0.6059996485710144
1780626535368981000,0.91898095703125,4.784160137176514,-2.8687362670898438,0.6926937699317932
1780626535378975700,0.928975830078125,4.555631160736084,-2.823489189147949,0.7095787525177002
1780626535388971000,0.938970947265625,4.258439064025879,-2.4992852210998535,0.6784786581993103
1780626535398966000,0.948966064453125,3.975916862487793,-1.6038501262664795,0.5224658846855164
1780626535408961000,0.9589609375,3.7575759887695312,0.06788450479507446,0.025538383051753044
1780626535418956000,0.9689560546875,3.4224250316619873,1.7596980333328247,-0.807685911655426
1780626535428951000,0.978950927734375,2.749882936477661,2.6144227981567383,-1.2709728479385376
1780626535438946000,0.988946044921875,1.8706575632095337,2.7605226039886475,-1.1728014945983887
1780626535448941000,0.998941162109375,1.0155764818191528,2.5078718662261963,-0.8098158836364746
1780626535458936000,1.00893603515625,0.3474016487598419,2.0452136993408203,-0.43723779916763306
1780626535468931000,1.01893115234375,0.0033364081755280495,1.5898818969726562,-0.2598526179790497
1780626535478925800,1.02892578125,-0.05260595306754112,1.2785208225250244,-0.2259436547756195
1780626535488920800,1.0389208984375,-0.024757010862231255,1.0370421409606934,-0.17134885489940643
1780626535498915800,1.048915771484375,-0.016683904454112053,0.7988747954368591,-0.054364971816539764
1780626535508910800,1.058910888671875,0.0006391586503013968,0.46129703521728516,0.07508116960525513
1780626535518906600,1.06890673828125,0.1188691258430481,0.051301270723342896,0.17610739171504974
1780626535528901600,1.078901611328125,0.301601380109787,-0.3636687695980072,0.25079840421676636
1780626535538896600,1.088896728515625,0.5124627351760864,-0.7546322345733643,0.29899150133132935
1780626535548891600,1.0988916015625,0.717204749584198,-1.0094400644302368,0.3176299035549164
1780626535558886700,1.10888671875,0.8530810475349426,-1.1428567171096802,0.30736207962036133
1780626535568881400,1.11888134765625,0.9213136434555054,-1.2269787788391113,0.23554034531116486
1780626535578876400,1.12887646484375,0.9620956778526306,-1.250535488128662,0.07868389040231705
1780626535588871400,1.138871337890625,1.0071563720703125,-1.2175726890563965,-0.16905319690704346
1780626535598866400,1.148866455078125,1.0424994230270386,-1.1494929790496826,-0.447591632604599
1780626535608861400,1.158861328125,1.0326529741287231,-1.03267502784729,-0.5759069919586182
1780626535618856400,1.1688564453125,1.0538616180419922,-0.91326504945755,-0.5770111083984375
1780626535628852500,1.1788525390625,1.1037184000015259,-1.0068117380142212,-0.524207592010498
1780626535638847500,1.188847412109375,1.177397608757019,-1.3278883695602417,-0.45970234274864197
1780626535648842500,1.198842529296875,1.166051983833313,-1.7115556001663208,-0.4059981107711792
1780626535658837500,1.20883740234375,0.9980190992355347,-1.9288606643676758,-0.34395843744277954
1780626535668832500,1.21883251953125,0.7500766515731812,-1.8604179620742798,-0.3680430054664612
1780626535678827500,1.22882763671875,0.5564365983009338,-1.4928629398345947,-0.5502412915229797
1780626535688822500,1.238822509765625,0.4489639401435852,-1.0057052373886108,-0.7716996669769287
1780626535698817500,1.248817626953125,0.3529929518699646,-0.606563150882721,-0.8015004396438599
1780626535708812500,1.2588125,0.31966426968574524,-0.2585841417312622,-0.6213114857673645
1780626535718807600,1.2688076171875,0.3850070834159851,-0.18491792678833008,-0.36912664771080017
1780626535728802600,1.278802490234375,0.5498575568199158,-0.27304404973983765,-0.09206388145685196
1780626535738797300,1.28879736328125,0.6573107838630676,-0.3137941360473633,0.19544433057308197
1780626535748792300,1.298792236328125,0.579883337020874,-0.19855090975761414,0.5024974942207336
1780626535758787600,1.30878759765625,0.3781781792640686,0.19651412963867188,0.7847281098365784
1780626535768782600,1.318782470703125,0.11480221897363663,0.9466123580932617,0.8942292928695679
1780626535778777600,1.328777587890625,-0.17573001980781555,1.599772572517395,0.7980524301528931
1780626535788772600,1.338772705078125,-0.36525654792785645,1.8546197414398193,0.6534838080406189
1780626535798767600,1.348767578125,-0.3828648328781128,2.012024402618408,0.4179133474826813
1780626535808762600,1.3587626953125,-0.35874617099761963,2.031270742416382,0.14178723096847534
1780626535818757600,1.368757568359375,-0.3962216377258301,2.077960252761841,-0.04374455288052559
1780626535828752600,1.378752685546875,-0.490035742521286,2.2422587871551514,-0.09808208793401718
1780626535838747400,1.388747314453125,-0.5888661742210388,2.4251277446746826,-0.06502826511859894
1780626535848742400,1.398742431640625,-0.6997261047363281,2.7385170459747314,-0.02496740221977234
1780626535858737400,1.4087373046875,-0.8229807019233704,2.884746551513672,0.1007780060172081
1780626535868732400,1.418732421875,-0.8226683139801025,2.8145923614501953,0.2658420503139496
1780626535878727400,1.4287275390625,-0.8531476259231567,2.683979034423828,0.4757782518863678
1780626535888722400,1.438722412109375,-0.7672535181045532,2.165632724761963,0.7164885997772217
1780626535898717400,1.448717529296875,-0.630169153213501,1.8683515787124634,0.8877682089805603
1780626535908712700,1.458712646484375,-0.6583091616630554,1.8631269931793213,1.0385278463363647
1780626535918707700,1.468707763671875,-0.7727577090263367,1.6213852167129517,1.1441656351089478
1780626535928702700,1.47870263671875,-1.0005391836166382,1.2652275562286377,1.3343651294708252
1780626535938697500,1.488697509765625,-1.4257224798202515,1.2503043413162231,1.699367642402649
1780626535948692500,1.4986923828125,-1.9179681539535522,1.4546455144882202,2.0520195960998535
1780626535958688500,1.5086884765625,-2.2602851390838623,1.743363618850708,2.1662027835845947
1780626535968683500,1.51868359375,-2.4160399436950684,2.1369881629943848,2.0049362182617188
1780626535978678500,1.528678466796875,-2.292731523513794,2.408766984939575,1.62294602394104
1780626535988673500,1.538673583984375,-1.9526840448379517,2.3126323223114014,1.2630382776260376
1780626535998668500,1.54866845703125,-1.6377660036087036,1.866760015487671,1.1491678953170776
1780626536008663300,1.558663330078125,-1.4697799682617188,1.2261528968811035,1.3482482433319092
1780626536018658300,1.568658203125,-1.3230674266815186,0.23206359148025513,1.537468433380127
1780626536028653600,1.578653564453125,-0.6165692210197449,-1.2783076763153076,-0.1331990659236908
1780626536038648600,1.588648681640625,0.582870602607727,-1.7458735704421997,-2.9900479316711426
1780626536048643600,1.5986435546875,0.7917234301567078,-0.8887863159179688,-1.662245750427246
1780626536058638600,1.608638671875,0.13765187561511993,-1.8921349048614502,-0.13982447981834412
1780626536068633600,1.618633544921875,-0.6719387173652649,-2.875077962875366,0.5745977759361267
1780626536078628600,1.628628662109375,-0.8856469988822937,-2.858320474624634,0.9624890685081482
1780626536088623600,1.63862353515625,-0.722069263458252,-2.657320261001587,0.9118103981018066
1780626536098618600,1.64861865234375,-0.5201563835144043,-2.2257885932922363,0.6766836643218994
1780626536108613400,1.65861328125,-0.4328145384788513,-1.65104079246521,0.37034210562705994
1780626536118608400,1.6686083984375,-0.517191469669342,-1.2597532272338867,-0.02797890454530716
1780626536128603400,1.678603271484375,-0.687323808670044,-1.061900019645691,-0.46804362535476685
1780626536138598400,1.688598388671875,-0.8629336953163147,-0.7891092896461487,-0.8776791095733643
1780626536148593400,1.698593505859375,-0.9759747385978699,-0.5294063091278076,-1.1595935821533203
1780626536158588400,1.70858837890625,-0.9567003846168518,-0.29570966958999634,-1.3701457977294922
1780626536168583700,1.718583740234375,-0.8382264971733093,-0.1987714171409607,-1.5542255640029907
1780626536178578700,1.72857861328125,-0.7010976672172546,-0.28381332755088806,-1.7015010118484497
1780626536188573700,1.73857373046875,-0.6390798091888428,-0.48017752170562744,-1.760206699371338
1780626536198568700,1.748568603515625,-0.7445284724235535,-0.5909133553504944,-1.8216527700424194
1780626536208563500,1.7585634765625,-0.8992224335670471,-0.5772854089736938,-1.6797797679901123
1780626536218558500,1.768558349609375,-1.2158440351486206,-0.5673478245735168,-1.4609225988388062
1780626536228553500,1.778553466796875,-1.479542851448059,-0.7928635478019714,-1.256377100944519
1780626536238548500,1.788548583984375,-1.3228824138641357,-1.4582433700561523,-1.2695832252502441
1780626536248543500,1.79854345703125,-0.6787505149841309,-2.285294532775879,-1.371050477027893
1780626536258538500,1.80853857421875,-0.17813484370708466,-1.9309529066085815,-1.2773215770721436
1780626536268534500,1.818534423828125,-0.1439337432384491,-0.7708831429481506,-1.0977126359939575
1780626536278529300,1.828529296875,-0.4395371675491333,0.18397648632526398,-0.8544619083404541
1780626536288524500,1.838524658203125,-0.6787305474281311,-0.0271471980959177,-0.7280989289283752
1780626536298519600,1.84851953125,-0.8038360476493835,-0.4473026692867279,-0.47922173142433167
1780626536308514600,1.8585146484375,-0.9316933155059814,-0.41637617349624634,-0.10969720035791397
1780626536318509600,1.868509521484375,-0.9006549715995789,-0.4277076721191406,0.10352612286806107
1780626536328504600,1.878504638671875,-0.7917332649230957,-0.37630385160446167,0.1462932974100113
1780626536338499600,1.88849951171875,-0.6941524147987366,-0.31281808018684387,0.12901683151721954
1780626536348494600,1.89849462890625,-0.6003092527389526,-0.27591654658317566,0.13512372970581055
1780626536358489600,1.908489501953125,-0.4485700726509094,-0.2618611752986908,0.22500541806221008
1780626536368484600,1.918484619140625,-0.3141094744205475,-0.3418215215206146,0.3636932671070099
1780626536378479400,1.928479248046875,-0.2606502175331116,-0.5782721638679504,0.510015070438385
1780626536388474400,1.938474365234375,-0.2637365758419037,-0.9788240790367126,0.6902561783790588
1780626536398469400,1.948469482421875,-0.324867308139801,-1.3903261423110962,0.8926787972450256
1780626536408464400,1.95846435546875,-0.3836459219455719,-1.8199989795684814,1.072575330734253
1780626536418459400,1.96845947265625,-0.2981107831001282,-2.1597959995269775,1.1611907482147217
1780626536428454400,1.978454345703125,-0.18133597075939178,-2.357245922088623,1.2006816864013672
1780626536438449700,1.98844970703125,0.07136126607656479,-2.341223955154419,1.1461563110351562
1780626536448444700,1.998444580078125,0.30776235461235046,-2.2110700607299805,1.0026767253875732
1780626536458439700,2.008439697265625,0.6327697038650513,-2.031165599822998,0.6809372901916504
1780626536468434700,2.0184345703125,1.0106672048568726,-1.8516868352890015,0.4669911563396454
1780626536478429400,2.028429443359375,1.2913225889205933,-1.643027663230896,0.3470524847507477
1780626536488424400,2.038424560546875,1.411320686340332,-1.4503977298736572,0.31411612033843994
1780626536498419500,2.04841943359375,1.4663585424423218,-1.2634190320968628,0.3725546598434448
1780626536508414500,2.05841455078125,1.475357174873352,-1.2125436067581177,0.5366916656494141
1780626536518409500,2.068409423828125,1.4794459342956543,-1.353220820426941,0.8509220480918884
1780626536528404500,2.078404541015625,1.4856209754943848,-1.5007778406143188,1.1970943212509155
1780626536538399500,2.0883994140625,1.5151069164276123,-1.3715293407440186,1.297387957572937
1780626536548394500,2.09839453125,1.3686293363571167,-1.4712785482406616,1.4620243310928345
1780626536558389500,2.108389404296875,1.183438777923584,-1.2939947843551636,1.53141450881958
1780626536568384500,2.118384521484375,1.09878408908844,-1.0620290040969849,1.3223679065704346
1780626536578379500,2.128379638671875,1.1512765884399414,-1.0026558637619019,0.9799546003341675
1780626536588374500,2.13837451171875,1.213495135307312,-1.1013638973236084,0.6995913982391357
1780626536598369500,2.14836962890625,1.3143272399902344,-1.20862877368927,0.526077389717102
1780626536608365600,2.158365478515625,1.442508339881897,-1.4068635702133179,0.5270792841911316
1780626536618360600,2.168360595703125,1.5568991899490356,-1.4116345643997192,0.6740828156471252
1780626536628355600,2.17835546875,1.6472476720809937,-1.1162335872650146,0.8339704871177673
1780626536638350600,2.1883505859375,1.6990463733673096,-0.7688873410224915,0.9283124208450317
1780626536648345300,2.198345458984375,1.6467576026916504,-0.4538865387439728,0.9457659721374512
1780626536658340400,2.20834033203125,1.456700086593628,-0.2366522252559662,0.9629039764404297
1780626536668335400,2.21833544921875,1.1692813634872437,-0.2656487226486206,0.7383142709732056
1780626536678330400,2.228330322265625,0.8259756565093994,-0.31047505140304565,0.5725471377372742
1780626536688325400,2.238325439453125,0.4458611011505127,-0.4157450199127197,0.5752960443496704
1780626536698320600,2.248320556640625,0.11116726696491241,-0.6706641316413879,0.485515296459198
1780626536708315600,2.258315673828125,-0.4849744141101837,-0.6352901458740234,0.24828436970710754
1780626536718310700,2.268310546875,-1.0241053104400635,-0.45989835262298584,-0.1731499433517456
1780626536728305700,2.2783056640625,-1.2989957332611084,-0.23237492144107819,-0.7076431512832642
1780626536738300700,2.28830078125,-1.3256443738937378,-0.1650768369436264,-1.198844313621521
1780626536748295400,2.29829541015625,-1.3125602006912231,-0.4200153946876526,-1.4285142421722412
1780626536758290400,2.30829052734375,-1.2619391679763794,-0.6604618430137634,-1.2971540689468384
1780626536768285400,2.318285400390625,-1.2078484296798706,-0.9332033395767212,-0.873446524143219
1780626536778280400,2.328280517578125,-1.2278282642364502,-0.9166169166564941,-0.33707761764526367
1780626536788275500,2.338275390625,-1.2310757637023926,-0.6064771413803101,-0.01942962408065796
1780626536798270500,2.3482705078125,-1.1149091720581055,-0.15050721168518066,0.09981687366962433
1780626536808265500,2.358265380859375,-1.0553297996520996,0.2628324329853058,0.15230458974838257
1780626536818260500,2.368260498046875,-1.2260890007019043,0.614408016204834,0.028246285393834114
1780626536828255500,2.37825537109375,-1.505314826965332,0.9717102646827698,-0.28356727957725525
1780626536838250500,2.38825048828125,-1.6423836946487427,1.2060444355010986,-0.40368542075157166
1780626536848245500,2.39824560546875,-1.3635283708572388,1.2898107767105103,-0.3829905390739441
1780626536858240500,2.408240478515625,-0.8791376948356628,1.3344106674194336,-0.3994339406490326
1780626536868235500,2.418235595703125,-0.46024295687675476,1.1858004331588745,-0.3911017179489136
1780626536878230500,2.42823046875,-0.22369860112667084,0.8804810047149658,-0.17756547033786774
1780626536888225500,2.4382255859375,-0.13033537566661835,0.7185466885566711,0.12607431411743164
1780626536898220500,2.448220458984375,-0.09339199960231781,0.4704282283782959,0.3540180027484894
1780626536908215600,2.458215576171875,-0.03515106439590454,0.22323761880397797,0.583013653755188
1780626536918211600,2.468211669921875,0.14934395253658295,0.007935155183076859,0.7728022336959839
1780626536928206300,2.478206298828125,0.41005462408065796,-0.21335409581661224,0.8379897475242615
1780626536938201300,2.488201416015625,0.6235365271568298,-0.44198858737945557,0.7327349185943604
1780626536948196400,2.4981962890625,0.7805101871490479,-0.4538106322288513,0.44945424795150757
1780626536958191600,2.508191650390625,0.8684493899345398,-0.37563595175743103,0.2211313247680664
1780626536968186600,2.5181865234375,0.8966570496559143,-0.2579716145992279,0.13757170736789703
1780626536978181600,2.528181640625,0.8535814881324768,-0.22980736196041107,0.18957233428955078
1780626536988176600,2.5381767578125,0.7727135419845581,-0.2133474349975586,0.3630402386188507
1780626536998171600,2.548171630859375,0.8385287523269653,-0.1891496777534485,0.4715134799480438
1780626537008166700,2.558166748046875,0.913341760635376,-0.1734093427658081,0.5694922208786011
1780626537018161400,2.568161376953125,1.0166412591934204,-0.18330350518226624,0.6073905825614929
1780626537028156400,2.578156494140625,1.1626460552215576,-0.3218459486961365,0.5805305242538452
1780626537038151400,2.5881513671875,1.2990078926086426,-0.4879339933395386,0.5666799545288086
1780626537048146400,2.598146484375,1.2605167627334595,-0.5050610303878784,0.4297391176223755
1780626537058141400,2.608141357421875,0.8466436862945557,-0.49060672521591187,0.2696431875228882
1780626537068136400,2.618136474609375,0.21397913992404938,-0.048528388142585754,0.06166283041238785
1780626537078131500,2.62813134765625,-0.5578795075416565,0.37633660435676575,0.00038748994120396674
1780626537088126500,2.63812646484375,-1.5095678567886353,0.9821540713310242,0.02690858021378517
1780626537098121500,2.64812158203125,-2.087127923965454,1.1299701929092407,0.04001772403717041
1780626537108116700,2.65811669921875,-1.7986433506011963,1.3194125890731812,-0.30749285221099854
1780626537118111500,2.668111572265625,-0.9225283265113831,1.4066689014434814,-0.770416796207428
1780626537128106500,2.6781064453125,-0.30648136138916016,1.4090598821640015,-0.9461673498153687
1780626537138101500,2.6881015625,-0.23511184751987457,1.4167511463165283,-0.9873371124267578
1780626537148096500,2.698096435546875,-0.5765644907951355,1.564510464668274,-1.0536359548568726
1780626537158091500,2.708091552734375,-0.747776210308075,1.7409286499023438,-1.2781330347061157
1780626537168086500,2.71808642578125,-0.3686259686946869,1.556888461112976,-1.6244933605194092
1780626537178081500,2.72808154296875,0.1159266009926796,0.8830698728561401,-1.6733144521713257
1780626537188076500,2.73807666015625,0.45911991596221924,0.0530693419277668,-1.3882249593734741
1780626537198071600,2.748071533203125,0.7147932052612305,-0.7589932084083557,-0.8422547578811646
1780626537208066600,2.758066650390625,0.8620897531509399,-1.3556911945343018,-0.29133009910583496
1780626537218061600,2.7680615234375,0.6903347373008728,-1.0285465717315674,-0.5011494159698486
1780626537228056300,2.778056396484375,0.4531427025794983,0.019180351868271828,-1.1854712963104248
1780626537238052600,2.788052490234375,0.18808308243751526,1.028705358505249,-1.893775463104248
1780626537248047600,2.798047607421875,-0.05191859230399132,1.557037591934204,-2.321718692779541
1780626537258042600,2.808042724609375,-0.2042900174856186,1.399300456047058,-2.339869260787964
1780626537268037600,2.81803759765625,-0.0314820259809494,0.7439649701118469,-2.135927438735962
1780626537278032600,2.82803271484375,0.2752520740032196,0.06800674647092819,-1.9194637537002563
1780626537288027600,2.838027587890625,0.5116052031517029,-0.24262675642967224,-1.7887741327285767
1780626537298022400,2.8480224609375,0.7121774554252625,-0.26617416739463806,-1.7209287881851196
1780626537308017400,2.858017333984375,0.8661971092224121,-0.2937757074832916,-1.6479880809783936
1780626537318012400,2.868012451171875,0.9640312790870667,-0.6252604126930237,-1.5662723779678345
1780626537328007400,2.87800732421875,1.002838373184204,-1.0901402235031128,-1.4862531423568726
1780626537338002400,2.88800244140625,1.0742353200912476,-1.3030368089675903,-1.3657904863357544
1780626537347997400,2.89799755859375,1.2517142295837402,-1.1724194288253784,-1.2053656578063965
1780626537357992400,2.907992431640625,1.3919626474380493,-0.9234018325805664,-0.9424330592155457
1780626537367987700,2.91798779296875,1.4240180253982544,-0.6487074494361877,-0.6107102632522583
1780626537377982700,2.927982666015625,1.3489257097244263,-0.4169655442237854,-0.25215500593185425
1780626537387977700,2.937977783203125,1.172615647315979,-0.20400799810886383,0.03141917660832405
1780626537397972500,2.947972412109375,0.7278187274932861,-0.01938674785196781,-0.015372565016150475
1780626537407967500,2.957967529296875,0.10576584190130234,0.4795799255371094,-0.3726870119571686
1780626537417962500,2.96796240234375,-0.40209150314331055,1.3947651386260986,-0.9672185778617859
1780626537427957500,2.97795751953125,-0.6848816871643066,2.343258857727051,-1.671820878982544
1780626537437952500,2.987952392578125,-0.6289302706718445,3.00950288772583,-2.209397792816162
1780626537447947500,2.997947509765625,-0.2591593861579895,3.3031833171844482,-2.641904830932617
1780626537457942500,3.007942626953125,0.1339399516582489,3.3085639476776123,-2.941385269165039
1780626537467937500,3.0179375,0.4455503225326538,2.84157657623291,-3.0853705406188965
1780626537477932500,3.0279326171875,0.6448466181755066,1.6793382167816162,-2.8167388439178467
1780626537487927600,3.037927490234375,0.5386804938316345,1.071735143661499,-2.147242546081543
1780626537497922300,3.04792236328125,0.3429357707500458,0.9280924797058105,-1.6682049036026
1780626537507917300,3.057917236328125,0.1507498323917389,1.0088664293289185,-1.440251350402832
1780626537517912300,3.067912353515625,0.05516498535871506,1.0961941480636597,-1.47859525680542
1780626537527907300,3.0779072265625,0.2017568200826645,1.1920663118362427,-1.6674996614456177
1780626537537903400,3.0879033203125,0.7181296348571777,0.7852612733840942,-1.740928053855896
1780626537547898400,3.0978984375,1.4278029203414917,-0.39662832021713257,-1.5674694776535034
1780626537557893400,3.107893310546875,1.9620444774627686,-1.0559097528457642,-1.1950690746307373
1780626537567888400,3.117888427734375,2.206615447998047,-0.43162623047828674,-0.5946798920631409
1780626537577883400,3.12788330078125,2.0324015617370605,-0.04079030826687813,0.12265854328870773
1780626537587878400,3.13787841796875,1.533282995223999,0.49944868683815,0.6954104900360107
1780626537597873400,3.147873291015625,0.7965387105941772,1.1251722574234009,1.0114315748214722
1780626537607868400,3.157868408203125,0.056118663400411606,1.400647759437561,1.1032352447509766
1780626537617863400,3.167863525390625,-0.5120251774787903,1.0664045810699463,0.8858334422111511
1780626537627858400,3.1778583984375,-0.7914680242538452,0.0398307703435421,0.36860013008117676
1780626537637853400,3.187853515625,-0.8785717487335205,-0.9913297295570374,-0.24594399333000183
1780626537647848400,3.197848388671875,-1.033699631690979,-1.2779947519302368,-0.8214962482452393
1780626537657843500,3.207843505859375,-1.2303638458251953,-1.0741384029388428,-1.325708031654358
1780626537667838200,3.217838134765625,-1.0106514692306519,-1.1556931734085083,-1.6706597805023193
1780626537677833200,3.227833251953125,-0.28156882524490356,-1.423370122909546,-1.735902190208435
1780626537687828200,3.237828125,0.5969036221504211,-1.729499101638794,-1.3716320991516113
1780626537697823200,3.2478232421875,1.2367479801177979,-1.8417223691940308,-0.6420308947563171
1780626537707818500,3.257818603515625,1.4707828760147095,-1.3141469955444336,0.4220242202281952
1780626537717813500,3.2678134765625,1.5470316410064697,-0.9930115342140198,1.1185615062713623
1780626537727808500,3.27780859375,1.7484080791473389,-1.0160984992980957,1.3084168434143066
1780626537737803500,3.287803466796875,2.0800042152404785,-1.0475841760635376,1.2396796941757202
1780626537747798500,3.297798583984375,2.5225048065185547,-1.0964713096618652,1.1004911661148071
1780626537757793500,3.30779345703125,2.9678869247436523,-1.2413526773452759,0.9735816717147827
1780626537767788300,3.317788330078125,3.2454400062561035,-1.2112573385238647,0.41546058654785156
1780626537777783300,3.327783203125,3.304921865463257,-1.0919442176818848,-1.297012448310852
1780626537787778300,3.3377783203125,3.5688207149505615,-2.1422665119171143,-2.2371983528137207
1780626537797773300,3.347773193359375,3.8073248863220215,-1.2371379137039185,-1.5716136693954468
1780626537807768300,3.357768310546875,3.251079559326172,1.3013694286346436,-0.6524561047554016
1780626537817763300,3.367763427734375,2.664196491241455,1.7486326694488525,-1.222001314163208
1780626537827758300,3.37775830078125,2.371736526489258,0.7619282603263855,-1.671294927597046
1780626537837753300,3.38775341796875,2.1783828735351562,0.2216508984565735,-1.2951003313064575
1780626537847749400,3.397749267578125,1.9621390104293823,-0.17616011202335358,-0.6542710065841675
1780626537857744400,3.407744384765625,1.730080485343933,-0.8111943602561951,-0.2263260781764984
1780626537867739400,3.417739501953125,1.1530890464782715,-1.6708283424377441,-0.015791745856404305
1780626537877734400,3.427734375,0.4736250936985016,-2.073333740234375,0.23277918994426727
1780626537887729400,3.4377294921875,0.07801863551139832,-2.2800004482269287,0.4355109930038452
1780626537897724400,3.447724365234375,0.029862292110919952,-2.466752290725708,0.4939364790916443
1780626537907719400,3.457719482421875,0.0823231041431427,-2.2040491104125977,0.511283278465271
1780626537917714400,3.46771435546875,0.051003262400627136,-1.2885912656784058,0.4735182821750641
1780626537927709400,3.47770947265625,-0.10649288445711136,-0.1186361014842987,0.29005977511405945
1780626537937704400,3.487704345703125,-0.21013912558555603,0.21957336366176605,0.19970592856407166
1780626537947699200,3.49769921875,0.01383858360350132,-0.34163162112236023,0.31570470333099365
1780626537957694200,3.507694091796875,0.5528038144111633,-1.3533142805099487,0.6624389290809631
1780626537967689200,3.517689208984375,1.079971194267273,-2.301556348800659,1.083345651626587
1780626537977684500,3.5276845703125,1.4640501737594604,-3.3779103755950928,1.6061375141143799
1780626537987679500,3.537679443359375,1.5647096633911133,-3.693270206451416,1.909173607826233
1780626537997674500,3.547674560546875,1.6042407751083374,-3.6700398921966553,2.060434341430664
1780626538007669500,3.55766943359375,2.2152554988861084,-3.164881944656372,2.120485544204712
1780626538017664500,3.56766455078125,3.3980817794799805,-1.168718934059143,1.7493934631347656
1780626538027659500,3.577659423828125,4.65981388092041,1.2008845806121826,0.894661545753479
1780626538037654300,3.587654296875,5.947816371917725,2.880049467086792,-0.1731150597333908
1780626538047649300,3.597649169921875,7.067576885223389,3.8361194133758545,-0.9948424696922302
1780626538057644300,3.607644287109375,7.674837112426758,4.316751003265381,-1.1152945756912231
1780626538067639300,3.617639404296875,7.56211519241333,4.304861545562744,-0.6075139045715332
1780626538077634300,3.62763427734375,7.200206756591797,3.997553825378418,0.020192353054881096
1780626538087629300,3.63762939453125,6.851715087890625,1.6958903074264526,0.8869695067405701
1780626538097624300,3.647624267578125,6.491678714752197,-1.425826072692871,1.6282598972320557
1780626538107619300,3.657619384765625,5.93398904800415,-1.968294620513916,1.571089506149292
1780626538117614600,3.667614501953125,5.25874662399292,-1.743544101715088,1.2618829011917114
1780626538127609600,3.677609619140625,4.7387471199035645,-1.8543568849563599,0.9670867323875427
1780626538137605400,3.68760546875,4.278189659118652,-2.812952995300293,0.7814982533454895
1780626538147600400,3.697600341796875,3.54536771774292,-3.6192803382873535,0.4878208041191101
1780626538157595400,3.707595458984375,2.388547658920288,-3.8913843631744385,0.06829117238521576
1780626538167590400,3.71759033203125,0.897953450679779,-3.691838026046753,-0.46463239192962646
1780626538177585400,3.72758544921875,-0.39803871512413025,-3.2381160259246826,-0.9632871747016907
1780626538187580400,3.737580322265625,-0.8416995406150818,-3.4903931617736816,-1.4861738681793213
1780626538197575400,3.747575439453125,-0.8693878650665283,-4.1609063148498535,-1.8673675060272217
1780626538207570400,3.7575703125,-0.7454723119735718,-4.373134136199951,-1.912600040435791
1780626538217565200,3.767565185546875,-0.5805653929710388,-4.0166521072387695,-1.7368241548538208
1780626538227560200,3.777560302734375,-0.39220932126045227,-3.1732499599456787,-1.4349737167358398
1780626538237555500,3.787555419921875,-0.18056418001651764,-2.0505802631378174,-1.0593372583389282
1780626538247550500,3.797550537109375,-0.02726331166923046,-0.8977944850921631,-0.6357199549674988
1780626538257545500,3.80754541015625,-0.041014280170202255,0.0827590599656105,-0.22602008283138275
1780626538267540500,3.81754052734375,-0.16418148577213287,0.7976737022399902,0.08553141355514526
1780626538277535500,3.827535400390625,-0.31279706954956055,1.2363224029541016,0.28491297364234924
1780626538287530500,3.837530517578125,-0.39574626088142395,1.4691575765609741,0.41802307963371277
1780626538297525500,3.847525390625,-0.40975475311279297,1.591632604598999,0.543422520160675
1780626538307520500,3.8575205078125,-0.4169311821460724,1.6097559928894043,0.6673306226730347
1780626538317515300,3.867515380859375,-0.4367440342903137,1.4962794780731201,0.7523277997970581
1780626538327510300,3.87751025390625,-0.4333527684211731,1.244421362876892,0.7630457282066345
1780626538337505300,3.88750537109375,-0.3783228099346161,0.8670064806938171,0.6874356269836426
1780626538347500300,3.897500244140625,-0.2824071943759918,0.4205376207828522,0.5142441391944885
1780626538357495300,3.907495361328125,-0.16176652908325195,-0.03331481292843819,0.28465011715888977
1780626538367490300,3.917490234375,-0.0668133869767189,-0.3718838095664978,0.06680326163768768
1780626538377485300,3.9274853515625,-0.013134177774190903,-0.5607442855834961,-0.09507991373538971
1780626538387480600,3.93748046875,-0.009949569590389729,-0.6634208559989929,-0.17399762570858002
1780626538397476400,3.947476318359375,-0.02816346101462841,-0.781695544719696,-0.193089559674263
1780626538407471400,3.957471435546875,-0.0701223611831665,-0.9339178800582886,-0.17327165603637695
1780626538417466400,3.96746630859375,-0.13323767483234406,-1.046407699584961,-0.11142772436141968
1780626538427461400,3.97746142578125,-0.19317825138568878,-1.0458062887191772,-0.010467021726071835
1780626538437456400,3.987456298828125,-0.2114371508359909,-0.8813401460647583,0.10501323640346527
1780626538447451400,3.997451416015625,-0.20500880479812622,-0.5889844298362732,0.19672104716300964
1780626538457446400,4.0074462890625,-0.23925253748893738,-0.25349190831184387,0.2374863177537918
1780626538467441400,4.01744140625,-0.2974252998828888,0.01751321367919445,0.2501049041748047
1780626538477436400,4.0274365234375,-0.29857897758483887,0.2188713550567627,0.23375657200813293
1780626538487431200,4.03743115234375,-0.2578275501728058,0.35363131761550903,0.12593795359134674
1780626538497426400,4.047426513671875,-0.20444928109645844,0.38852083683013916,-0.07788840681314468
1780626538507421400,4.05742138671875,-0.13927853107452393,0.2115868180990219,-0.23817555606365204
1780626538517416000,4.067416015625,-0.04399142786860466,-0.12652304768562317,-0.24830114841461182
1780626538527411000,4.077410888671875,0.021584654226899147,-0.4821722209453583,-0.12028966099023819
1780626538537406200,4.08740625,0.05095239728689194,-0.6431824564933777,0.06490735709667206
1780626538547401200,4.097401123046875,0.05429093539714813,-0.5632676482200623,0.23774544894695282
1780626538557396200,4.107396240234375,0.04529557749629021,-0.3406824767589569,0.3254324197769165
1780626538567391200,4.11739111328125,0.008794024586677551,-0.05946865305304527,0.32395145297050476
1780626538577386200,4.12738623046875,-0.03536944091320038,0.16851204633712769,0.22985850274562836
1780626538587381200,4.13738134765625,-0.06363170593976974,0.25692686438560486,0.06407219171524048
1780626538597376000,4.1473759765625,-0.059112854301929474,0.16622120141983032,-0.12048699706792831
1780626538607371000,4.15737109375,-0.04246436804533005,-0.039614252746105194,-0.23569747805595398
1780626538617366000,4.167365966796875,-0.021929001435637474,-0.25192466378211975,-0.23171871900558472
1780626538627361000,4.177361083984375,-0.018019480630755424,-0.42833590507507324,-0.13814695179462433
1780626538637356000,4.18735595703125,-0.03489965945482254,-0.5247069001197815,-0.02136947028338909
1780626538647351000,4.19735107421875,-0.07200495153665543,-0.5198463797569275,0.07464520633220673
1780626538657347300,4.207347412109375,-0.09563411772251129,-0.4304259419441223,0.12946026027202606
1780626538667342000,4.217342041015625,-0.10290427505970001,-0.3136567175388336,0.13210797309875488
1780626538677337000,4.227337158203125,-0.11328954249620438,-0.20515847206115723,0.08677324652671814
1780626538687332000,4.23733203125,-0.12295442074537277,-0.14903289079666138,0.02581561729311943
1780626538697327000,4.2473271484375,-0.10931317508220673,-0.12728525698184967,-0.01913081668317318
1780626538707322000,4.257322021484375,-0.07632459700107574,-0.1284615695476532,-0.04374827817082405
1780626538717317000,4.267317138671875,-0.04123798385262489,-0.1304197907447815,-0.07402682304382324
1780626538727312100,4.27731201171875,-0.020430972799658775,-0.1432303935289383,-0.11821053177118301
1780626538737307100,4.28730712890625,-0.016593091189861298,-0.17395208775997162,-0.16821271181106567
1780626538747302100,4.29730224609375,-0.02466779574751854,-0.2216343879699707,-0.19698071479797363
1780626538757297200,4.307297119140625,-0.0417165532708168,-0.28840941190719604,-0.2031499147415161
1780626538767292000,4.3172919921875,-0.07550407946109772,-0.35124537348747253,-0.1845826357603073
1780626538777287000,4.327286865234375,-0.11936314404010773,-0.42716145515441895,-0.13485661149024963
1780626538787282000,4.337281982421875,-0.1520145684480667,-0.4958377182483673,-0.07346569746732712
1780626538797277200,4.347277099609375,-0.16475193202495575,-0.528784990310669,-0.03630101680755615
1780626538807272200,4.357272216796875,-0.15973666310310364,-0.5387425422668457,-0.02852804772555828
1780626538817267200,4.36726708984375,-0.13260863721370697,-0.5749865770339966,-0.04304094240069389
1780626538827262200,4.37726220703125,-0.10099665820598602,-0.6647529602050781,-0.06270252913236618
1780626538837257200,4.38725732421875,-0.07965061813592911,-0.8067178130149841,-0.07202545553445816
1780626538847252200,4.397252197265625,-0.08454444259405136,-0.9555168747901917,-0.0689375251531601
1780626538857247200,4.407247314453125,-0.1117507666349411,-1.1025660037994385,-0.07267952710390091
1780626538867242000,4.417241943359375,-0.14661766588687897,-1.2081568241119385,-0.07375970482826233
1780626538877237000,4.427237060546875,-0.164621964097023,-1.2715404033660889,-0.06614067405462265
1780626538887232000,4.43723193359375,-0.16068235039710999,-1.3145043849945068,-0.050396326929330826
1780626538897227000,4.44722705078125,-0.14224421977996826,-1.3707891702651978,-0.03340642526745796
1780626538907222000,4.457221923828125,-0.10882315039634705,-1.4221203327178955,-0.04508811607956886
1780626538917217000,4.467217041015625,-0.0658559799194336,-1.435306429862976,-0.07965061813592911
1780626538927213300,4.47721337890625,-0.035779569298028946,-1.406236171722412,-0.10939812660217285
1780626538937208000,4.4872080078125,-0.03092143125832081,-1.3398778438568115,-0.11101413518190384
1780626538947203000,4.497203125,-0.044978126883506775,-1.263110637664795,-0.06714681535959244
1780626538957198000,4.507197998046875,-0.07833075523376465,-1.201310396194458,0.013827398419380188
1780626538967193000,4.517193115234375,-0.11847950518131256,-1.1536067724227905,0.11451645940542221
1780626538977188000,4.52718798828125,-0.15441007912158966,-1.12471342086792,0.2258421778678894
1780626538987183000,4.53718310546875,-0.18248219788074493,-1.1046205759048462,0.32473546266555786
1780626538997178000,4.54717822265625,-0.19466428458690643,-1.0678207874298096,0.3945789933204651
1780626539007173000,4.557173095703125,-0.21474586427211761,-1.0029720067977905,0.4333588778972626
1780626539017168100,4.567168212890625,-0.23752626776695251,-0.8842360377311707,0.44686272740364075
1780626539027163100,4.5771630859375,-0.256839781999588,-0.7038769125938416,0.45609617233276367
1780626539037158000,4.587157958984375,-0.26338422298431396,-0.46638795733451843,0.4653991162776947
1780626539047153000,4.59715283203125,-0.24674932658672333,-0.205921471118927,0.4462808072566986
1780626539057148200,4.607148193359375,-0.2069166898727417,-0.0005515406373888254,0.37862905859947205
1780626539067143200,4.61714306640625,-0.16445259749889374,0.07404067367315292,0.2565705478191376
1780626539077138200,4.62713818359375,-0.11830240488052368,0.0028613002505153418,0.1047370657324791
1780626539087133200,4.63713330078125,-0.08387386053800583,-0.15086567401885986,-0.0410827212035656
1780626539097128200,4.647128173828125,-0.06835509091615677,-0.21855683624744415,-0.12449292838573456
1780626539107123200,4.657123291015625,-0.053289055824279785,-0.10852035135030746,-0.13178572058677673
1780626539117118200,4.6671181640625,-0.06379229575395584,0.1243448555469513,-0.08411647379398346
1780626539127113200,4.67711328125,-0.10402946174144745,0.4310893416404724,-0.0343550443649292
1780626539137108000,4.68710791015625,-0.1210438683629036,0.6991399526596069,0.015897206962108612
1780626539147103000,4.69710302734375,-0.09281808882951736,0.832875669002533,0.0630042627453804
1780626539157098000,4.707097900390625,-0.040133036673069,0.7851629853248596,0.07946686446666718
1780626539167093000,4.717093017578125,-0.0016535567119717598,0.5934670567512512,0.028921930119395256
1780626539177088000,4.727087890625,0.02028396539390087,0.38465234637260437,-0.09832283854484558
1780626539187084300,4.737084228515625,0.03339311107993126,0.3035053014755249,-0.24841274321079254
1780626539197079300,4.747079345703125,0.05109727382659912,0.3661460280418396,-0.3699682056903839
1780626539207074000,4.757073974609375,0.0625360831618309,0.49821752309799194,-0.4450581669807434
1780626539217069000,4.767069091796875,0.06712204217910767,0.562850832939148,-0.458575040102005
1780626539227064000,4.77706396484375,0.06124311685562134,0.5133213400840759,-0.4182931184768677
1780626539237059000,4.78705908203125,0.04442046210169792,0.39814576506614685,-0.35611364245414734
1780626539247054000,4.79705419921875,0.03025910258293152,0.2945525348186493,-0.3220131993293762
1780626539257049000,4.807049072265625,0.03628956526517868,0.24186855554580688,-0.32747265696525574
1780626539267044000,4.817044189453125,0.05891977623105049,0.2368628829717636,-0.3613579273223877
1780626539277039000,4.8270390625,0.09049048274755478,0.23647911846637726,-0.41504114866256714
1780626539287034000,4.8370341796875,0.11655137687921524,0.21147975325584412,-0.4761473536491394
1780626539297029000,4.847029052734375,0.13869982957839966,0.14056164026260376,-0.5018428564071655
1780626539307024100,4.857024169921875,0.16414207220077515,0.027706729248166084,-0.46853870153427124
1780626539317019000,4.867018798828125,0.18901625275611877,-0.06574039906263351,-0.3683364689350128
1780626539327014100,4.87701416015625,0.18315143883228302,-0.0673271119594574,-0.22613246738910675
1780626539337009200,4.887009033203125,0.16251274943351746,0.017524931579828262,-0.08007220178842545
1780626539347004200,4.897004150390625,0.1570950746536255,0.14172011613845825,0.02401079423725605
1780626539356999200,4.906999267578125,0.17351746559143066,0.2668311595916748,0.07779919356107712
1780626539366994200,4.916994140625,0.19841748476028442,0.3678017258644104,0.07638824731111526
1780626539376989200,4.9269892578125,0.21746015548706055,0.446323424577713,-0.013040967285633087
1780626539386984200,4.936984130859375,0.2023584246635437,0.5165877342224121,-0.18847164511680603
1780626539396979200,4.946979248046875,0.16420571506023407,0.609245240688324,-0.4243374466896057
1780626539406974000,4.956973876953125,0.112058624625206,0.7007266879081726,-0.6505900025367737
1780626539416969000,4.966968994140625,0.07667959481477737,0.7038875818252563,-0.7979896068572998
1780626539426965000,4.976965087890625,0.056891243904829025,0.6050747036933899,-0.8438686728477478
1780626539436960000,4.9869599609375,0.0179385207593441,0.48712119460105896,-0.8403788805007935
1780626539446955300,4.996955322265625,-0.04723861813545227,0.4601638615131378,-0.8439069986343384
1780626539456950300,5.0069501953125,-0.11128870397806168,0.5391846299171448,-0.872255265712738
1780626539466945300,5.0169453125,-0.13711364567279816,0.5717734694480896,-0.877478301525116
1780626539476940000,5.02693994140625,-0.14308498799800873,0.3868526518344879,-0.7912477850914001
1780626539486935000,5.03693505859375,-0.1687336266040802,0.0292351171374321,-0.6125454306602478
1780626539496930000,5.046929931640625,-0.19490957260131836,-0.26509106159210205,-0.4119036793708801
1780626539506925000,5.056925048828125,-0.16398334503173828,-0.3674491047859192,-0.19653010368347168
1780626539516920600,5.066920654296875,-0.052567072212696075,-0.3303752541542053,-0.0044112601317465305
1780626539526915600,5.07691552734375,0.04234878718852997,-0.29969722032546997,0.06993700563907623
1780626539536910600,5.08691064453125,0.02930009737610817,-0.27718713879585266,0.005852296482771635
1780626539546905600,5.096905517578125,-0.06256803870201111,-0.14657798409461975,-0.18608412146568298
1780626539556900600,5.106900634765625,-0.12822455167770386,0.06442639231681824,-0.4586634337902069
1780626539566895400,5.116895263671875,-0.08082854002714157,0.0884864553809166,-0.7408618330955505
1780626539576890400,5.126890380859375,0.08141975849866867,-0.26522767543792725,-0.9687754511833191
1780626539586885400,5.136885498046875,0.2508138418197632,-0.790966808795929,-1.063001036643982
1780626539596880400,5.14688037109375,0.32594215869903564,-1.062622308731079,-0.9935084581375122
1780626539606875400,5.15687548828125,0.3309435546398163,-0.9413382411003113,-0.792756974697113
1780626539616870400,5.166870361328125,0.2692570388317108,-0.555300772190094,-0.5268270373344421
1780626539626865400,5.176865478515625,0.15851694345474243,-0.10848599672317505,-0.2798478901386261
1780626539636860400,5.1868603515625,0.04206516221165657,0.17198960483074188,-0.13248267769813538
1780626539646855700,5.196855712890625,-0.04469077289104462,0.20547325909137726,-0.11865820735692978
1780626539656850700,5.2068505859375,-0.1120959147810936,0.11480887234210968,-0.21944794058799744
1780626539666846500,5.216846435546875,-0.17450016736984253,0.0005669869715347886,-0.3475707471370697
1780626539676841500,5.226841552734375,-0.23544473946094513,-0.13417750597000122,-0.435786634683609
1780626539686836500,5.23683642578125,-0.25526824593544006,-0.29245397448539734,-0.46831661462783813
1780626539696831500,5.24683154296875,-0.22256729006767273,-0.4749966263771057,-0.4687807857990265
1780626539706826500,5.256826416015625,-0.17274141311645508,-0.6494954228401184,-0.45997586846351624
1780626539716821500,5.266821533203125,-0.1292610466480255,-0.7750307321548462,-0.4197503924369812
1780626539726816500,5.27681640625,-0.11816711723804474,-0.7901220917701721,-0.3466559648513794
1780626539736811500,5.2868115234375,-0.1553107649087906,-0.7847475409507751,-0.28401973843574524
1780626539746806300,5.29680615234375,-0.20648899674415588,-0.849386990070343,-0.2544408142566681
1780626539756801300,5.30680126953125,-0.23676833510398865,-0.909464955329895,-0.24880023300647736
1780626539766796500,5.316796630859375,-0.2226589024066925,-0.8853841423988342,-0.23899473249912262
1780626539776791600,5.32679150390625,-0.17675186693668365,-0.7882554531097412,-0.19258169829845428
1780626539786786600,5.33678662109375,-0.12132882326841354,-0.6301044225692749,-0.08851148933172226
1780626539796781600,5.346781494140625,-0.05296521261334419,-0.4624515175819397,0.03496970236301422
1780626539806776600,5.356776611328125,0.017766213044524193,-0.36786484718322754,0.1093619093298912
1780626539816771600,5.366771484375,0.06656411290168762,-0.33278167247772217,0.1035279929637909
1780626539826766600,5.3767666015625,0.07949109375476837,-0.2966415286064148,0.06727970391511917
1780626539836761600,5.38676171875,0.05841777101159096,-0.24991875886917114,0.05542491003870964
1780626539846756400,5.39675634765625,0.037286385893821716,-0.2059105485677719,0.06756759434938431
1780626539856751400,5.40675146484375,0.04188273474574089,-0.14232970774173737,0.08361607044935226
1780626539866746400,5.416746337890625,0.0753091350197792,-0.05511438474059105,0.12544579803943634
1780626539876741400,5.426741455078125,0.10499725490808487,-0.0008309062686748803,0.2125554084777832
1780626539886736400,5.436736328125,0.11632261425256729,-0.0018631474813446403,0.2991802990436554
1780626539896732700,5.446732666015625,0.11763981729745865,-0.006797452457249165,0.35984471440315247
1780626539906727700,5.456727783203125,0.1029713898897171,0.021810490638017654,0.40791451930999756
1780626539916722400,5.466722412109375,0.07185634970664978,0.05342753976583481,0.4537999927997589
1780626539926717400,5.476717529296875,0.022006498649716377,0.038011033087968826,0.4981765151023865
1780626539936712400,5.48671240234375,-0.043839890509843826,0.0065503111109137535,0.5250784158706665
1780626539946707500,5.49670751953125,-0.1097230315208435,-0.014157364144921303,0.5175504684448242
1780626539956702500,5.506702392578125,-0.1556873321533203,-0.05048847571015358,0.5222890377044678
1780626539966697500,5.516697509765625,-0.1678587794303894,-0.08580278605222702,0.5416430234909058
1780626539976692500,5.5266923828125,-0.16017742455005646,-0.0945667177438736,0.5554315447807312
1780626539986687500,5.5366875,-0.14815831184387207,-0.06727917492389679,0.5552893280982971
1780626539996682500,5.5466826171875,-0.13859888911247253,-0.012870525009930134,0.5575253367424011
1780626540006677500,5.556677490234375,-0.14135658740997314,0.05173536762595177,0.5655059814453125
1780626540016672300,5.56667236328125,-0.15392591059207916,0.0995795875787735,0.5806450247764587
1780626540026667300,5.576667236328125,-0.1591757982969284,0.09496060013771057,0.6027785539627075
1780626540036662500,5.58666259765625,-0.14399658143520355,0.02653973177075386,0.6307939291000366
1780626540046657500,5.596657470703125,-0.1131657063961029,-0.07473921775817871,0.658402681350708
1780626540056652500,5.606652587890625,-0.07680956274271011,-0.15666711330413818,0.6719629168510437
1780626540066647600,5.6166474609375,-0.03967257961630821,-0.18799227476119995,0.6628884673118591
1780626540076642600,5.626642578125,-0.006600644905120134,-0.16340623795986176,0.6260806918144226
1780626540086637600,5.636637451171875,0.008137821219861507,-0.11133983731269836,0.5456699728965759
1780626540096632600,5.646632568359375,-0.0009294432238675654,-0.051895420998334885,0.42752575874328613
1780626540106627600,5.656627685546875,-0.011691276915371418,0.01383884996175766,0.28068864345550537
1780626540116623400,5.666623291015625,-0.007423827890306711,0.08892694115638733,0.13695332407951355
1780626540126618400,5.676618408203125,0.011516840197145939,0.17038904130458832,0.044381044805049896
1780626540136613400,5.68661328125,0.020127372816205025,0.21508221328258514,0.010251305997371674
1780626540146608600,5.696608642578125,0.029232453554868698,0.20490175485610962,0.007045392412692308
1780626540156603600,5.706603759765625,0.04585137963294983,0.1716844141483307,0.005291168577969074
1780626540166598700,5.7165986328125,0.06354302167892456,0.15930522978305817,-0.024868864566087723
1780626540176593700,5.72659375,0.06253021955490112,0.17170411348342896,-0.11095501482486725
1780626540186588400,5.73658837890625,0.04885169491171837,0.18393947184085846,-0.2555913031101227
1780626540196583400,5.74658349609375,0.04367131367325783,0.20222367346286774,-0.45141857862472534
1780626540206578400,5.756578369140625,0.04752330854535103,0.22189538180828094,-0.6449151039123535
1780626540216573400,5.766573486328125,0.03885472193360329,0.23917503654956818,-0.7805315256118774
1780626540226568400,5.776568359375,0.02949024736881256,0.2616625130176544,-0.849537193775177
1780626540236563500,5.7865634765625,0.03803393617272377,0.2840985655784607,-0.8860824108123779
1780626540246558500,5.796558349609375,0.07490779459476471,0.2842663526535034,-0.9028608798980713
1780626540256553500,5.806553466796875,0.13060994446277618,0.2586832344532013,-0.9074739813804626
1780626540266548500,5.816548583984375,0.1737329065799713,0.23826903104782104,-0.9029958844184875
1780626540276543500,5.82654345703125,0.18321269750595093,0.2294616848230362,-0.8946218490600586
1780626540286538200,5.836538330078125,0.15886448323726654,0.22119629383087158,-0.861936092376709
1780626540296533500,5.846533447265625,0.13363848626613617,0.19740654528141022,-0.8045042157173157
1780626540306528500,5.856528564453125,0.1366550475358963,0.10722259432077408,-0.7508289813995361
1780626540316523500,5.8665234375,0.17934845387935638,-0.004372910596430302,-0.7240341305732727
1780626540326518500,5.8765185546875,0.2342844009399414,-0.020146813243627548,-0.7924706935882568
1780626540336513500,5.886513427734375,0.2714195251464844,-0.007862983271479607,-0.943528950214386
1780626540346509600,5.896509521484375,0.2585796117782593,-0.0747421458363533,-1.0728179216384888
1780626540356504300,5.90650439453125,0.22308315336704254,-0.23607245087623596,-1.1255896091461182
1780626540366499300,5.916499267578125,0.19002799689769745,-0.3900689482688904,-1.0926963090896606
1780626540376494300,5.926494384765625,0.16367974877357483,-0.30943775177001953,-1.0000958442687988
1780626540386489300,5.9364892578125,0.11707815527915955,0.002019741339609027,-0.8531561493873596
1780626540396484400,5.946484375,0.04210084676742554,0.20707648992538452,-0.6365876197814941
1780626540406479400,5.956479248046875,-0.031921446323394775,0.11948112398386002,-0.4076804220676422
1780626540416474600,5.966474609375,-0.07252959161996841,-0.033914290368556976,-0.3211210370063782
1780626540426469600,5.9764697265625,-0.0680813193321228,-0.1308930367231369,-0.42436113953590393
1780626540436464600,5.986464599609375,-0.03286181017756462,-0.30983829498291016,-0.6238270998001099
1780626540446459600,5.996459716796875,0.0014261227333918214,-0.552318811416626,-0.7983970642089844
1780626540456454400,6.006454345703125,-0.02106587029993534,-0.6444652676582336,-0.8326866030693054
1780626540466449400,6.016449462890625,-0.07077270746231079,-0.6791287064552307,-0.7530577778816223
1780626540476444400,6.0264443359375,-0.09377895295619965,-0.71616530418396,-0.609924852848053
1780626540486439400,6.036439453125,-0.07558903098106384,-0.7338933944702148,-0.49008607864379883
1780626540496434400,6.046434326171875,-0.04195783659815788,-0.7359930276870728,-0.4416559636592865
1780626540506429400,6.056429443359375,-0.021689049899578094,-0.6975351572036743,-0.4487868547439575
1780626540516424200,6.066424072265625,-0.02473197877407074,-0.5397588610649109,-0.43764790892601013
1780626540526419200,6.076419189453125,-0.03111584112048149,-0.2457732856273651,-0.33044981956481934
1780626540536414200,6.086414306640625,-0.0030836742371320724,0.010333064943552017,-0.15990497171878815
1780626540546409200,6.0964091796875,0.03405969962477684,0.06430255621671677,-0.02744520641863346
1780626540556405000,6.106405029296875,0.061586666852235794,-0.07661488652229309,0.0012950951931998134
1780626540566400000,6.11639990234375,0.06689754128456116,-0.17871834337711334,-0.06336965411901474
1780626540576395000,6.12639501953125,0.016631174832582474,-0.1188528835773468,-0.10636239498853683
1780626540586390000,6.13639013671875,-0.029739785939455032,0.032035429030656815,-0.01684183068573475
1780626540596385000,6.146385009765625,-0.036564670503139496,0.20123910903930664,0.16668325662612915
1780626540606380000,6.156380126953125,-0.027338147163391113,0.3416425585746765,0.3563445210456848
1780626540616375300,6.166375244140625,-0.016953149810433388,0.39044710993766785,0.47210389375686646
1780626540626370300,6.176370361328125,-0.011917113326489925,0.3551514446735382,0.4796222448348999
1780626540636365000,6.186364990234375,-0.022777751088142395,0.29551979899406433,0.40927112102508545
1780626540646360000,6.196360107421875,-0.05453328415751457,0.24140037596225739,0.32950785756111145
1780626540656355000,6.20635498046875,-0.09738540649414062,0.1761382818222046,0.2807443141937256
1780626540666350000,6.21635009765625,-0.13590404391288757,0.09791724383831024,0.2811821401119232
1780626540676345000,6.226344970703125,-0.16180408000946045,0.023480026051402092,0.328535795211792
1780626540686340000,6.236340087890625,-0.17981158196926117,0.002326537622138858,0.3744921088218689
1780626540696335000,6.246335205078125,-0.19855277240276337,0.04705193266272545,0.3893328309059143
1780626540706330000,6.256330078125,-0.20469509065151215,0.08168820291757584,0.3969058096408844
1780626540716325000,6.2663251953125,-0.19166584312915802,0.10034338384866714,0.42454221844673157
1780626540726320000,6.276320068359375,-0.1538766473531723,0.0975681021809578,0.44655299186706543
1780626540736315100,6.286315185546875,-0.0939057245850563,0.10291546583175659,0.4484187960624695
1780626540746310000,6.296309814453125,-0.056404419243335724,0.09827250987291336,0.437806636095047
1780626540756305200,6.30630517578125,-0.05351089686155319,0.05295829102396965,0.43439751863479614
1780626540766301200,6.31630126953125,-0.07088189572095871,-0.007674697786569595,0.4321966767311096
1780626540776296200,6.326296142578125,-0.09724399447441101,-0.0763605535030365,0.4301367402076721
1780626540786291200,6.336291259765625,-0.1328754872083664,-0.11392736434936523,0.41940152645111084
1780626540796286200,6.3462861328125,-0.16962844133377075,-0.11801345646381378,0.38235029578208923
1780626540806281200,6.35628125,-0.18656428158283234,-0.11332149803638458,0.3354584276676178
1780626540816276000,6.36627587890625,-0.1642264872789383,-0.11799880862236023,0.2871316373348236
1780626540826271000,6.37627099609375,-0.1092950627207756,-0.10186511278152466,0.25308844447135925
1780626540836266000,6.386265869140625,-0.04549264907836914,-0.05498974770307541,0.23634329438209534
1780626540846261000,6.396260986328125,0.018450113013386726,0.008683769032359123,0.22159443795681
1780626540856256000,6.406256103515625,0.06923846155405045,0.059003666043281555,0.20344047248363495
1780626540866251000,6.4162509765625,0.09109582006931305,0.06690899282693863,0.20195415616035461
1780626540876246300,6.426246337890625,0.10238096863031387,-0.006130330264568329,0.2092704027891159
1780626540886241300,6.4362412109375,0.12257704883813858,-0.14193077385425568,0.16740843653678894
1780626540896236300,6.446236328125,0.13035134971141815,-0.2231886088848114,0.08858632296323776
1780626540906231000,6.45623095703125,0.13775759935379028,-0.18933290243148804,0.02774401381611824
1780626540916226000,6.46622607421875,0.15016473829746246,-0.11165010184049606,-0.006589459255337715
1780626540926221000,6.476220947265625,0.1521778106689453,-0.056764744222164154,-0.03648024797439575
1780626540936216000,6.486216064453125,0.1324552446603775,-0.0035023230593651533,-0.06528313457965851
1780626540946211000,6.496211181640625,0.09575528651475906,0.03509167581796646,-0.09075973182916641
1780626540956206000,6.5062060546875,0.06616251170635223,0.00009933590627042577,-0.1134706363081932
1780626540966201000,6.516201171875,0.052555352449417114,-0.08172415941953659,-0.11467891186475754
1780626540976197000,6.526197021484375,0.05049087107181549,-0.07702340930700302,-0.10269415378570557
1780626540986192000,6.53619189453125,0.05589522421360016,0.03765843063592911,-0.09635556489229202
1780626540996187100,6.546187255859375,0.07568437606096268,0.175568088889122,-0.1108655333518982
1780626541006182100,6.55618212890625,0.10833898931741714,0.2592640519142151,-0.11278806626796722
1780626541016177200,6.56617724609375,0.15011999011039734,0.28252971172332764,-0.10851502418518066
1780626541026172200,6.576172119140625,0.1723954677581787,0.2841363847255707,-0.14537982642650604
1780626541036167200,6.586167236328125,0.15918752551078796,0.295547753572464,-0.21049092710018158
1780626541046162200,6.596162109375,0.13629738986492157,0.35390880703926086,-0.2471695840358734
1780626541056157200,6.6061572265625,0.12214402109384537,0.4578988552093506,-0.21513041853904724
1780626541066152200,6.616152099609375,0.10985112935304642,0.5492905378341675,-0.1427249312400818
1780626541076147200,6.626147216796875,0.09848689287900925,0.593856930732727,-0.1043732762336731
1780626541086142000,6.636141845703125,0.08821907639503479,0.5893349051475525,-0.1482805460691452
1780626541096137000,6.646136962890625,0.06727677583694458,0.5687060356140137,-0.2588251531124115
1780626541106132000,6.656132080078125,0.03979215398430824,0.4960310459136963,-0.364211767911911
1780626541116127000,6.666126953125,0.023750603199005127,0.3040717542171478,-0.3983689546585083
1780626541126122000,6.6761220703125,0.035242676734924316,0.12277331948280334,-0.3450958728790283
1780626541136117000,6.686116943359375,0.05910220369696617,0.10412000864744186,-0.2606339752674103
1780626541146112300,6.6961123046875,0.06437978893518448,0.1914953887462616,-0.17741340398788452
1780626541156107300,6.706107177734375,0.05439399927854538,0.20300211012363434,-0.13835228979587555
1780626541166102300,6.716102294921875,0.028678782284259796,0.03934527561068535,-0.144259974360466
1780626541176098000,6.72609814453125,-0.01926477439701557,-0.17297710478305817,-0.1874961256980896
1780626541186093000,6.736093017578125,-0.08248395472764969,-0.37859871983528137,-0.23037993907928467
1780626541196088000,6.746088134765625,-0.10321427136659622,-0.47003355622291565,-0.21067334711551666
1780626541206083000,6.7560830078125,-0.0724097490310669,-0.4058209955692291,-0.13585317134857178
1780626541216078000,6.766078125,0.008868326433002949,-0.27517005801200867,-0.06283994764089584
1780626541226073000,6.776072998046875,0.12338212132453918,-0.19314415752887726,-0.015360048040747643
1780626541236068000,6.786068115234375,0.2055760622024536,-0.16992592811584473,-0.0033598439767956734
1780626541246063000,6.79606298828125,0.2542823553085327,-0.1644746959209442,-0.03901237994432449
1780626541256058000,6.80605810546875,0.2765061557292938,-0.12761494517326355,-0.09256269037723541
1780626541266053000,6.81605322265625,0.27320969104766846,-0.07148856669664383,-0.1385919600725174
1780626541276048100,6.826048095703125,0.24071966111660004,0.048462606966495514,-0.13573625683784485
1780626541286043100,6.836043212890625,0.21240626275539398,0.19892215728759766,-0.07497730851173401
1780626541296038100,6.8460380859375,0.25152915716171265,0.346094012260437,0.043290749192237854
1780626541306033200,6.856033203125,0.34125852584838867,0.47523149847984314,0.2083928883075714
1780626541316028200,6.866028076171875,0.43720635771751404,0.620821475982666,0.36189961433410645
1780626541326023200,6.876023193359375,0.5006985068321228,0.7770565748214722,0.43733659386634827
1780626541336018200,6.88601806640625,0.5020835995674133,0.8114156723022461,0.38031005859375
1780626541346013200,6.89601318359375,0.4528937041759491,0.7188300490379333,0.23393259942531586
1780626541356008000,6.906008056640625,0.3512040972709656,0.6229029893875122,0.09945867955684662
1780626541366004000,6.91600390625,0.23644796013832092,0.5225436091423035,0.05879513919353485
1780626541375999200,6.925999267578125,0.17399470508098602,0.43540871143341064,0.09964829683303833
1780626541385994200,6.935994140625,0.16555887460708618,0.4346095025539398,0.1850135326385498
1780626541395989200,6.9459892578125,0.2049185335636139,0.4920424520969391,0.2751615345478058
1780626541405984300,6.955984375,0.26668494939804077,0.5420752763748169,0.3368704319000244
1780626541415979300,6.965979248046875,0.3108942210674286,0.599155068397522,0.3530336916446686
1780626541425974000,6.97597412109375,0.3162687420845032,0.6634727716445923,0.3174535930156708
1780626541435969000,6.985968994140625,0.29946500062942505,0.6696896553039551,0.24524171650409698
1780626541445964000,6.995964111328125,0.2607567608356476,0.6058946847915649,0.16907185316085815
1780626541455959000,7.005958984375,0.20120501518249512,0.5479536652565002,0.11696922779083252
1780626541465954000,7.0159541015625,0.13700951635837555,0.5503334403038025,0.09954895824193954
1780626541475949000,7.025948974609375,0.09216055274009705,0.5789546966552734,0.09054641425609589
1780626541485944000,7.035944091796875,0.04587135091423988,0.5829140543937683,0.07564655691385269
1780626541495939000,7.04593896484375,0.0030423952266573906,0.545133113861084,0.06653135269880295
1780626541505934000,7.05593408203125,-0.027176760137081146,0.5283450484275818,0.1118871197104454
1780626541515929000,7.06592919921875,-0.04863278195261955,0.5421391725540161,0.23133309185504913
1780626541525924400,7.07592431640625,-0.0389346145093441,0.5202695727348328,0.34071043133735657
1780626541535919400,7.08591943359375,-0.00307648372836411,0.46753790974617004,0.3959726393222809
1780626541545914400,7.095914306640625,0.028319522738456726,0.4075033366680145,0.40139856934547424
1780626541555910700,7.10591064453125,0.04459516331553459,0.34138768911361694,0.37578240036964417
1780626541565905700,7.11590576171875,0.0419842004776001,0.28026601672172546,0.35213619470596313
1780626541575900700,7.125900634765625,0.031647939234972,0.22189484536647797,0.3516419231891632
1780626541585895400,7.1358955078125,0.03320349380373955,0.1522768884897232,0.36889389157295227
1780626541595890400,7.145890380859375,0.049850914627313614,0.09171687066555023,0.3627438545227051
1780626541605885400,7.155885498046875,0.09792602807283401,-0.0014538196846842766,0.31163379549980164
1780626541615880400,7.16588037109375,0.16388827562332153,-0.1320035755634308,0.2151581197977066
1780626541625875500,7.17587548828125,0.20752842724323273,-0.24667343497276306,0.11076673120260239
1780626541635870500,7.185870361328125,0.20323807001113892,-0.2573138177394867,0.07460233569145203
1780626541645865500,7.195865478515625,0.16708779335021973,-0.14875832200050354,0.14785896241664886
1780626541655860500,7.205860595703125,0.1297025978565216,-0.015517440624535084,0.28698861598968506
1780626541665855500,7.21585546875,0.09756676852703094,0.10159826278686523,0.4754299223423004
1780626541675850800,7.225850830078125,0.061953913420438766,0.21765509247779846,0.6684331893920898
1780626541685845500,7.235845458984375,0.03435664251446724,0.30747607350349426,0.8216903805732727
1780626541695840500,7.245840576171875,0.03967257961630821,0.36713191866874695,0.8967611789703369
1780626541705835500,7.25583544921875,0.06951595842838287,0.40463218092918396,0.8725115060806274
1780626541715830500,7.26583056640625,0.10298950225114822,0.43325021862983704,0.7635844945907593
1780626541725825500,7.275825439453125,0.12469132989645004,0.4534479081630707,0.5943565368652344
1780626541735820500,7.285820556640625,0.1345447599887848,0.43063846230506897,0.4174901843070984
1780626541745816600,7.295816650390625,0.1494976133108139,0.31170544028282166,0.27136918902397156
1780626541755811300,7.305811279296875,0.18262919783592224,0.11193878203630447,0.15051600337028503
1780626541765806300,7.315806396484375,0.21131303906440735,-0.11483018100261688,0.08655966073274612
1780626541775801300,7.32580126953125,0.20589324831962585,-0.29574111104011536,0.083497554063797
1780626541785796400,7.33579638671875,0.18421165645122528,-0.3770221173763275,0.11253533512353897
1780626541795791600,7.34579150390625,0.18342681229114532,-0.3278798758983612,0.15182654559612274
1780626541805786600,7.35578662109375,0.21343718469142914,-0.16156253218650818,0.19061335921287537
1780626541815781600,7.36578173828125,0.24065148830413818,0.043113380670547485,0.22676177322864532
1780626541825776600,7.375776611328125,0.2181544303894043,0.28230786323547363,0.22679878771305084
1780626541835771600,7.385771728515625,0.1623212695121765,0.5612068772315979,0.18376663327217102
1780626541845766700,7.3957666015625,0.12749963998794556,0.8091277480125427,0.11062424629926682
1780626541855761400,7.405761474609375,0.12761655449867249,0.9371392130851746,0.027003122493624687
1780626541865756400,7.41575634765625,0.16273298859596252,0.8903661370277405,-0.058526694774627686
1780626541875751400,7.42575146484375,0.20579230785369873,0.7384753823280334,-0.14488714933395386
1780626541885746400,7.435746337890625,0.23626312613487244,0.5366154909133911,-0.25249722599983215
1780626541895741400,7.445741455078125,0.2605956494808197,0.3233639597892761,-0.39817240834236145
1780626541905736400,7.455736328125,0.29037776589393616,0.23015516996383667,-0.5376445651054382
1780626541915731500,7.4657314453125,0.32516372203826904,0.2904326319694519,-0.5900981426239014
1780626541925727500,7.4757275390625,0.34819552302360535,0.4294230043888092,-0.5934929251670837
1780626541935722500,7.485722412109375,0.35985323786735535,0.6496344804763794,-0.6291627287864685
1780626541945717500,7.495717529296875,0.36798176169395447,0.9133079051971436,-0.6953915953636169
1780626541955712500,7.50571240234375,0.3757043778896332,1.1447608470916748,-0.7788912653923035
1780626541965707500,7.51570751953125,0.3470764756202698,1.1480658054351807,-0.9255132079124451
1780626541975702500,7.52570263671875,0.3096412122249603,0.8242568969726562,-1.139295220375061
1780626541985697500,7.535697509765625,0.31033122539520264,0.23689377307891846,-1.3391063213348389
1780626541995692500,7.545692626953125,0.30759429931640625,-0.4293689429759979,-1.4400540590286255
1780626542005687600,7.5556875,0.2934872806072235,-0.9310075640678406,-1.4184807538986206
1780626542015682600,7.5656826171875,0.31293049454689026,-1.1245347261428833,-1.359397292137146
1780626542025677600,7.575677490234375,0.3658030033111572,-0.9709475040435791,-1.2917934656143188
1780626542035672300,7.58567236328125,0.4045906364917755,-0.6059978008270264,-1.1246979236602783
1780626542045667300,7.595667236328125,0.36340564489364624,-0.2932092547416687,-0.8121924996376038
1780626542055662600,7.60566259765625,0.23254403471946716,-0.07605961710214615,-0.42679980397224426
1780626542065657600,7.61565771484375,0.06498565524816513,0.0944407507777214,-0.12147583067417145
1780626542075652600,7.625652587890625,-0.0475267730653286,0.1982470452785492,0.09426551312208176
1780626542085647600,7.635647705078125,-0.10223235934972763,0.2892403304576874,0.25584882497787476
1780626542095642600,7.645642578125,-0.13158811628818512,0.37672463059425354,0.3719700872898102
1780626542105638400,7.655638427734375,-0.11859428882598877,0.5607519745826721,0.5134425163269043
1780626542115633400,7.66563330078125,-0.01900298520922661,1.1969044208526611,0.8264949917793274
1780626542125628400,7.67562841796875,0.13576555252075195,1.6244118213653564,1.2628421783447266
1780626542135623400,7.68562353515625,0.03832102194428444,0.7712650299072266,1.058822512626648
1780626542145618400,7.695618408203125,-0.02184617705643177,0.10015003383159637,0.7850655317306519
1780626542155613400,7.705613525390625,0.007322094868868589,-0.043353334069252014,0.5997734069824219
1780626542165608400,7.7156083984375,-0.021921277046203613,-0.12670548260211945,0.4078300893306732
1780626542175603700,7.725603759765625,-0.11031265556812286,-0.4465724229812622,0.22654925286769867
1780626542185598700,7.7355986328125,-0.2395193874835968,-0.9374665021896362,0.104921355843544
1780626542195593500,7.745593505859375,-0.35615625977516174,-1.3346588611602783,0.11461260169744492
1780626542205588500,7.75558837890625,-0.4269119203090668,-1.4812113046646118,0.20235763490200043
1780626542215583500,7.76558349609375,-0.4755084812641144,-1.3393667936325073,0.2554280459880829
1780626542225578500,7.77557861328125,-0.5243708491325378,-0.9584053754806519,0.27712056040763855
1780626542235573500,7.785573486328125,-0.5956721901893616,-0.6557884812355042,0.3593538999557495
1780626542245568500,7.795568603515625,-0.6775065660476685,-0.6054273247718811,0.5899364948272705
1780626542255563500,7.8055634765625,-0.7294424772262573,-0.5680461525917053,0.9765185713768005
1780626542265558500,7.81555859375,-0.8019880652427673,-0.35254207253456116,1.413353443145752
1780626542275553500,7.825553466796875,-0.9835932850837708,-0.06263168901205063,1.741510033607483
1780626542285549300,7.83554931640625,-1.1852656602859497,0.1144711822271347,1.8461397886276245
1780626542295544600,7.845544677734375,-1.3040144443511963,0.18619996309280396,1.745400309562683
1780626542305539600,7.85553955078125,-1.2600661516189575,0.11278434097766876,1.5055220127105713
1780626542315534600,7.86553466796875,-1.1046839952468872,-0.1658153384923935,1.1904494762420654
1780626542325529600,7.875529541015625,-0.8935760259628296,-0.6095544099807739,0.8255559802055359
1780626542335524600,7.885524658203125,-0.671399712562561,-1.0576027631759644,0.4063485860824585
1780626542345519600,7.89551953125,-0.5136494636535645,-1.3870480060577393,-0.010323477908968925
1780626542355514600,7.9055146484375,-0.4323578178882599,-1.5670151710510254,-0.3740393817424774
1780626542365509600,7.915509521484375,-0.3884747624397278,-1.557722568511963,-0.6925805807113647
1780626542375504400,7.92550439453125,-0.3347279131412506,-1.332666039466858,-0.9671144485473633
1780626542385499400,7.93549951171875,-0.25180959701538086,-0.9095888137817383,-1.1470961570739746
1780626542395494400,7.945494384765625,-0.1441768854856491,-0.3503231406211853,-1.2019774913787842
1780626542405489400,7.955489501953125,-0.05585341155529022,0.21575039625167847,-1.1365004777908325
1780626542415484400,7.965484375,-0.010881409980356693,0.6249663829803467,-0.9960808157920837
1780626542425479400,7.9754794921875,0.030171217396855354,0.8034370541572571,-0.8421272039413452
1780626542435474700,7.985474609375,0.05116624757647514,0.831229567527771,-0.7240274548530579
1780626542445469700,7.9954697265625,0.04687216877937317,0.7829115390777588,-0.6838576793670654
1780626542455465500,8.005465576171876,0.06076561287045479,0.7668098211288452,-0.7724682688713074
1780626542465460500,8.01546044921875,0.10986098647117615,0.7778531312942505,-0.971255362033844
1780626542475455500,8.02545556640625,0.16196759045124054,0.712357759475708,-1.2330318689346313
1780626542485450500,8.035450439453125,0.1969894915819168,0.5477006435394287,-1.4834028482437134
1780626542495445500,8.045445556640624,0.23122017085552216,0.3211013376712799,-1.6709392070770264
1780626542505440500,8.0554404296875,0.262185275554657,0.070775106549263,-1.776641607284546
1780626542515435500,8.065435546875,0.30859431624412537,-0.11461605876684189,-1.8254847526550293
1780626542525430800,8.0754306640625,0.35831448435783386,-0.14532470703125,-1.8568304777145386
1780626542535425500,8.085425537109375,0.4060630798339844,-0.08057153970003128,-1.912550449371338
1780626542545420500,8.095420654296875,0.4854833483695984,0.054236073046922684,-1.9975957870483398
1780626542555415600,8.10541552734375,0.5768348574638367,0.2443263828754425,-2.0668888092041016
1780626542565410600,8.11541064453125,0.6275712251663208,0.38464248180389404,-2.0620429515838623
1780626542575405800,8.12540576171875,0.5848757028579712,0.408782958984375,-2.0026443004608154
1780626542585400800,8.13540087890625,0.6532531976699829,0.5226961970329285,-1.9171236753463745
1780626542595395800,8.145395751953124,0.7467399835586548,0.677170991897583,-1.877954363822937
1780626542605390800,8.155390869140625,0.7773066759109497,0.7818548083305359,-1.9337137937545776
1780626542615385900,8.1653857421875,0.7449604272842407,0.7942901849746704,-2.0629055500030518
1780626542625381600,8.175381591796874,0.6512289047241211,0.625981867313385,-2.18711256980896
1780626542635376600,8.185376708984375,0.5370879769325256,0.3070576786994934,-2.301588535308838
1780626542645371600,8.19537158203125,0.47834262251853943,0.05974322557449341,-2.385725259780884
1780626542655366700,8.20536669921875,0.4789958894252777,0.020963072776794434,-2.4533936977386475
1780626542665361700,8.215361572265625,0.5250020027160645,0.02556927502155304,-2.528660535812378
1780626542675356700,8.225356689453125,0.5867364406585693,-0.07426091283559799,-2.622445821762085
1780626542685351700,8.2353515625,0.6583976149559021,-0.16187278926372528,-2.7420573234558105
1780626542695347000,8.245346923828125,0.7224439382553101,-0.1738961637020111,-2.886077880859375
1780626542705341700,8.255341796875,0.7724735736846924,-0.26711025834083557,-2.996872901916504
1780626542715336700,8.265336669921876,0.8180440068244934,-0.4303942620754242,-3.051478147506714
1780626542725331700,8.275331787109375,0.8735618591308594,-0.5208882093429565,-3.040889024734497
1780626542735326700,8.28532666015625,0.9456722736358643,-0.4390724301338196,-2.9515016078948975
1780626542745321700,8.29532177734375,0.9948440790176392,-0.11590369790792465,-2.8180530071258545
1780626542755316700,8.305316650390624,1.009057879447937,0.21171997487545013,-2.7284650802612305
1780626542765311700,8.315311767578125,1.0046367645263672,0.24094656109809875,-2.7692487239837646
1780626542775306800,8.325306640625,1.0734124183654785,0.031685490161180496,-2.976499080657959
1780626542785301800,8.3353017578125,1.1568495035171509,-0.2604321241378784,-3.2254276275634766
1780626542795297500,8.345297607421875,1.2183150053024292,-0.41695940494537354,-3.319594144821167
1780626542805292500,8.35529248046875,1.2114170789718628,-0.3741339147090912,-3.2286434173583984
1780626542815287800,8.365287841796874,1.1638517379760742,-0.18394826352596283,-3.030068874359131
1780626542825282800,8.37528271484375,1.1595795154571533,0.036438167095184326,-2.816617727279663
1780626542835277800,8.38527783203125,1.2263292074203491,0.17140530049800873,-2.678288459777832
1780626542845272800,8.39527294921875,1.3079566955566406,0.21435783803462982,-2.6549715995788574
1780626542855267800,8.405267822265625,1.3636561632156372,0.06930849701166153,-2.6957149505615234
1780626542865262800,8.415262939453125,1.3565644025802612,-0.33504030108451843,-2.8040401935577393
1780626542875257900,8.4252578125,1.2971551418304443,-0.7862189412117004,-2.9218266010284424
1780626542885252600,8.435252685546875,1.2174140214920044,-1.0018963813781738,-2.9293360710144043
1780626542895247600,8.44524755859375,1.1559079885482788,-1.0647085905075073,-2.8447511196136475
1780626542905242600,8.45524267578125,1.096177577972412,-0.9942027926445007,-2.6900475025177
1780626542915237600,8.465237548828124,1.0519427061080933,-0.7326247096061707,-2.4550087451934814
1780626542925232600,8.475232666015625,1.0347057580947876,-0.4537901282310486,-2.188140869140625
1780626542935227600,8.4852275390625,1.043582558631897,-0.30535218119621277,-1.9597994089126587
1780626542945222700,8.49522265625,1.0307419300079346,-0.38378122448921204,-1.8198658227920532
1780626542955218000,8.505218017578125,0.9603318572044373,-0.5573471188545227,-1.7486672401428223
1780626542965213700,8.515213623046876,0.8412265181541443,-0.5852392315864563,-1.6599518060684204
1780626542975208700,8.525208740234374,0.7316984534263611,-0.5388967394828796,-1.539181113243103
1780626542985203700,8.53520361328125,0.621571958065033,-0.49074894189834595,-1.3900099992752075
1780626542995198700,8.54519873046875,0.5076816082000732,-0.36585867404937744,-1.2330385446548462
1780626543005193700,8.55519384765625,0.42719900608062744,-0.35256338119506836,-1.1080875396728516
1780626543015188700,8.565188720703125,0.35041821002960205,-0.2892336845397949,-1.0418171882629395
1780626543025183700,8.575183837890625,0.2592792510986328,-0.2409052848815918,-0.973199188709259
1780626543035178800,8.5851787109375,0.09921766072511673,-0.15052080154418945,-0.8588417768478394
1780626543045173800,8.595173828125,-0.06298748403787613,-0.028268922120332718,-0.7750134468078613
1780626543055168500,8.60516845703125,-0.2179190069437027,-0.10575252771377563,-0.8389673829078674
1780626543065163500,8.61516357421875,-0.3722321391105652,-0.27696794271469116,-0.9556862711906433
1780626543075158800,8.62515869140625,-0.5718989372253418,-0.3899187445640564,-0.9839394688606262
1780626543085153800,8.63515380859375,-0.8077601790428162,-0.2989310324192047,-0.9281116127967834
1780626543095148800,8.645148681640626,-0.9480472803115845,-0.31544238328933716,-0.8344341516494751
1780626543105143800,8.655143798828124,-0.9255997538566589,-0.4450696110725403,-0.8090654015541077
1780626543115138800,8.665138916015625,-0.7842031717300415,-0.5962774753570557,-0.8317843079566956
1780626543125134600,8.675134521484376,-0.607222855091095,-0.7214335799217224,-0.9092109203338623
1780626543135129600,8.685129638671874,-0.48703330755233765,-0.5672418475151062,-1.0359039306640625
1780626543145124600,8.69512451171875,-0.5036415457725525,-0.36283811926841736,-1.0202990770339966
1780626543155119600,8.70511962890625,-0.6397432088851929,-0.3195987641811371,-0.9014477729797363
1780626543165114600,8.715114501953124,-0.7478010058403015,-0.2964591085910797,-0.7917018532752991
1780626543175109600,8.725109619140625,-0.7892994284629822,-0.09599337726831436,-0.7803823351860046
1780626543185104600,8.735104736328125,-0.826967179775238,0.30987849831581116,-0.7694730162620544
1780626543195100000,8.745099853515624,-0.8810256123542786,0.5036476850509644,-0.6304320096969604
1780626543205095000,8.755094970703125,-0.9222255349159241,0.36384478211402893,-0.5344010591506958
1780626543215090000,8.76508984375,-0.8831720948219299,0.22218219935894012,-0.5666439533233643
1780626543225084700,8.775084716796876,-0.7765857577323914,0.1276085525751114,-0.6660099625587463
1780626543235079700,8.78507958984375,-0.6889964938163757,0.2040090560913086,-0.6581704020500183
1780626543245074700,8.79507470703125,-0.6722012758255005,0.18720318377017975,-0.5580376982688904
1780626543255069700,8.805069580078126,-0.6849205493927002,0.21547050774097443,-0.5112624764442444
1780626543265064700,8.815064697265624,-0.7077808380126953,0.3708265423774719,-0.5311546921730042
1780626543275059700,8.825059814453125,-0.771316409111023,0.4198875427246094,-0.5623051524162292
1780626543285055700,8.8350556640625,-0.8411554098129272,0.3242843449115753,-0.5632383227348328
1780626543295050500,8.845050537109374,-0.8961156010627747,0.21696560084819794,-0.5256645679473877
1780626543305045800,8.855045654296875,-0.9314845204353333,0.23636353015899658,-0.4705400764942169
1780626543315040800,8.865040771484376,-0.915215015411377,0.3463054895401001,-0.38302406668663025
1780626543325035800,8.875035888671874,-0.8460002541542053,0.5789285898208618,-0.2741820216178894
1780626543335030800,8.88503076171875,-0.7550863027572632,0.8603919744491577,-0.21157696843147278
1780626543345025800,8.89502587890625,-0.7086479663848877,0.9544873237609863,-0.15936462581157684
1780626543355020800,8.905020751953124,-0.7267449498176575,0.9154973030090332,-0.1039961725473404
1780626543365015800,8.915015869140625,-0.7843078374862671,0.8524131178855896,-0.018086325377225876
1780626543375010800,8.9250107421875,-0.8388581871986389,0.8205018043518066,0.10622870177030563
1780626543385005800,8.935005859375,-0.8914945125579834,0.8023896813392639,0.23535792529582977
1780626543395000600,8.94500048828125,-0.9356254935264587,0.7983315587043762,0.31367990374565125
1780626543404995600,8.95499560546875,-0.9641508460044861,0.7976295351982117,0.2800215184688568
1780626543414990600,8.964990478515626,-0.9175570011138916,0.7416296601295471,0.03642645105719566
1780626543424985600,8.974985595703124,-0.7965104579925537,0.5364916920661926,-0.41386082768440247
1780626543434982000,8.98498193359375,-0.6264463067054749,0.18904902040958405,-0.8350924849510193
1780626543444977000,8.994976806640626,-0.46926549077033997,-0.09133017808198929,-0.9958012104034424
1780626543454972000,9.004971923828125,-0.37057140469551086,-0.018881812691688538,-0.7913482189178467
1780626543464966700,9.014966552734375,-0.2982069253921509,0.6162943243980408,-0.33834874629974365
1780626543474961700,9.024961669921876,-0.19859512150287628,1.5481187105178833,0.14662805199623108
1780626543484956700,9.034956787109374,-0.012764531187713146,2.259986639022827,0.5054847598075867
1780626543494951700,9.04495166015625,0.2541201710700989,2.2592875957489014,0.567176342010498
1780626543504946700,9.05494677734375,0.5371587872505188,1.6782474517822266,0.3553796708583832
1780626543514941700,9.064941650390624,0.4972563683986664,0.8996880054473877,0.0011459582019597292
1780626543524936700,9.074936767578125,0.0972282811999321,0.38816237449645996,-0.32979387044906616
1780626543534931700,9.084931640625,-0.2835204005241394,0.07007362693548203,-0.47046923637390137
1780626543544926700,9.0949267578125,-0.3840981423854828,-0.07462070882320404,-0.4295939803123474
1780626543554921700,9.104921630859375,-0.20479042828083038,0.05643344670534134,-0.3288910686969757
1780626543564916700,9.114916748046875,0.07143557071685791,0.2372487634420395,-0.2547806203365326
1780626543574911700,9.124911865234376,0.28904539346694946,0.29810306429862976,-0.22434201836585999
1780626543584906800,9.13490673828125,0.4228399395942688,0.23228171467781067,-0.19286958873271942
1780626543594902800,9.14490283203125,0.45631906390190125,0.0956152081489563,-0.09074055403470993
1780626543604897800,9.154897705078126,0.4372495114803314,0.1394934505224228,0.04212694615125656
1780626543614892800,9.164892822265625,0.39140719175338745,0.2724171280860901,0.08589200675487518
1780626543624887800,9.1748876953125,0.33555030822753906,0.17713004350662231,0.06082873046398163
1780626543634882800,9.1848828125,0.2498769462108612,-0.05778153985738754,-0.04775846749544144
1780626543644877600,9.194877685546874,0.1435459852218628,-0.15074770152568817,-0.2262435257434845
1780626543654872600,9.20487255859375,0.07123556733131409,-0.1307833194732666,-0.33442750573158264
1780626543664867600,9.21486767578125,0.08662224560976028,0.004673847462981939,-0.3012631833553314
1780626543674862600,9.224862548828124,0.16282247006893158,0.15384867787361145,-0.2586062550544739
1780626543684857600,9.234857666015625,0.23287133872509003,0.25124502182006836,-0.21711313724517822
1780626543694852900,9.244852783203125,0.24872219562530518,0.31903496384620667,-0.13363662362098694
1780626543704848000,9.254847900390626,0.23690947890281677,0.35054096579551697,-0.09116799384355545
1780626543714843000,9.2648427734375,0.19354523718357086,0.4155591130256653,-0.0718318447470665
1780626543724838000,9.274837890625,0.0896151065826416,0.4781780242919922,-0.028191957622766495
1780626543734832600,9.28483251953125,-0.00006870955257909372,0.4311985373497009,-0.0952165275812149
1780626543744828700,9.29482861328125,-0.018037589266896248,0.4450243413448334,-0.19575458765029907
1780626543754823700,9.30482373046875,-0.006381200160831213,0.40017908811569214,-0.26750999689102173
1780626543764818700,9.314818603515626,0.031308919191360474,0.23327000439167023,-0.3120660185813904
1780626543774813700,9.324813720703125,0.09506606310606003,0.22232787311077118,-0.29709744453430176
1780626543784808700,9.33480859375,0.12711241841316223,0.303800106048584,-0.27055373787879944
1780626543794803700,9.3448037109375,0.13075481355190277,0.37252697348594666,-0.2880893051624298
1780626543804798700,9.354798828125,0.09868369996547699,0.5461744070053101,-0.24559645354747772
1780626543814793700,9.364793701171875,0.020715665072202682,0.5983656644821167,-0.1108010858297348
1780626543824788700,9.374788818359375,-0.04116128385066986,0.6341822743415833,-0.08755674958229065
1780626543834783700,9.38478369140625,-0.0700768232345581,0.7567489147186279,-0.09232327342033386
1780626543844778800,9.39477880859375,-0.10669395327568054,0.7840641736984253,-0.10796694457530975
1780626543854773800,9.404773681640625,-0.10066962242126465,0.6493023633956909,-0.1536683887243271
1780626543864768800,9.414768798828124,-0.09015466272830963,0.6008853316307068,-0.1150064766407013
1780626543874763800,9.424763671875,-0.0787038654088974,0.6461625099182129,-0.1401539146900177
1780626543884758800,9.4347587890625,-0.0908215120434761,0.7287188768386841,-0.14014166593551636
1780626543894754600,9.444754638671874,-0.13151994347572327,0.8068959712982178,-0.06544452160596848
1780626543904749600,9.45474951171875,-0.14088095724582672,0.8938431143760681,-0.04853850603103638
1780626543914744600,9.46474462890625,-0.13795946538448334,0.9379903674125671,-0.05988170951604843
1780626543924739800,9.47473974609375,-0.15604951977729797,0.9210478663444519,-0.10553068667650223
1780626543934734800,9.48473486328125,-0.1849498748779297,0.8020336031913757,-0.1675754189491272
1780626543944729900,9.494729736328125,-0.22242002189159393,0.671486496925354,-0.15511953830718994
1780626543954724900,9.504724853515626,-0.2845912575721741,0.5752094984054565,-0.13234952092170715
1780626543964719900,9.514719970703124,-0.3224624693393707,0.44723448157310486,-0.1424732655286789
1780626543974715000,9.52471484375,-0.3757816255092621,0.41779112815856934,-0.13524703681468964
1780626543984709600,9.534709716796876,-0.3955731689929962,0.33816924691200256,-0.1591861993074417
1780626543994704600,9.54470458984375,-0.34857237339019775,0.4042643904685974,-0.24910277128219604
1780626544004699600,9.55469970703125,-0.30138513445854187,0.6661362051963806,-0.1634613573551178
1780626544014694700,9.564694580078125,-0.25959667563438416,0.9082673788070679,-0.06286658346652985
1780626544024689700,9.574689697265624,-0.2788156569004059,0.969603955745697,-0.024955417960882187
1780626544034684700,9.5846845703125,-0.36265116930007935,0.9398178458213806,0.07053302228450775
1780626544044681000,9.594680908203125,-0.4522058069705963,0.8858592510223389,0.11527758836746216
1780626544054675700,9.60467578125,-0.5009677410125732,0.7180691957473755,0.10501669347286224
1780626544064670700,9.614670654296875,-0.5227460265159607,0.5494964122772217,0.0927957147359848
1780626544074665700,9.624665771484375,-0.5409117341041565,0.4254285395145416,0.050985950976610184
1780626544084660700,9.63466064453125,-0.5308332443237305,0.3558846116065979,0.06167934462428093
1780626544094655700,9.64465576171875,-0.4927535057067871,0.5344703197479248,0.12504500150680542
1780626544104650800,9.654650634765625,-0.4038955271244049,0.7517877221107483,0.14370682835578918
1780626544114645800,9.664645751953126,-0.4032750129699707,0.7529911994934082,0.15612702071666718
1780626544124640800,9.674640869140624,-0.539009690284729,0.5905988216400146,0.10458233207464218
1780626544134635800,9.6846357421875,-0.6502496600151062,0.5306345820426941,0.14412415027618408
1780626544144630800,9.694630859375,-0.6756980419158936,0.6827817559242249,0.21873873472213745
1780626544154625500,9.70462548828125,-0.6418787837028503,0.8225843906402588,0.36321282386779785
1780626544164620500,9.71462060546875,-0.5936822295188904,0.7761899828910828,0.3732992708683014
1780626544174615600,9.724615478515625,-0.5539106130599976,0.7788004279136658,0.4090266525745392
1780626544184610600,9.734610595703124,-0.5137408375740051,0.8737799525260925,0.4939388930797577
1780626544194606800,9.74460693359375,-0.5559177994728088,0.8917410969734192,0.45291393995285034
1780626544204601900,9.754601806640625,-0.6982243657112122,0.8592582941055298,0.5128270983695984
1780626544214596900,9.764596923828124,-0.8586132526397705,0.9698390960693359,0.5554075837135315
1780626544224591600,9.774591552734375,-0.9594008326530457,0.7744176983833313,0.41860443353652954
1780626544234586600,9.784586669921875,-1.0483661890029907,0.7120389938354492,0.39004072546958923
1780626544244581600,9.79458154296875,-1.119432806968689,0.768022894859314,0.2572174072265625
1780626544254576600,9.80457666015625,-1.1302995681762695,0.6431515216827393,0.07387076318264008
1780626544264571600,9.814571533203125,-1.095802664756775,0.6548973917961121,0.03513241931796074
1780626544274566700,9.824566650390626,-1.0438132286071777,0.7636654376983643,-0.01369077805429697
1780626544284561700,9.834561767578125,-0.9761912822723389,0.7916925549507141,0.029684925451874733
1780626544294556700,9.844556640625,-0.9451494812965393,0.8388217091560364,0.14536331593990326
1780626544304552000,9.854552001953126,-0.9648757576942444,0.6260766983032227,0.19079391658306122
1780626544314547000,9.864546875,-0.964076578617096,0.603644847869873,0.36919987201690674
1780626544324541700,9.874541748046875,-0.8863149285316467,0.7497453689575195,0.5842032432556152
1780626544334537700,9.884537841796876,-0.7409515976905823,0.8888073563575745,0.7312906980514526
1780626544344532700,9.89453271484375,-0.5826777815818787,0.9233720302581787,0.7611319422721863
1780626544354527700,9.90452783203125,-0.4894282817840576,0.5585823059082031,0.48691320419311523
1780626544364522800,9.914522705078125,-0.4722554087638855,0.20044495165348053,0.23169900476932526
1780626544374517800,9.924517822265624,-0.5500977635383606,0.15431900322437286,0.14115552604198456
1780626544384512800,9.9345126953125,-0.6545581221580505,0.2625112533569336,0.03396143019199371
1780626544394507500,9.944507568359375,-0.7435585856437683,0.38273513317108154,-0.010337592102587223
1780626544404502500,9.95450244140625,-0.7685872316360474,0.29311442375183105,-0.12270354479551315
1780626544414497500,9.96449755859375,-0.6690414547920227,0.24358096718788147,-0.16901113092899323
1780626544424492800,9.974492919921875,-0.5087285041809082,0.36495107412338257,-0.08268050104379654
1780626544434487800,9.98448779296875,-0.33974266052246094,0.3001883327960968,-0.09405086189508438
1780626544444482800,9.99448291015625,-0.2129516899585724,0.4741808772087097,0.044798363000154495
1780626544454477800,10.004477783203125,-0.09108597040176392,0.8209332227706909,0.41108235716819763
1780626544464472800,10.014472900390626,0.057131994515657425,1.036258578300476,0.6780751347541809
1780626544474467800,10.0244677734375,0.2346244901418686,0.9286197423934937,0.5823971033096313
1780626544484463600,10.034463623046875,0.42679232358932495,0.723422646522522,0.5816239714622498
1780626544494458600,10.044458740234376,0.5856863856315613,0.3004876673221588,0.4159940183162689
1780626544504453600,10.05445361328125,0.7016872763633728,-0.006475209724158049,0.1805812269449234
1780626544514448600,10.06444873046875,0.7544103860855103,-0.008100270293653011,0.2092762589454651
1780626544524443100,10.074443115234375,0.6888993382453918,0.004673847462981939,0.2871284484863281
1780626544534438400,10.0844384765625,0.46902206540107727,0.20229531824588776,0.4433057904243469
1780626544544433400,10.094433349609375,0.15584765374660492,0.48345667123794556,0.6381381154060364
1780626544554428400,10.104428466796875,-0.13835974037647247,0.8870507478713989,0.9781316518783569
1780626544564423400,10.11442333984375,-0.29124462604522705,1.0854592323303223,1.2251970767974854
1780626544574418400,10.12441845703125,-0.09051711857318878,0.5900565981864929,0.9712311625480652
1780626544584413200,10.1344130859375,0.23550306260585785,0.08038698136806488,0.7104229927062988
1780626544594408200,10.144408203125,0.4557185173034668,-0.460257351398468,0.38626807928085327
1780626544604403200,10.1544033203125,0.5273277163505554,-0.7662159204483032,0.14786961674690247
1780626544614398200,10.164398193359375,0.42866215109825134,-0.8134862780570984,0.03377101197838783
1780626544624394200,10.174394287109376,0.1684609204530716,-0.4620318114757538,-0.005665342323482037
1780626544634389200,10.18438916015625,-0.18396557867527008,-0.16386589407920837,0.12525805830955505
1780626544644384500,10.194384521484375,-0.5353648662567139,0.20546793937683105,0.34635260701179504
1780626544654379300,10.204379150390626,-0.7124925255775452,0.8471278548240662,0.8243828415870667
1780626544664374300,10.214374267578124,-0.7184995412826538,0.6398151516914368,0.5010101199150085
1780626544674369300,10.224369384765625,-0.5860363245010376,0.5309333801269531,0.12230407446622849
1780626544684364300,10.2343642578125,-0.39440110325813293,0.2980937361717224,-0.03193769231438637
1780626544694359300,10.244359375,-0.16927264630794525,-0.202949658036232,-0.1570119857788086
1780626544704354300,10.254354248046875,-0.03123302012681961,-0.6994699239730835,-0.29948151111602783
1780626544714349300,10.264349365234375,-0.08138273656368256,-0.6093235015869141,-0.3146468997001648
1780626544724344300,10.27434423828125,-0.24978932738304138,0.02754880301654339,-0.14870984852313995
1780626544734339300,10.28433935546875,-0.44845661520957947,0.6140705943107605,0.08830003440380096
1780626544744334300,10.294334228515625,-0.6419627070426941,0.7493323087692261,0.19599559903144836
1780626544754329000,10.3043291015625,-0.7809607982635498,1.0443087816238403,0.4453399181365967
1780626544764324000,10.314323974609374,-0.856849730014801,0.9681376218795776,0.6334350109100342
1780626544774320400,10.3243203125,-0.9380303025245667,0.19407999515533447,0.21994967758655548
1780626544784315400,10.3343154296875,-0.9740031957626343,0.24395674467086792,0.25163543224334717
1780626544794310400,10.344310302734375,-0.975142776966095,0.23937156796455383,0.49282780289649963
1780626544804305400,10.354305419921875,-0.9214340448379517,-0.3107035458087921,0.41819190979003906
1780626544814300400,10.364300537109376,-0.8039494752883911,-0.9770746231079102,-0.06984405964612961
1780626544824295200,10.374295166015624,-0.6852883100509644,-0.9309931993484497,-0.34454992413520813
1780626544834290200,10.384290283203125,-0.6144695281982422,-0.7500039339065552,-0.4967501163482666
1780626544844285200,10.39428515625,-0.6007025837898254,-0.5496439337730408,-0.4751500189304352
1780626544854280200,10.4042802734375,-0.6481140851974487,-0.14979961514472961,-0.2655549645423889
1780626544864275200,10.414275146484375,-0.7425639033317566,0.3487100601196289,-0.05217079445719719
1780626544874270200,10.424270263671875,-0.8374413847923279,0.9007796049118042,0.311795711517334
1780626544884265200,10.43426513671875,-0.8695052862167358,1.1852251291275024,0.43694964051246643
1780626544894260200,10.44426025390625,-0.883378267288208,1.1852446794509888,0.4915151298046112
1780626544904256300,10.45425634765625,-0.8913323283195496,0.838844895362854,0.5771032571792603
1780626544914251300,10.464251220703124,-0.8770468235015869,0.5779927968978882,0.526617705821991
1780626544924246300,10.474246337890625,-0.7854860424995422,0.4471982717514038,0.3591427206993103
1780626544934241300,10.4842412109375,-0.6169151067733765,0.07082676887512207,0.12646766006946564
1780626544944236300,10.494236328125,-0.45321327447891235,0.03858707472681999,0.24205072224140167
1780626544954231300,10.504231201171875,-0.347137987613678,0.40212613344192505,0.45525646209716797
1780626544964226300,10.514226318359375,-0.2744653820991516,0.46104884147644043,0.44747790694236755
1780626544974221300,10.52422119140625,-0.2773948609828949,0.24312317371368408,0.4356292486190796
1780626544984216300,10.53421630859375,-0.36141839623451233,0.13221102952957153,0.5247556567192078
1780626544994211000,10.544211181640625,-0.3933131992816925,0.08843692392110825,0.5433908700942993
1780626545004206000,10.5542060546875,-0.33314812183380127,0.30653461813926697,0.6352009177207947
1780626545014201000,10.564201171875,-0.21099425852298737,0.23136025667190552,0.6479436159133911
1780626545024196000,10.574196044921875,-0.11664965003728867,0.09126599878072739,0.7272672057151794
1780626545034191400,10.58419140625,-0.025553297251462936,-0.27108901739120483,0.7147839069366455
1780626545044187400,10.5941875,0.09995642304420471,-0.745896577835083,0.5643975734710693
1780626545054182400,10.604182373046875,0.163479745388031,-0.46359720826148987,0.6301769018173218
1780626545064177200,10.61417724609375,0.17494571208953857,0.07745350897312164,0.7674604654312134
1780626545074172200,10.624172119140624,0.22623100876808167,0.349525511264801,0.765102744102478
1780626545084167200,10.634167236328125,0.32480764389038086,0.17281465232372284,0.5803192853927612
1780626545094162200,10.644162109375,0.441808819770813,-0.09879395365715027,0.3832504451274872
1780626545104157200,10.6541572265625,0.514509916305542,-0.31109315156936646,0.26115357875823975
1780626545114152200,10.664152099609375,0.3936338424682617,-0.3655281662940979,0.2876048982143402
1780626545124147200,10.674147216796875,0.13015080988407135,-0.09661389142274857,0.5320726633071899
1780626545134142200,10.68414208984375,-0.022480009123682976,0.14594389498233795,0.8197335004806519
1780626545144137500,10.694137451171875,-0.015752598643302917,0.18646201491355896,0.8609901070594788
1780626545154132500,10.704132568359375,0.016589362174272537,0.3334791660308838,0.8802183866500854
1780626545164127200,10.714127197265626,0.049678340554237366,0.271446168422699,0.85161954164505
1780626545174122200,10.724122314453124,0.1360401213169098,-0.011531487107276917,0.5653675198554993
1780626545184118300,10.7341181640625,0.23525673151016235,-0.46811607480049133,0.0012096078135073185
1780626545194113300,10.74411328125,0.3355058431625366,-0.6919363737106323,-0.26099058985710144
1780626545204108300,10.7541083984375,0.3811793029308319,-0.2634473443031311,-0.015847405418753624
1780626545214103300,10.764103271484375,0.3786548972129822,0.14305569231510162,0.116988405585289
1780626545224098300,10.774098388671876,0.4012739360332489,0.21882128715515137,-0.09908317029476166
1780626545234093300,10.78409326171875,0.48201724886894226,0.47561073303222656,-0.11300591379404068
1780626545244088000,10.794088134765625,0.5203739404678345,0.680899977684021,-0.05207172408699989
1780626545254083000,10.8040830078125,0.4949988126754761,0.4695368707180023,-0.1934078186750412
1780626545264078300,10.814078369140624,0.4873182475566864,0.1456402838230133,-0.4002440869808197
1780626545274073300,10.8240732421875,0.4770009219646454,-0.09377522766590118,-0.5834797024726868
1780626545284068400,10.834068359375,0.4306560456752777,-0.1882210373878479,-0.6063096523284912
1780626545294063400,10.8440634765625,0.34680694341659546,-0.004288488067686558,-0.42815959453582764
1780626545304058400,10.854058349609375,0.24548672139644623,0.3134489953517914,-0.2637597322463989
1780626545314054100,10.86405419921875,0.1634288728237152,0.5960116982460022,-0.11310657858848572
1780626545324049200,10.874049072265626,0.079051673412323,0.5706456303596497,-0.03357553854584694
1780626545334044200,10.884044189453125,0.07722767442464828,-0.058872904628515244,-0.2560970187187195
1780626545344039200,10.8940390625,0.05553782731294632,-0.4140051603317261,-0.43083715438842773
1780626545354034200,10.9040341796875,-0.05323871970176697,-0.3392568826675415,-0.3863154947757721
1780626545364029200,10.914029296875,-0.08669361472129822,-0.21143688261508942,-0.3788711428642273
1780626545374024200,10.924024169921875,-0.010381001979112625,-0.022579610347747803,-0.41435056924819946
1780626545384019500,10.93401953125,0.06537900865077972,0.1884727030992508,-0.4189080595970154
1780626545394014500,10.944014404296874,0.04981682449579239,0.1565248966217041,-0.40859949588775635
1780626545404009200,10.95400927734375,0.0067844027653336525,-0.043837230652570724,-0.4406370520591736
1780626545414004200,10.964004150390625,0.0014018879737704992,-0.32619380950927734,-0.5742371678352356
1780626545423999200,10.973999267578124,-0.03249029815196991,-0.4515860974788666,-0.7171493172645569
1780626545433994200,10.983994140625,-0.1196475699543953,-0.29456666111946106,-0.6173625588417053
1780626545443989200,10.9939892578125,-0.19101576507091522,-0.03371215611696243,-0.4103816747665405
1780626545453985300,11.0039853515625,-0.23101110756397247,0.3359391391277313,-0.1971285194158554
1780626545463980300,11.013980224609375,-0.24203899502754211,0.3888569474220276,-0.062378156930208206
1780626545473975300,11.023975341796875,-0.23440665006637573,0.3014213740825653,0.028551483526825905
1780626545483970000,11.033969970703126,-0.21509526669979095,0.3389434516429901,0.14875006675720215
1780626545493965000,11.043965087890625,-0.15440475940704346,0.20048436522483826,0.10441695153713226
1780626545503960300,11.053960205078125,-0.0773288756608963,0.010588728822767735,0.014355769380927086
1780626545513955300,11.063955322265626,-0.03801769018173218,-0.15033304691314697,-0.0302622988820076
1780626545523949800,11.07394970703125,-0.0006388923502527177,-0.5904989838600159,-0.3121650815010071
1780626545533944800,11.08394482421875,0.054606519639492035,-0.9863155484199524,-0.640852689743042
1780626545543939800,11.09393994140625,0.05782228708267212,-1.3061169385910034,-0.8551931977272034
1780626545553934800,11.103934814453124,0.00865980051457882,-1.6281163692474365,-0.9645167589187622
1780626545563929900,11.113929931640625,-0.09212007373571396,-1.7454266548156738,-1.0302002429962158
1780626545573924900,11.1239248046875,-0.2013578861951828,-1.6729586124420166,-1.0462007522583008
1780626545583920600,11.133920654296874,-0.19066475331783295,-1.3070852756500244,-1.163949728012085
1780626545593915600,11.14391552734375,0.08333723247051239,-0.9205802083015442,-1.262041687965393
1780626545603910700,11.15391064453125,0.5857241749763489,-0.8090446591377258,-1.0433231592178345
1780626545613905700,11.16390576171875,1.0884621143341064,0.3623259961605072,-1.2834196090698242
1780626545623900700,11.173900634765625,1.5845658779144287,1.8389265537261963,-1.7239317893981934
1780626545633896000,11.18389599609375,1.9286969900131226,1.9504696130752563,-1.6720848083496094
1780626545643891000,11.193890869140626,1.9781358242034912,1.5420794486999512,-1.6232105493545532
1780626545653886000,11.203885986328125,1.8020247220993042,1.4455331563949585,-1.696165919303894
1780626545663880700,11.213880615234375,1.5149685144424438,1.5994311571121216,-1.7935223579406738
1780626545673875700,11.223875732421876,1.1325888633728027,1.3706754446029663,-1.772729754447937
1780626545683870700,11.23387060546875,0.6672539114952087,0.8462846875190735,-1.648026704788208
1780626545693865700,11.24386572265625,0.264120876789093,0.49450960755348206,-1.4765020608901978
1780626545703860700,11.25386083984375,0.16988225281238556,0.4613284766674042,-1.4896348714828491
1780626545713856800,11.263856689453124,0.3279075622558594,0.2807379364967346,-1.7331095933914185
1780626545723851800,11.273851806640625,0.4686005115509033,-0.4155932068824768,-1.9707973003387451
1780626545733846800,11.2838466796875,0.4777167737483978,-0.7904528379440308,-2.1696715354919434
1780626545743841500,11.293841552734374,0.27431729435920715,-0.47384345531463623,-2.1654269695281982
1780626545753836800,11.3038369140625,-0.09465886652469635,0.0874190628528595,-1.8840373754501343
1780626545763831800,11.313831787109375,-0.26676565408706665,0.6568188667297363,-1.597299337387085
1780626545773826800,11.323826904296874,-0.23176665604114532,0.9708444476127625,-1.5469751358032227
1780626545783821800,11.33382177734375,-0.07991907000541687,0.7119156718254089,-1.6730196475982666
1780626545793816800,11.34381689453125,0.09207986295223236,-0.04375067725777626,-1.92532217502594
1780626545803811800,11.353811767578126,0.1845914125442505,-0.4418860673904419,-2.0137698650360107
1780626545813806800,11.363806884765625,0.2739444673061371,0.1888173222541809,-1.8432410955429077
1780626545823801900,11.3738017578125,0.31688767671585083,0.8537194132804871,-1.4077908992767334
1780626545833796900,11.383796875,0.2927197515964508,0.8045780062675476,-1.100192904472351
1780626545843792600,11.393792724609375,0.2713785171508789,0.48513951897621155,-1.349022388458252
1780626545853787600,11.40378759765625,0.2749391496181488,0.21156658232212067,-1.5287367105484009
1780626545863783000,11.413782958984376,0.20866665244102478,0.24037319421768188,-1.3775352239608765
1780626545873778000,11.42377783203125,0.0846610888838768,0.29027628898620605,-1.191435694694519
1780626545883773000,11.43377294921875,-0.030367493629455566,0.138284370303154,-1.1134519577026367
1780626545893768000,11.443767822265626,-0.13203074038028717,-0.25790849328041077,-1.1036051511764526
1780626545903763000,11.453762939453124,-0.16539907455444336,-0.5671917796134949,-1.033853530883789
1780626545913757700,11.4637578125,-0.09717874974012375,-0.47244369983673096,-0.8283296227455139
1780626545923752700,11.473752685546875,0.007245928514748812,-0.11614871025085449,-0.5219625234603882
1780626545933747700,11.483747802734374,0.14098481833934784,0.2183981090784073,-0.30322617292404175
1780626545943742700,11.49374267578125,0.30131325125694275,0.4611572325229645,-0.38880661129951477
1780626545953737700,11.50373779296875,0.398464560508728,0.3983636200428009,-0.5872155427932739
1780626545963732700,11.513732666015626,0.38387709856033325,0.12884452939033508,-0.8380120992660522
1780626545973728800,11.523728759765625,0.3027969002723694,0.051291950047016144,-1.07453191280365
1780626545983723800,11.533723876953125,0.25683578848838806,-0.025560220703482628,-1.1654131412506104
1780626545993718800,11.54371875,0.3226563334465027,-0.2765354514122009,-1.1737350225448608
1780626546003713800,11.5537138671875,0.4112165570259094,-0.3138383626937866,-1.0745540857315063
1780626546013708800,11.563708740234375,0.4678385555744171,-0.017646105960011482,-0.8418819308280945
1780626546023703800,11.573703857421876,0.5178428888320923,0.26474884152412415,-0.5840346813201904
1780626546033698800,11.58369873046875,0.5346007943153381,0.4120216369628906,-0.4599558711051941
1780626546043693800,11.59369384765625,0.4078404903411865,0.1625891774892807,-0.383487731218338
1780626546053688800,11.603688720703126,0.220473513007164,-0.2541811466217041,-0.43571633100509644
1780626546063683800,11.613683837890624,0.037037912756204605,-0.5500532984733582,-0.5149424076080322
1780626546073678800,11.623678955078125,-0.10822100937366486,-0.7574144601821899,-0.47222691774368286
1780626546083673600,11.633673583984375,-0.13856400549411774,-0.7667264938354492,-0.47345995903015137
1780626546093668600,11.643668701171874,-0.04910815879702568,-0.6290309429168701,-0.5048272013664246
1780626546103665000,11.653664794921875,0.06607089191675186,-0.6422255635261536,-0.5271176099777222
1780626546113660000,11.663659912109376,0.08371034264564514,-0.8634825944900513,-0.562856137752533
1780626546123655000,11.673655029296874,0.029277460649609566,-0.991134524345398,-0.6131473183631897
1780626546133650000,11.68364990234375,0.043241746723651886,-0.9259094595909119,-0.6064997911453247
1780626546143645000,11.69364501953125,0.13387976586818695,-0.8637449145317078,-0.5688536167144775
1780626546153639700,11.7036396484375,0.32017454504966736,-0.9009143710136414,-0.616044282913208
1780626546163634700,11.713634765625,0.6009287238121033,-1.0090086460113525,-0.6144466400146484
1780626546173629700,11.723629638671875,0.8780601620674133,-0.8926263451576233,-0.5743231773376465
1780626546183624700,11.733624755859376,1.1173946857452393,-0.5435817837715149,-0.5501933693885803
1780626546193619700,11.74361962890625,1.2733012437820435,-0.17323996126651764,-0.45336854457855225
1780626546203614700,11.75361474609375,1.2693235874176025,0.3497425615787506,-0.36142024397850037
1780626546213609700,11.763609619140626,1.2127034664154053,0.7772248983383179,-0.3851570188999176
1780626546223605800,11.773605712890625,1.098064661026001,0.7390018701553345,-0.536536693572998
1780626546233600800,11.783600830078125,0.9157529473304749,0.34090113639831543,-0.7170193791389465
1780626546243595800,11.793595703125,0.6812464594841003,-0.1012997254729271,-0.8362219333648682
1780626546253590800,11.8035908203125,0.5096698999404907,-0.30449438095092773,-0.782063364982605
1780626546263585800,11.813585693359375,0.40651875734329224,-0.26173466444015503,-0.48187875747680664
1780626546273580800,11.823580810546876,0.28918012976646423,-0.13530376553535461,-0.02749660611152649
1780626546283575800,11.833575927734374,0.2531680762767792,0.10785482823848724,0.4071168899536133
1780626546293570800,11.84357080078125,0.364920973777771,0.2469586580991745,0.7276115417480469
1780626546303565800,11.85356591796875,0.5710152983665466,0.26007285714149475,0.8209500312805176
1780626546313560800,11.863560791015624,0.760017454624176,0.1903206706047058,0.7368474006652832
1780626546323555600,11.8735556640625,0.8022650480270386,0.10073300451040268,0.6777933835983276
1780626546333550600,11.883550537109375,0.6766002774238586,0.11844728142023087,0.6283563375473022
1780626546343545600,11.893545654296876,0.43949055671691895,0.05548935756087303,0.5583045482635498
1780626546353542000,11.9035419921875,0.19950085878372192,-0.37467160820961,0.5012617707252502
1780626546363537000,11.913536865234375,0.06657050549983978,-0.35133033990859985,0.22085914015769958
1780626546373532000,11.923531982421874,0.09887624531984329,0.47168365120887756,-0.2617948651313782
1780626546383527000,11.93352685546875,0.1682175099849701,0.938521146774292,-0.5207196474075317
1780626546393521700,11.943521728515625,0.2464774250984192,0.7331802248954773,-0.40904155373573303
1780626546403516700,11.9535166015625,0.4396815001964569,0.3468429148197174,-0.2590542137622833
1780626546413511700,11.96351171875,0.692033052444458,0.17390841245651245,-0.3254142999649048
1780626546423506700,11.973506591796875,0.7930150628089905,0.08776447176933289,-0.3861684799194336
1780626546433501700,11.983501708984376,0.7218461036682129,0.10689182579517365,-0.25204023718833923
1780626546443496700,11.99349658203125,0.5226368308067322,0.427834689617157,-0.12602557241916656
1780626546453491700,12.00349169921875,0.3069029450416565,0.688888669013977,-0.13336658477783203
1780626546463486700,12.01348681640625,0.17947761714458466,0.5311541557312012,-0.3094627857208252
1780626546473482800,12.023482666015624,0.14809200167655945,-0.004685565363615751,-0.6561528444290161
1780626546483477800,12.033477783203125,0.1047636941075325,-0.5314353704452515,-0.9557395577430725
1780626546493472800,12.04347265625,0.07836005091667175,-0.6736790537834167,-1.1380491256713867
1780626546503467800,12.0534677734375,0.1298123300075531,-0.6443440914154053,-1.2269036769866943
1780626546513462800,12.063462890625,0.2415580302476883,-0.4895084500312805,-1.2286930084228516
1780626546523458000,12.0734580078125,0.39543068408966064,-0.09723227471113205,-1.2017320394515991
1780626546533453000,12.083453125,0.5597200393676758,0.3025873005390167,-1.1648147106170654
1780626546543448000,12.093447998046875,0.7051206231117249,0.37480050325393677,-1.156638503074646
1780626546553443000,12.103443115234375,0.7679994702339172,0.10483720153570175,-1.2197637557983398
1780626546563437800,12.113437744140626,0.7543430328369141,-0.38422995805740356,-1.3010250329971313
1780626546573432800,12.123432861328125,0.7171083092689514,-0.8169382214546204,-1.3603168725967407
1780626546583427800,12.133427734375,0.7704530358314514,-0.8859122395515442,-1.440618634223938
1780626546593424100,12.143424072265624,0.9825394749641418,-0.759492814540863,-1.456521987915039
1780626546603419100,12.153419189453125,1.249351143836975,-0.4956955015659332,-1.4275310039520264
1780626546613414100,12.1634140625,1.4796479940414429,-0.23082949221134186,-1.3627424240112305
1780626546623409200,12.1734091796875,1.566994071006775,-0.2168276458978653,-1.2200803756713867
1780626546633404000,12.18340380859375,1.527838945388794,-0.24308641254901886,-1.1793100833892822
1780626546643399000,12.19339892578125,1.4344751834869385,-0.3295627236366272,-1.1733498573303223
1780626546653394000,12.203393798828126,1.3655287027359009,-0.5262198448181152,-1.0685886144638062
1780626546663389000,12.213388916015624,1.403179407119751,-0.5681409239768982,-0.9731038808822632
1780626546673384000,12.223384033203125,1.5660955905914307,-0.4724026918411255,-0.9074228405952454
1780626546683379000,12.23337890625,1.746761441230774,-0.533930778503418,-0.8463387489318848
1780626546693374000,12.2433740234375,1.818381905555725,-0.5855880975723267,-0.8741032481193542
1780626546703369000,12.253368896484375,1.7099398374557495,-0.7010641098022461,-0.8525547981262207
1780626546713364200,12.2633642578125,1.5117926597595215,-0.878984808921814,-0.6693394780158997
1780626546723360000,12.273360107421874,1.3564802408218384,-0.8397269248962402,-0.43080705404281616
1780626546733355000,12.28335498046875,1.3167911767959595,-0.7421510815620422,-0.27614930272102356
1780626546743350000,12.29335009765625,1.4184008836746216,-0.6861008405685425,-0.30593276023864746
1780626546753345000,12.303344970703124,1.5173906087875366,-0.5866832137107849,-0.3101285696029663
1780626546763340000,12.313340087890625,1.5179967880249023,-0.3650227189064026,-0.24449123442173004
1780626546773335000,12.3233349609375,1.4004507064819336,-0.2256871908903122,-0.15436187386512756
1780626546783330000,12.333330078125,1.2725292444229126,-0.13358496129512787,-0.17286871373653412
1780626546793325000,12.343324951171875,1.1825177669525146,-0.10875976830720901,-0.3057740330696106
1780626546803319800,12.35331982421875,1.1325668096542358,0.0035835495218634605,-0.3970429599285126
1780626546813314800,12.363314697265626,1.0537233352661133,0.13814827799797058,-0.266589879989624
1780626546823309800,12.373309814453124,0.984254777431488,0.24134178459644318,-0.09477604180574417
1780626546833305000,12.38330517578125,0.9446765184402466,0.1275523602962494,-0.06609779596328735
1780626546843301000,12.393301025390626,0.8311100006103516,-0.13853657245635986,-0.15921202301979065
1780626546853296000,12.403296142578125,0.6615006923675537,-0.2059294581413269,-0.24071992933750153
1780626546863291100,12.413291015625,0.4309617877006531,-0.2760041654109955,-0.0910196527838707
1780626546873286000,12.423285888671876,0.25073501467704773,-0.35927507281303406,0.07116632163524628
1780626546883281000,12.433281005859374,0.18106618523597717,-0.28956151008605957,0.10808385908603668
