time,seconds_elapsed,z,y,x
1780626534504410400,0.054410400390625,-1.3255646228790283,-0.34359362721443176,0.15549080073833466
1780626534514406000,0.064406005859375,-1.491627812385559,-0.8846498131752014,0.26806220412254333
1780626534524401000,0.07440087890625,-0.9074561595916748,-1.3699266910552979,0.31452956795692444
1780626534534396000,0.08439599609375,-0.10785342752933502,-1.402081847190857,0.16986770927906036
1780626534544391000,0.094390869140625,0.9315658211708069,-0.6400743126869202,-0.049669165164232254
1780626534554386000,0.104385986328125,1.5924254655838013,0.07104383409023285,-0.10154131054878235
1780626534564381000,0.114380859375,1.6622389554977417,0.1089794933795929,-0.18067048490047455
1780626534574376000,0.1243759765625,1.3917115926742554,-0.04431601241230965,-0.24296081066131592
1780626534584371200,0.13437109375,1.0386857986450195,-0.30957192182540894,-0.32665756344795227
1780626534594366000,0.144365966796875,0.7639685869216919,-0.5053324699401855,-0.39689528942108154
1780626534604361000,0.15436083984375,0.4939650297164917,-0.5335755348205566,-0.3807632029056549
1780626534614356000,0.16435595703125,0.3051341772079468,-0.6007772088050842,-0.24722595512866974
1780626534624351000,0.17435107421875,0.2884678542613983,-0.7989313006401062,0.03477109596133232
1780626534634346000,0.184345947265625,0.4100882411003113,-0.9060577154159546,0.5253622531890869
1780626534644341000,0.194341064453125,0.5662222504615784,-0.7142654061317444,1.1812067031860352
1780626534654336000,0.2043359375,0.6554701328277588,-0.4439259469509125,1.8911733627319336
1780626534664331000,0.2143310546875,0.5526430606842041,-0.8332299590110779,2.388791799545288
1780626534674326000,0.224325927734375,0.12940086424350739,-1.5709232091903687,2.569502592086792
1780626534684321000,0.234321044921875,-0.5705326795578003,-2.5878872871398926,1.8509480953216553
1780626534694316000,0.24431591796875,-1.1236937046051025,-2.6404619216918945,1.1701841354370117
1780626534704310800,0.254310791015625,-1.3850371837615967,-1.4653363227844238,0.8669337630271912
1780626534714305800,0.264305908203125,-1.253659963607788,-0.3169615566730499,0.5933738350868225
1780626534724300800,0.27430078125,-0.8748783469200134,0.3719893991947174,0.2564474642276764
1780626534734296000,0.284296142578125,-0.5398163199424744,0.7661557793617249,-0.11479708552360535
1780626534744291000,0.294291015625,-0.24788808822631836,1.098853349685669,-0.4619350731372833
1780626534754286000,0.3042861328125,0.0500929020345211,1.3110612630844116,-0.7235159277915955
1780626534764281000,0.314281005859375,0.37696903944015503,1.3545490503311157,-0.8769882917404175
1780626534774276000,0.324276123046875,0.5024993419647217,1.335009217262268,-0.930016279220581
1780626534784271000,0.33427099609375,0.4201333224773407,1.1088734865188599,-0.8116438388824463
1780626534794266000,0.34426611328125,0.24798277020454407,0.5648196339607239,-0.6084639430046082
1780626534804262000,0.354261962890625,0.15086179971694946,0.09532883763313293,-0.42304402589797974
1780626534814257000,0.3642568359375,0.11427620053291321,-0.09110396355390549,-0.2280731052160263
1780626534824252000,0.374251953125,0.07745879888534546,-0.08574248850345612,-0.06589404493570328
1780626534834247000,0.384246826171875,0.17658741772174835,-0.08652825653553009,0.08566112071275711
1780626534844242000,0.394241943359375,0.5877363681793213,-0.12189476937055588,0.11994399130344391
1780626534854237200,0.4042373046875,0.836467981338501,-0.3326905071735382,-0.013677076436579227
1780626534864232000,0.41423193359375,0.8914926052093506,-0.7682645916938782,-0.18256117403507233
1780626534874227000,0.42422705078125,0.7899031639099121,-1.0940566062927246,-0.25784286856651306
1780626534884222000,0.434221923828125,0.737989604473114,-1.2902796268463135,-0.2272902876138687
1780626534894217000,0.444217041015625,0.7213173508644104,-1.3543251752853394,-0.09057813882827759
1780626534904212000,0.4542119140625,0.5709086656570435,-1.1173895597457886,0.11835537105798721
1780626534914207000,0.46420703125,0.1780882626771927,-0.5299133658409119,0.4265030026435852
1780626534924202000,0.474201904296875,-0.06542851775884628,-0.08120638877153397,0.7985426783561707
1780626534934197000,0.484197021484375,-0.12251482158899307,0.20717938244342804,1.0894646644592285
1780626534944192000,0.49419189453125,-0.08969002962112427,0.2838919758796692,1.1500848531723022
1780626534954187000,0.50418701171875,-0.09814977645874023,0.24499787390232086,0.9684891700744629
1780626534964182000,0.51418212890625,-0.17597132921218872,0.18028226494789124,0.6552945375442505
1780626534974176800,0.5241767578125,-0.28007766604423523,0.009790327399969101,0.36531323194503784
1780626534984171800,0.534171875,-0.39926183223724365,-0.3151547312736511,0.2655240595340729
1780626534994167000,0.5441669921875,-0.4809182584285736,-0.7492088079452515,0.39896348118782043
1780626535004162000,0.554162109375,-0.437807559967041,-1.2319185733795166,0.7273797392845154
1780626535014157000,0.564156982421875,-0.139653742313385,-1.6478996276855469,1.124003529548645
1780626535024152000,0.574152099609375,0.4105564057826996,-1.9860446453094482,1.4332436323165894
1780626535034147000,0.58414697265625,1.0407114028930664,-2.3027005195617676,1.5419752597808838
1780626535044142000,0.59414208984375,1.5388373136520386,-2.514446496963501,1.4015377759933472
1780626535054137000,0.60413720703125,1.8314677476882935,-2.596463680267334,1.0669124126434326
1780626535064132000,0.614132080078125,1.935347318649292,-2.5606696605682373,0.6850164532661438
1780626535074126800,0.624126953125,2.0320868492126465,-2.499784231185913,0.4278779923915863
1780626535084121900,0.634121826171875,2.2675888538360596,-2.5314719676971436,0.39989110827445984
1780626535094116900,0.644116943359375,2.716798782348633,-2.901439905166626,0.5718615651130676
1780626535104111900,0.65411181640625,2.8624260425567627,-2.8877363204956055,0.6796377897262573
1780626535114107000,0.66410693359375,2.587493419647217,-2.3039450645446777,0.544959545135498
1780626535124103200,0.674103271484375,1.970802903175354,-1.4512497186660767,0.004266717471182346
1780626535134098200,0.68409814453125,1.6504459381103516,-2.021965980529785,-0.6640159487724304
1780626535144093000,0.694093017578125,2.1183888912200928,-3.220790147781372,-1.0561442375183105
1780626535154088000,0.704087890625,2.6609387397766113,-3.375553607940674,-1.3334112167358398
1780626535164083000,0.7140830078125,3.220801830291748,-3.2452545166015625,-1.5496841669082642
1780626535174078000,0.724077880859375,3.758070468902588,-3.4103586673736572,-1.69058096408844
1780626535184073000,0.734072998046875,4.037784576416016,-3.5528876781463623,-1.7909001111984253
1780626535194068000,0.74406787109375,3.9718198776245117,-3.548940658569336,-1.8357713222503662
1780626535204063000,0.75406298828125,3.6495466232299805,-3.44352650642395,-1.4861469268798828
1780626535214058000,0.76405810546875,3.152238130569458,-2.943852186203003,-0.5664132833480835
1780626535224053000,0.774052978515625,2.7554004192352295,-2.4360859394073486,0.33103498816490173
1780626535234048000,0.784048095703125,2.5117404460906982,-2.3803060054779053,0.7709915637969971
1780626535244042800,0.794042724609375,2.5846850872039795,-2.5283193588256836,0.6965655088424683
1780626535254037800,0.804037841796875,2.95644474029541,-2.7051401138305664,0.4091944396495819
1780626535264033000,0.814032958984375,3.4952354431152344,-2.9100279808044434,0.18647520244121552
1780626535274028000,0.824028076171875,4.012053489685059,-3.236746311187744,0.09165185689926147
1780626535284023000,0.83402294921875,4.283836841583252,-3.602311134338379,0.11028066277503967
1780626535294018000,0.84401806640625,4.310267925262451,-3.8352468013763428,0.17475995421409607
1780626535304013000,0.854012939453125,4.321397304534912,-3.780933380126953,0.22168484330177307
1780626535314008000,0.864008056640625,4.432065010070801,-3.539555549621582,0.22700317203998566
1780626535324003000,0.874003173828125,4.630140781402588,-3.289412260055542,0.2685527503490448
1780626535333998000,0.883998046875,4.797800064086914,-3.038691997528076,0.34602758288383484
1780626535343992800,0.893992919921875,4.892426013946533,-2.826362371444702,0.4265895187854767
1780626535353987800,0.90398779296875,4.925041675567627,-2.7699337005615234,0.5453636646270752
1780626535363982800,0.91398291015625,4.859583377838135,-2.8348166942596436,0.6521622538566589
1780626535373977900,0.923977783203125,4.674992561340332,-2.8714487552642822,0.7078664898872375
1780626535383972900,0.933972900390625,4.4076619148254395,-2.7124741077423096,0.694687008857727
1780626535393967900,0.9439677734375,4.102324962615967,-2.1531832218170166,0.6252427697181702
1780626535403963100,0.953963134765625,3.862283706665039,-0.837297260761261,0.33576351404190063
1780626535413958100,0.963958251953125,3.6161048412323,0.9764163494110107,-0.3937161862850189
1780626535423953200,0.973953125,3.1262378692626953,2.3072407245635986,-1.1241048574447632
1780626535433948200,0.9839482421875,2.3133444786071777,2.7459614276885986,-1.2777067422866821
1780626535443943000,0.99394287109375,1.425492286682129,2.67040753364563,-1.0125086307525635
1780626535453939000,1.00393896484375,0.6417367458343506,2.292224884033203,-0.6110454797744751
1780626535463934000,1.013933837890625,0.1258087009191513,1.7969328165054321,-0.3240776062011719
1780626535473929000,1.023928955078125,-0.05105353891849518,1.4178779125213623,-0.23870140314102173
1780626535483924000,1.033924072265625,-0.04485263675451279,1.1514989137649536,-0.21133741736412048
1780626535493919000,1.0439189453125,-0.023548344150185585,0.9236403703689575,-0.12031850963830948
1780626535503914000,1.0539140625,-0.024090563878417015,0.6441612839698792,0.01077931746840477
1780626535513909500,1.063909423828125,0.04318632930517197,0.25785213708877563,0.12774795293807983
1780626535523904500,1.073904541015625,0.20091471076011658,-0.15873655676841736,0.2135547399520874
1780626535533899500,1.0838994140625,0.3974817991256714,-0.5697358250617981,0.2770768702030182
1780626535543894500,1.09389453125,0.6152125597000122,-0.9015992283821106,0.3070898950099945
1780626535553889500,1.1038896484375,0.7890017032623291,-1.08610200881958,0.3153402805328369
1780626535563884500,1.113884521484375,0.8883557319641113,-1.1899665594100952,0.27665385603904724
1780626535573879600,1.123879638671875,0.9363170266151428,-1.2482199668884277,0.16518646478652954
1780626535583874600,1.13387451171875,0.9782223701477051,-1.2421940565109253,-0.038708340376615524
1780626535593869600,1.14386962890625,1.0264859199523926,-1.1849340200424194,-0.31804758310317993
1780626535603864300,1.1538642578125,1.0336381196975708,-1.1067808866500854,-0.5367942452430725
1780626535613859300,1.163859375,1.0308581590652466,-0.9622782468795776,-0.5874556303024292
1780626535623854300,1.173854248046875,1.072969913482666,-0.922890305519104,-0.5608575940132141
1780626535633849600,1.183849609375,1.1348531246185303,-1.1494406461715698,-0.49215298891067505
1780626535643844600,1.1938447265625,1.1840732097625732,-1.5274288654327393,-0.43743354082107544
1780626535653839600,1.203839599609375,1.0960041284561157,-1.8514955043792725,-0.3748166859149933
1780626535663834600,1.213834716796875,0.8673232793807983,-1.935436725616455,-0.3383050262928009
1780626535673829600,1.22382958984375,0.6371626853942871,-1.7087891101837158,-0.44674456119537354
1780626535683824600,1.23382470703125,0.4922739565372467,-1.2484675645828247,-0.6720727682113647
1780626535693819600,1.243819580078125,0.3961915373802185,-0.8070592284202576,-0.8264756202697754
1780626535703814400,1.253814453125,0.31889888644218445,-0.41090548038482666,-0.7283921837806702
1780626535713809400,1.263809326171875,0.3313630521297455,-0.18619592487812042,-0.5017859935760498
1780626535723804400,1.273804443359375,0.4554583728313446,-0.22760328650474548,-0.23676469922065735
1780626535733799400,1.28379931640625,0.6169756054878235,-0.31239330768585205,0.04699213057756424
1780626535743794400,1.29379443359375,0.6366129517555237,-0.27925506234169006,0.3431590795516968
1780626535753789400,1.30378955078125,0.4823131859302521,-0.042937107384204865,0.650484025478363
1780626535763784400,1.313784423828125,0.2487584948539734,0.5267186164855957,0.8696430325508118
1780626535773779700,1.32377978515625,-0.03572138771414757,1.3312265872955322,0.854209840297699
1780626535783774700,1.333774658203125,-0.2988097369670868,1.7588802576065063,0.732792854309082
1780626535793770500,1.3437705078125,-0.3934204876422882,1.9381929636001587,0.5435973405838013
1780626535803765500,1.353765625,-0.37183743715286255,2.0326216220855713,0.27521592378616333
1780626535813760500,1.363760498046875,-0.372031033039093,2.038832902908325,0.027990475296974182
1780626535823755500,1.373755615234375,-0.44725707173347473,2.1528079509735107,-0.08722000569105148
1780626535833750500,1.38375048828125,-0.5443317890167236,2.325890064239502,-0.09113133698701859
1780626535843745500,1.39374560546875,-0.6421414613723755,2.5601370334625244,-0.050404142588377
1780626535853740500,1.403740478515625,-0.7823804020881653,2.8931632041931152,0.021255554631352425
1780626535863735600,1.413735595703125,-0.8309844136238098,2.7938451766967773,0.17934931814670563
1780626535873730300,1.423730224609375,-0.8402894139289856,2.8392953872680664,0.3559737801551819
1780626535883725300,1.433725341796875,-0.8435384631156921,2.4084644317626953,0.600144624710083
1780626535893720600,1.443720458984375,-0.6895942687988281,1.9671845436096191,0.8023830652236938
1780626535903715600,1.453715576171875,-0.6290670037269592,1.8577728271484375,0.9655764698982239
1780626535913710600,1.463710693359375,-0.712579071521759,1.7887935638427734,1.0876507759094238
1780626535923705600,1.47370556640625,-0.8722395896911621,1.4190847873687744,1.215706706047058
1780626535933700600,1.48370068359375,-1.1932026147842407,1.2018898725509644,1.4945262670516968
1780626535943695600,1.493695556640625,-1.6850179433822632,1.3421604633331299,1.8940157890319824
1780626535953690600,1.503690673828125,-2.115985870361328,1.581517219543457,2.1407272815704346
1780626535963685600,1.513685546875,-2.372425079345703,1.9347509145736694,2.1205880641937256
1780626535973680400,1.523680419921875,-2.397186040878296,2.311418294906616,1.826904296875
1780626535983675400,1.53367529296875,-2.139315128326416,2.4131410121917725,1.4175121784210205
1780626535993670400,1.54367041015625,-1.78062105178833,2.11578631401062,1.163141131401062
1780626536003665400,1.55366552734375,-1.542590618133545,1.5692064762115479,1.2114458084106445
1780626536013660400,1.563660400390625,-1.420522689819336,0.8013580441474915,1.5081408023834229
1780626536023655400,1.573655517578125,-1.0973262786865234,-0.4551103711128235,1.1161056756973267
1780626536033650400,1.583650390625,0.0345487967133522,-1.884752631187439,-1.9510257244110107
1780626536043645700,1.593645751953125,0.8292554616928101,-1.1753387451171875,-2.680906295776367
1780626536053640700,1.603640625,0.5295009016990662,-1.1915651559829712,-0.7374861836433411
1780626536063635700,1.6136357421875,-0.3191755414009094,-2.5435309410095215,0.25332745909690857
1780626536073630500,1.62363037109375,-0.8587967753410339,-2.9272515773773193,0.8209143877029419
1780626536083625500,1.63362548828125,-0.8241460919380188,-2.773028612136841,0.9766520261764526
1780626536093620500,1.643620361328125,-0.6228979825973511,-2.475883722305298,0.7986451983451843
1780626536103615500,1.653615478515625,-0.45884302258491516,-1.9354380369186401,0.5350165367126465
1780626536113611500,1.663611572265625,-0.46341320872306824,-1.4231587648391724,0.17526061832904816
1780626536123606500,1.6736064453125,-0.59892737865448,-1.1576762199401855,-0.25047922134399414
1780626536133601500,1.6836015625,-0.7856089472770691,-0.9345477819442749,-0.6845865249633789
1780626536143596300,1.69359619140625,-0.9330953359603882,-0.6557137370109558,-1.0376596450805664
1780626536153591600,1.703591552734375,-0.9884024858474731,-0.40715503692626953,-1.2704455852508545
1780626536163586600,1.713586669921875,-0.9122121334075928,-0.22195936739444733,-1.456479787826538
1780626536173581600,1.72358154296875,-0.7705028057098389,-0.2195727676153183,-1.6334679126739502
1780626536183576600,1.73357666015625,-0.6579413414001465,-0.391952782869339,-1.7346962690353394
1780626536193571600,1.743571533203125,-0.6876241564750671,-0.5644901990890503,-1.8225351572036743
1780626536203566600,1.753566650390625,-0.8103596568107605,-0.5860887169837952,-1.7730700969696045
1780626536213561600,1.7635615234375,-1.0499268770217896,-0.5695953369140625,-1.5673719644546509
1780626536223556600,1.773556640625,-1.3900671005249023,-0.6044718623161316,-1.344542145729065
1780626536233551600,1.783551513671875,-1.4648205041885376,-0.9780595302581787,-1.227562427520752
1780626536243546400,1.79354638671875,-1.0438436269760132,-2.05104923248291,-1.3546735048294067
1780626536253541400,1.803541259765625,-0.3879527449607849,-2.2168173789978027,-1.3385543823242188
1780626536263536400,1.813536376953125,-0.10524117201566696,-1.4201076030731201,-1.2026135921478271
1780626536273531400,1.823531494140625,-0.2652393579483032,-0.16733916103839874,-0.9855117797851562
1780626536283526400,1.8335263671875,-0.5832463502883911,0.21254372596740723,-0.790588915348053
1780626536293521400,1.843521484375,-0.744489312171936,-0.27391913533210754,-0.6418118476867676
1780626536303516700,1.8535166015625,-0.878233015537262,-0.4784507155418396,-0.28567132353782654
1780626536313511700,1.86351171875,-0.9392995238304138,-0.40969914197921753,0.017164727672934532
1780626536323506700,1.873506591796875,-0.8507568836212158,-0.41562122106552124,0.13544422388076782
1780626536333501700,1.883501708984375,-0.7570275664329529,-0.3281950056552887,0.14114978909492493
1780626536343496400,1.893496337890625,-0.6600483059883118,-0.3138323128223419,0.1259836107492447
1780626536353491500,1.903491455078125,-0.5383493304252625,-0.26228097081184387,0.17386458814144135
1780626536363486500,1.913486572265625,-0.3740634620189667,-0.28648778796195984,0.2889874577522278
1780626536373481500,1.9234814453125,-0.28593844175338745,-0.4259398579597473,0.432295024394989
1780626536383476500,1.9334765625,-0.26057982444763184,-0.7773540616035461,0.5909855961799622
1780626536393471500,1.943471435546875,-0.2923283874988556,-1.176488995552063,0.7898275256156921
1780626536403466500,1.953466552734375,-0.3693816065788269,-1.6147373914718628,0.9874782562255859
1780626536413461500,1.96346142578125,-0.36297139525413513,-1.9956011772155762,1.1264705657958984
1780626536423456500,1.97345654296875,-0.25883379578590393,-2.2886276245117188,1.1839901208877563
1780626536433451500,1.983451416015625,-0.06896305829286575,-2.3634684085845947,1.186781406402588
1780626536443447600,1.993447509765625,0.20236989855766296,-2.291569471359253,1.0745869874954224
1780626536453442600,2.003442626953125,0.4417610168457031,-2.119156837463379,0.8356841206550598
1780626536463437600,2.0134375,0.8351328372955322,-1.9414732456207275,0.5481125116348267
1780626536473432600,2.0234326171875,1.154992938041687,-1.738684058189392,0.3966912627220154
1780626536483427600,2.033427490234375,1.362126350402832,-1.5607051849365234,0.3158147931098938
1780626536493422600,2.043422607421875,1.4408650398254395,-1.3535295724868774,0.33893540501594543
1780626536503417600,2.05341748046875,1.4466331005096436,-1.2131098508834839,0.4461076855659485
1780626536513412400,2.063412353515625,1.4880871772766113,-1.266864538192749,0.6747461557388306
1780626536523407400,2.073407470703125,1.4687411785125732,-1.4639267921447754,1.0378385782241821
1780626536533402400,2.08340234375,1.501362681388855,-1.420881748199463,1.2619175910949707
1780626536543397400,2.0933974609375,1.4737310409545898,-1.4226796627044678,1.357398271560669
1780626536553392400,2.103392333984375,1.2635524272918701,-1.4238160848617554,1.529447078704834
1780626536563387600,2.1133876953125,1.1116344928741455,-1.1640510559082031,1.4543001651763916
1780626536573382700,2.123382568359375,1.1145389080047607,-1.011471152305603,1.1504700183868408
1780626536583377700,2.133377685546875,1.1778268814086914,-1.0410308837890625,0.82159423828125
1780626536593372700,2.14337255859375,1.2505083084106445,-1.15268874168396,0.5936142802238464
1780626536603367700,2.15336767578125,1.3740086555480957,-1.3045469522476196,0.49866512417793274
1780626536613362400,2.163362548828125,1.5011454820632935,-1.4559202194213867,0.5875850915908813
1780626536623357400,2.173357421875,1.5973082780838013,-1.2807915210723877,0.7528526186943054
1780626536633352400,2.1833525390625,1.672001838684082,-0.9449877738952637,0.8887231945991516
1780626536643347500,2.193347412109375,1.6868033409118652,-0.5990860462188721,0.9377831220626831
1780626536653342500,2.203342529296875,1.5581103563308716,-0.33759933710098267,0.9534258842468262
1780626536663337500,2.21333740234375,1.31076180934906,-0.22869548201560974,0.8781255483627319
1780626536673332500,2.22333251953125,1.0030485391616821,-0.29365071654319763,0.6200757026672363
1780626536683327500,2.233327392578125,0.6305044293403625,-0.3539867699146271,0.5718038082122803
1780626536693322500,2.243322509765625,0.27890920639038086,-0.5299516916275024,0.545924186706543
1780626536703317500,2.2533173828125,-0.16698040068149567,-0.7100011110305786,0.38402315974235535
1780626536713312500,2.2633125,-0.7792167067527771,-0.5458027720451355,0.06000673025846481
1780626536723307500,2.2733076171875,-1.2087417840957642,-0.3627704083919525,-0.4379116892814636
1780626536733302500,2.283302490234375,-1.3357131481170654,-0.14500358700752258,-0.972173810005188
1780626536743297500,2.293297607421875,-1.3235087394714355,-0.28867873549461365,-1.3622901439666748
1780626536753292500,2.30329248046875,-1.3013392686843872,-0.5338835716247559,-1.4074560403823853
1780626536763288600,2.31328857421875,-1.229709506034851,-0.8119516968727112,-1.1204484701156616
1780626536773283600,2.32328369140625,-1.2138441801071167,-0.9757953882217407,-0.5997894406318665
1780626536783278600,2.333278564453125,-1.2492444515228271,-0.7882590293884277,-0.14387758076190948
1780626536793273300,2.3432734375,-1.189941167831421,-0.3895428478717804,0.04943574219942093
1780626536803268400,2.353268310546875,-1.0675077438354492,0.07245434075593948,0.13276125490665436
1780626536813263400,2.363263427734375,-1.1177091598510742,0.4307185709476471,0.11800500005483627
1780626536823258400,2.37325830078125,-1.3751912117004395,0.8007040619850159,-0.12376315891742706
1780626536833253600,2.383253662109375,-1.6238881349563599,1.109482765197754,-0.3816925883293152
1780626536843248600,2.39324853515625,-1.546105146408081,1.248693585395813,-0.3994843661785126
1780626536853243600,2.40324365234375,-1.1318899393081665,1.3445045948028564,-0.3838095963001251
1780626536863238700,2.41323876953125,-0.6543204188346863,1.2758357524871826,-0.4190349578857422
1780626536873233700,2.423233642578125,-0.3249942362308502,1.0365043878555298,-0.31327396631240845
1780626536883228400,2.433228515625,-0.16893832385540009,0.7848556637763977,-0.02161308191716671
1780626536893223400,2.443223388671875,-0.11587999016046524,0.6068633198738098,0.24671413004398346
1780626536903218400,2.453218505859375,-0.08165837079286575,0.33510372042655945,0.4611888825893402
1780626536913213400,2.46321337890625,0.03364879637956619,0.1183522641658783,0.689284086227417
1780626536923208400,2.47320849609375,0.27689129114151,-0.10137397050857544,0.8179653286933899
1780626536933203500,2.483203369140625,0.5179896950721741,-0.3447278141975403,0.8121578097343445
1780626536943198500,2.493198486328125,0.7031939029693604,-0.4686580002307892,0.5988503098487854
1780626536953193500,2.503193359375,0.8289884328842163,-0.42970991134643555,0.312246710062027
1780626536963188500,2.5131884765625,0.8851557970046997,-0.31362858414649963,0.16065530478954315
1780626536973183700,2.523183837890625,0.8837905526161194,-0.23456907272338867,0.141522616147995
1780626536983178500,2.533178466796875,0.7913527488708496,-0.23436081409454346,0.2719445526599884
1780626536993173500,2.543173583984375,0.7907112836837769,-0.19341641664505005,0.4232068359851837
1780626537003168500,2.55316845703125,0.8748035430908203,-0.19028374552726746,0.5177756547927856
1780626537013163500,2.56316357421875,0.947613000869751,-0.1548171043395996,0.598632276058197
1780626537023158500,2.573158447265625,1.0837032794952393,-0.23630771040916443,0.5870794653892517
1780626537033153500,2.583153564453125,1.2373090982437134,-0.43203380703926086,0.5790768265724182
1780626537043148500,2.5931484375,1.3103758096694946,-0.4872587025165558,0.5068846344947815
1780626537053143600,2.6031435546875,1.0929267406463623,-0.5626013278961182,0.3548150956630707
1780626537063138600,2.613138671875,0.5394909977912903,-0.2788116931915283,0.15455123782157898
1780626537073133600,2.623133544921875,-0.1501375436782837,0.15441438555717468,0.003466544207185507
1780626537083129300,2.63312939453125,-1.0375707149505615,0.6614810824394226,0.010923128575086594
1780626537093124600,2.64312451171875,-1.9006518125534058,1.1450855731964111,0.03725774586200714
1780626537103119600,2.65311962890625,-2.072450876235962,1.164418339729309,-0.07284239679574966
1780626537113114600,2.663114501953125,-1.3757578134536743,1.4043796062469482,-0.575527548789978
1780626537123109600,2.673109619140625,-0.5587892532348633,1.3987408876419067,-0.8892177939414978
1780626537133104600,2.683104736328125,-0.20757968723773956,1.41043221950531,-0.9772428870201111
1780626537143099600,2.693099609375,-0.3827328383922577,1.4664363861083984,-1.0129294395446777
1780626537153094700,2.7030947265625,-0.7369462251663208,1.661316990852356,-1.137413740158081
1780626537163089400,2.71308935546875,-0.6058225631713867,1.7189345359802246,-1.4667413234710693
1780626537173084400,2.72308447265625,-0.11815812438726425,1.2571055889129639,-1.696251392364502
1780626537183079400,2.733079345703125,0.29851046204566956,0.4804235100746155,-1.5750852823257446
1780626537193074400,2.743074462890625,0.5859809517860413,-0.3592984080314636,-1.145637035369873
1780626537203069400,2.7530693359375,0.8139984011650085,-1.1550322771072388,-0.5154476165771484
1780626537213064400,2.763064453125,0.8054378032684326,-1.260214924812317,-0.3128832280635834
1780626537223059500,2.7730595703125,0.562418520450592,-0.5793891549110413,-0.8197802305221558
1780626537233054500,2.783054443359375,0.3267936110496521,0.5954967141151428,-1.5669066905975342
1780626537243049700,2.7930498046875,0.045211177319288254,1.3148038387298584,-2.1505913734436035
1780626537253044500,2.80304443359375,-0.153952956199646,1.5925791263580322,-2.37801194190979
1780626537263039500,2.81303955078125,-0.15736526250839233,1.0950851440429688,-2.2518246173858643
1780626537273034500,2.823034423828125,0.11672025173902512,0.376823753118515,-2.026372194290161
1780626537283029500,2.833029541015625,0.3959047496318817,-0.14029474556446075,-1.840320348739624
1780626537293024500,2.8430244140625,0.6094369888305664,-0.27264824509620667,-1.7566584348678589
1780626537303019500,2.85301953125,0.7923938035964966,-0.25419414043426514,-1.6893819570541382
1780626537313014500,2.8630146484375,0.9160532355308533,-0.42119306325912476,-1.608902096748352
1780626537323009500,2.873009521484375,0.9846208691596985,-0.8662378787994385,-1.5342774391174316
1780626537333004500,2.883004638671875,1.018175482749939,-1.2475062608718872,-1.4333305358886719
1780626537342999600,2.89299951171875,1.155644416809082,-1.2586684226989746,-1.2996259927749634
1780626537352994600,2.90299462890625,1.3308637142181396,-1.056501865386963,-1.0899063348770142
1780626537362989300,2.9129892578125,1.4180654287338257,-0.783275306224823,-0.7831314206123352
1780626537372984300,2.922984375,1.3922537565231323,-0.5346425771713257,-0.43514761328697205
1780626537382979600,2.9329794921875,1.2853150367736816,-0.3029281497001648,-0.08412487804889679
1780626537392975600,2.9429755859375,0.9745444655418396,-0.11759189516305923,0.04914774373173714
1780626537402970600,2.952970703125,0.4181784391403198,0.17035014927387238,-0.16756324470043182
1780626537412965600,2.962965576171875,-0.1768116056919098,0.9021473526954651,-0.6477791666984558
1780626537422960600,2.972960693359375,-0.5794903039932251,1.8915680646896362,-1.3186514377593994
1780626537432955400,2.982955322265625,-0.7143674492835999,2.7084126472473145,-1.9824752807617188
1780626537442950400,2.992950439453125,-0.4657544493675232,3.211440086364746,-2.4360809326171875
1780626537452945400,3.0029453125,-0.05946004018187523,3.3341565132141113,-2.817168951034546
1780626537462940400,3.0129404296875,0.30035245418548584,3.0930638313293457,-3.0136897563934326
1780626537472935400,3.022935302734375,0.573615312576294,2.271541118621826,-3.0438222885131836
1780626537482930400,3.032930419921875,0.6139840483665466,1.2858368158340454,-2.4808425903320312
1780626537492925400,3.042925537109375,0.4356819987297058,0.950710117816925,-1.8794608116149902
1780626537502920700,3.052920654296875,0.23717983067035675,0.9644602537155151,-1.5255581140518188
1780626537512915700,3.062915771484375,0.07839581370353699,1.0489752292633057,-1.4300061464309692
1780626537522910500,3.072910400390625,0.08382333070039749,1.153410792350769,-1.5712157487869263
1780626537532905200,3.0829052734375,0.3718928098678589,1.1782104969024658,-1.726725697517395
1780626537542900200,3.092900146484375,1.093907117843628,0.15334172546863556,-1.7110165357589722
1780626537552895200,3.102895263671875,1.7173571586608887,-0.8318371176719666,-1.3992058038711548
1780626537562890200,3.11289013671875,2.1272218227386475,-0.7286412119865417,-0.9234967827796936
1780626537572885200,3.12288525390625,2.1647214889526367,-0.2172258347272873,-0.23410610854625702
1780626537582880500,3.132880615234375,1.8103398084640503,0.19152864813804626,0.4319337010383606
1780626537592875500,3.14287548828125,1.1821322441101074,0.8334388136863708,0.8861597180366516
1780626537602870500,3.15287060546875,0.4033493101596832,1.3320249319076538,1.0817619562149048
1780626537612865500,3.162865478515625,-0.2568680942058563,1.3311811685562134,1.038527250289917
1780626537622860500,3.172860595703125,-0.6989307403564453,0.6085599064826965,0.6488037705421448
1780626537632855300,3.182855224609375,-0.8429354429244995,-0.5369569659233093,0.05863536521792412
1780626537642850300,3.192850341796875,-0.9490048885345459,-1.2370394468307495,-0.5440153479576111
1780626537652845300,3.20284521484375,-1.1464608907699585,-1.1899547576904297,-1.08565354347229
1780626537662840300,3.21284033203125,-1.2144341468811035,-1.0606989860534668,-1.5299752950668335
1780626537672835300,3.22283544921875,-0.6938171982765198,-1.299430251121521,-1.755228877067566
1780626537682830300,3.232830322265625,0.1617661565542221,-1.5716243982315063,-1.608930230140686
1780626537692826600,3.24282666015625,0.9587993025779724,-1.8550670146942139,-1.0514651536941528
1780626537702821400,3.2528212890625,1.3949148654937744,-1.633011817932129,-0.12482564896345139
1780626537712816400,3.26281640625,1.4990309476852417,-1.0769782066345215,0.8481612801551819
1780626537722811400,3.272811279296875,1.6246908903121948,-0.9948759078979492,1.2582372426986694
1780626537732806400,3.282806396484375,1.8949074745178223,-1.03310227394104,1.2908480167388916
1780626537742801400,3.292801513671875,2.278064250946045,-1.065769910812378,1.1626538038253784
1780626537752796400,3.30279638671875,2.757002592086792,-1.1552622318267822,1.0362944602966309
1780626537762791400,3.31279150390625,3.1411285400390625,-1.2964001893997192,0.8280779123306274
1780626537772786400,3.322786376953125,3.2776522636413574,-1.0109807252883911,-0.41049301624298096
1780626537782781400,3.332781494140625,3.3586275577545166,-1.5399070978164673,-1.951539158821106
1780626537792776400,3.3427763671875,3.7884674072265625,-2.225468873977661,-2.141490936279297
1780626537802771500,3.352771484375,3.5714097023010254,0.21593508124351501,-0.9203893542289734
1780626537812766200,3.36276611328125,2.9209511280059814,1.8249399662017822,-0.8262615203857422
1780626537822761200,3.37276123046875,2.465944290161133,1.279670000076294,-1.5732800960540771
1780626537832756200,3.382756103515625,2.2830851078033447,0.41853561997413635,-1.5540627241134644
1780626537842751500,3.39275146484375,2.0630276203155518,0.04299553856253624,-0.9721099138259888
1780626537852746500,3.40274658203125,1.8640327453613281,-0.4510526955127716,-0.4032360017299652
1780626537862741500,3.412741455078125,1.473630428314209,-1.2676020860671997,-0.11844450235366821
1780626537872736500,3.422736572265625,0.7946678400039673,-1.9205224514007568,0.10016581416130066
1780626537882731500,3.4327314453125,0.2206072211265564,-2.1854565143585205,0.346444308757782
1780626537892726500,3.4427265625,0.016382943838834763,-2.395019769668579,0.47893795371055603
1780626537902721300,3.45272119140625,0.05385175719857216,-2.4189610481262207,0.4951781928539276
1780626537912716300,3.46271630859375,0.0774865597486496,-1.8203885555267334,0.5128051042556763
1780626537922711300,3.472711181640625,-0.023036587983369827,-0.6431006193161011,0.37603867053985596
1780626537932706300,3.482706298828125,-0.18660667538642883,0.18045084178447723,0.22731518745422363
1780626537942701300,3.492701416015625,-0.16926309466362,0.06840420514345169,0.21167896687984467
1780626537952696300,3.5026962890625,0.26924073696136475,-0.9030733108520508,0.4729735851287842
1780626537962691300,3.51269140625,0.8170042037963867,-1.7766966819763184,0.8591442108154297
1780626537972686300,3.522686279296875,1.3042957782745361,-2.900829553604126,1.349434494972229
1780626537982681300,3.532681396484375,1.5329936742782593,-3.627969264984131,1.78159499168396
1780626537992677400,3.542677490234375,1.5717206001281738,-3.693953514099121,1.9927054643630981
1780626538002672400,3.55267236328125,1.8343371152877808,-3.4398579597473145,2.100572347640991
1780626538012667400,3.56266748046875,2.751445770263672,-2.3776204586029053,2.010364055633545
1780626538022662400,3.572662353515625,4.020644187927246,0.06902854144573212,1.3635344505310059
1780626538032657400,3.582657470703125,5.304144382476807,2.160993814468384,0.35797855257987976
1780626538042652400,3.59265234375,6.5450286865234375,3.418468475341797,-0.6489223837852478
1780626538052647400,3.6026474609375,7.4621968269348145,4.135196685791016,-1.1618938446044922
1780626538062642400,3.612642333984375,7.662709712982178,4.372094631195068,-0.9092057347297668
1780626538072637400,3.622637451171875,7.410973072052002,4.254033088684082,-0.31771963834762573
1780626538082632200,3.632632080078125,7.00150728225708,3.206279993057251,0.4201214015483856
1780626538092627200,3.642627197265625,6.683401584625244,-0.330493688583374,1.3993847370147705
1780626538102622500,3.65262255859375,6.219692707061768,-1.7784479856491089,1.6110010147094727
1780626538112617500,3.662617431640625,5.596638202667236,-1.9081093072891235,1.4484165906906128
1780626538122612500,3.672612548828125,4.9602370262146,-1.6798774003982544,1.0832563638687134
1780626538132607500,3.682607421875,4.520419120788574,-2.3177971839904785,0.8867337107658386
1780626538142602500,3.6926025390625,3.9576399326324463,-3.2718751430511475,0.6461924910545349
1780626538152597500,3.702597412109375,3.01007342338562,-3.8150479793548584,0.2941977083683014
1780626538162592500,3.712592529296875,1.6633116006851196,-3.848076343536377,-0.20039550960063934
1780626538172587500,3.72258740234375,0.15296527743339539,-3.4601173400878906,-0.7266643047332764
1780626538182582300,3.732582275390625,-0.7060126066207886,-3.211596727371216,-1.2113380432128906
1780626538192577300,3.742577392578125,-0.8921576142311096,-3.8635857105255127,-1.72709321975708
1780626538202572300,3.752572265625,-0.8216131329536438,-4.338257312774658,-1.9287397861480713
1780626538212567300,3.7625673828125,-0.6687957048416138,-4.265798091888428,-1.8481525182724
1780626538222562300,3.772562255859375,-0.4953640401363373,-3.6447439193725586,-1.5992345809936523
1780626538232557300,3.782557373046875,-0.2919250428676605,-2.6316685676574707,-1.2585078477859497
1780626538242552300,3.79255224609375,-0.09037860482931137,-1.4656864404678345,-0.8513123393058777
1780626538252547600,3.802547607421875,-0.020219791680574417,-0.38098961114883423,-0.4252786338329315
1780626538262543400,3.81254345703125,-0.10073301196098328,0.4751831293106079,-0.05803724378347397
1780626538272538400,3.822538330078125,-0.24787214398384094,1.0485337972640991,0.1939704418182373
1780626538282533400,3.832533447265625,-0.371447890996933,1.3692327737808228,0.35238033533096313
1780626538292528400,3.8425283203125,-0.41259366273880005,1.5399086475372314,0.47671201825141907
1780626538302523400,3.8525234375,-0.41502806544303894,1.6168010234832764,0.6052737832069397
1780626538312518400,3.862518310546875,-0.4318513572216034,1.5678565502166748,0.7134848833084106
1780626538322513400,3.872513427734375,-0.44811156392097473,1.391211748123169,0.7636681795120239
1780626538332508400,3.88250830078125,-0.4179321527481079,1.0643589496612549,0.7340347170829773
1780626538342503400,3.89250341796875,-0.3408823609352112,0.6528205871582031,0.6084664463996887
1780626538352498200,3.902498291015625,-0.22824768722057343,0.185065358877182,0.3985884189605713
1780626538362493200,3.9124931640625,-0.11399140954017639,-0.22207817435264587,0.1687307059764862
1780626538372488400,3.922488525390625,-0.04208987206220627,-0.4847927689552307,-0.025139054283499718
1780626538382483500,3.9324833984375,-0.01303691416978836,-0.6166878938674927,-0.14743965864181519
1780626538392478500,3.942478515625,-0.022242166101932526,-0.7186513543128967,-0.19365514814853668
1780626538402473500,3.952473388671875,-0.046604763716459274,-0.8541548252105713,-0.18751630187034607
1780626538412468500,3.962468505859375,-0.10643506795167923,-1.0031014680862427,-0.15284141898155212
1780626538422463500,3.97246337890625,-0.17117838561534882,-1.0627692937850952,-0.06651131808757782
1780626538432458500,3.98245849609375,-0.2149423211812973,-0.9879630208015442,0.04386451467871666
1780626538442453500,3.99245361328125,-0.20859254896640778,-0.743868350982666,0.15553565323352814
1780626538452448300,4.0024482421875,-0.21954751014709473,-0.42093387246131897,0.21897831559181213
1780626538462443300,4.012443359375,-0.2738986313343048,-0.11011127382516861,0.24110519886016846
1780626538472438300,4.022438232421875,-0.3209368884563446,0.11555235087871552,0.24399925768375397
1780626538482433300,4.032433349609375,-0.28559914231300354,0.3002641499042511,0.19168837368488312
1780626538492428300,4.04242822265625,-0.2360033541917801,0.38393059372901917,0.029055634513497353
1780626538502423300,4.05242333984375,-0.18292760848999023,0.3311677575111389,-0.17523545026779175
1780626538512418600,4.06241845703125,-0.09621860831975937,0.051258619874715805,-0.26474523544311523
1780626538522413000,4.0724130859375,-0.009785445407032967,-0.31714311242103577,-0.19869565963745117
1780626538532409000,4.0824091796875,0.033937036991119385,-0.5976964235305786,-0.03310105577111244
1780626538542404000,4.092404052734375,0.04798600822687149,-0.6292338371276855,0.1556832492351532
1780626538552399000,4.102399169921875,0.045537348836660385,-0.4644725024700165,0.29023849964141846
1780626538562394000,4.11239404296875,0.025024350732564926,-0.20325234532356262,0.33238568902015686
1780626538572389000,4.12238916015625,-0.018352849408984184,0.06653804332017899,0.2851490378379822
1780626538582384000,4.132384033203125,-0.05702727660536766,0.23155468702316284,0.15023383498191833
1780626538592379100,4.142379150390625,-0.06968612968921661,0.23149128258228302,-0.03389435634016991
1780626538602374100,4.1523740234375,-0.056153275072574615,0.07015939801931381,-0.19514742493629456
1780626538612369200,4.162369140625,-0.03771854192018509,-0.14835035800933838,-0.24935725331306458
1780626538622364200,4.1723642578125,-0.021736646071076393,-0.3496299386024475,-0.19277440011501312
1780626538632359000,4.18235888671875,-0.02838674560189247,-0.4904140830039978,-0.08342616260051727
1780626538642354000,4.19235400390625,-0.05824530869722366,-0.5379251837730408,0.026442011818289757
1780626538652349000,4.202348876953125,-0.09268385916948318,-0.4831106960773468,0.10617540031671524
1780626538662344200,4.21234423828125,-0.10560019314289093,-0.3727434575557709,0.1349407285451889
1780626538672339200,4.222339111328125,-0.11087281256914139,-0.25547635555267334,0.110443115234375
1780626538682334200,4.232334228515625,-0.12598678469657898,-0.1732661873102188,0.05369727686047554
1780626538692329200,4.2423291015625,-0.12464536726474762,-0.1343453973531723,-0.0032864869572222233
1780626538702324200,4.25232421875,-0.09924653172492981,-0.12955410778522491,-0.03600288927555084
1780626538712319200,4.2623193359375,-0.06396747380495071,-0.13149572908878326,-0.06074376031756401
1780626538722314200,4.272314208984375,-0.03498535603284836,-0.13525797426700592,-0.09673824906349182
1780626538732309000,4.28230908203125,-0.02128327637910843,-0.16108861565589905,-0.14739109575748444
1780626538742304000,4.292303955078125,-0.02464897930622101,-0.19380900263786316,-0.19010606408119202
1780626538752299000,4.302299072265625,-0.036967914551496506,-0.2558220624923706,-0.20513397455215454
1780626538762294000,4.3122939453125,-0.06170734763145447,-0.32091665267944336,-0.20004786550998688
1780626538772289000,4.3222890625,-0.1031583696603775,-0.38748136162757874,-0.16476044058799744
1780626538782284000,4.332283935546875,-0.142628014087677,-0.46631598472595215,-0.10565531253814697
1780626538792280300,4.3422802734375,-0.1678803414106369,-0.5180239081382751,-0.052924931049346924
1780626538802275000,4.352275146484375,-0.17046493291854858,-0.5358313918113708,-0.029641449451446533
1780626538812270000,4.36227001953125,-0.1534729152917862,-0.5521869659423828,-0.03510263189673424
1780626538822265000,4.37226513671875,-0.12156584113836288,-0.6127296686172485,-0.056077953428030014
1780626538832260000,4.382260009765625,-0.09242399781942368,-0.7349186539649963,-0.07235284894704819
1780626538842255000,4.392255126953125,-0.08542627841234207,-0.8834684491157532,-0.07342477142810822
1780626538852250000,4.40225,-0.10093118250370026,-1.032610535621643,-0.0726136714220047
1780626538862245000,4.4122451171875,-0.13330483436584473,-1.1600337028503418,-0.07753679156303406
1780626538872240000,4.422240234375,-0.1623094230890274,-1.2455689907073975,-0.07580084353685379
1780626538882235100,4.432235107421875,-0.16759872436523438,-1.2937424182891846,-0.061692483723163605
1780626538892230100,4.442230224609375,-0.15775221586227417,-1.3405897617340088,-0.042446088045835495
1780626538902225000,4.452224853515625,-0.13272063434123993,-1.400256872177124,-0.03898104652762413
1780626538912220000,4.462219970703125,-0.09272819757461548,-1.4349894523620605,-0.06217003986239433
1780626538922215000,4.47221484375,-0.05260208249092102,-1.4273701906204224,-0.10084100812673569
1780626538932210200,4.482210205078125,-0.03547148406505585,-1.3777061700820923,-0.11770408600568771
1780626538942205200,4.492205078125,-0.04146865755319595,-1.3018954992294312,-0.0960741639137268
1780626538952200200,4.5022001953125,-0.06392339617013931,-1.231595754623413,-0.033387716859579086
1780626538962195200,4.5121953125,-0.10497895628213882,-1.1758300065994263,0.060005079954862595
1780626538972190200,4.522190185546875,-0.14270706474781036,-1.1371560096740723,0.16644762456417084
1780626538982185200,4.532185302734375,-0.17516779899597168,-1.1173838376998901,0.2757083475589752
1780626538992180200,4.54218017578125,-0.19381186366081238,-1.0907456874847412,0.36011096835136414
1780626539002175000,4.552175048828125,-0.21022652089595795,-1.041894793510437,0.414519339799881
1780626539012170000,4.562169921875,-0.2292657047510147,-0.9525312185287476,0.4404866099357605
1780626539022165000,4.5721650390625,-0.25195956230163574,-0.8035262823104858,0.44779911637306213
1780626539032160000,4.582159912109375,-0.2685067653656006,-0.5921552181243896,0.4590754508972168
1780626539042155000,4.592155029296875,-0.26401880383491516,-0.336513876914978,0.4576687812805176
1780626539052151300,4.6021513671875,-0.23450666666030884,-0.09061790257692337,0.4178731143474579
1780626539062146300,4.612146240234375,-0.18987661600112915,0.05458802729845047,0.3191867470741272
1780626539072141000,4.62214111328125,-0.1479610800743103,0.05595339089632034,0.1796712428331375
1780626539082136000,4.632135986328125,-0.10255258530378342,-0.07409196346998215,0.02586011029779911
1780626539092131000,4.642131103515625,-0.08211679756641388,-0.20670168101787567,-0.09654586017131805
1780626539102126000,4.6521259765625,-0.06554128974676132,-0.18503393232822418,-0.13944245874881744
1780626539112121000,4.66212109375,-0.05745136737823486,-0.005623196251690388,-0.11487032473087311
1780626539122116000,4.6721162109375,-0.08634719997644424,0.27170535922050476,-0.06109444424510002
1780626539132111000,4.682111083984375,-0.12412594258785248,0.5771706700325012,-0.012039123103022575
1780626539142106000,4.692106201171875,-0.11816871166229248,0.785713255405426,0.03909330442547798
1780626539152101000,4.70210107421875,-0.07020597904920578,0.8317502737045288,0.07599762827157974
1780626539162096000,4.71209619140625,-0.023003842681646347,0.6996209621429443,0.06164079159498215
1780626539172091000,4.7220908203125,0.006073544733226299,0.4808604419231415,-0.0304449200630188
1780626539182086000,4.7320859375,0.020454879850149155,0.3214510679244995,-0.17900350689888
1780626539192081200,4.7420810546875,0.03593543916940689,0.32137852907180786,-0.31628087162971497
1780626539202076200,4.752076171875,0.05329658463597298,0.43061232566833496,-0.4181350767612457
1780626539212071200,4.7620712890625,0.06162586808204651,0.5427383184432983,-0.46263420581817627
1780626539222066200,4.772066162109375,0.059321172535419464,0.5501778721809387,-0.44630956649780273
1780626539232061200,4.782061279296875,0.04813552647829056,0.45747312903404236,-0.3896220624446869
1780626539242056200,4.79205615234375,0.02961217612028122,0.3388229012489319,-0.33648186922073364
1780626539252051200,4.80205126953125,0.024069607257843018,0.2581285238265991,-0.32498085498809814
1780626539262046200,4.812046142578125,0.042045943439006805,0.23501843214035034,-0.34404775500297546
1780626539272041000,4.822041015625,0.06958738714456558,0.23707857728004456,-0.3908689320087433
1780626539282036000,4.832035888671875,0.10033518075942993,0.22517424821853638,-0.4494190812110901
1780626539292031000,4.842031005859375,0.12186527252197266,0.18101154267787933,-0.4977549612522125
1780626539302026000,4.85202587890625,0.1453932374715805,0.08661314100027084,-0.4951551854610443
1780626539312022300,4.862022216796875,0.1718367487192154,-0.027442527934908867,-0.4273116886615753
1780626539322017300,4.872017333984375,0.18336662650108337,-0.08101893961429596,-0.30396950244903564
1780626539332012300,4.88201220703125,0.16701525449752808,-0.03309474140405655,-0.15288743376731873
1780626539342007000,4.892007080078125,0.1508740931749344,0.07539365440607071,-0.024946771562099457
1780626539352002000,4.902001953125,0.15987476706504822,0.20431144535541534,0.05448642745614052
1780626539361997000,4.9119970703125,0.1814783364534378,0.3201139271259308,0.08160246908664703
1780626539371992000,4.921991943359375,0.2044626772403717,0.4085136950016022,0.041009072214365005
1780626539381987000,4.931987060546875,0.2090052217245102,0.4803958833217621,-0.09575570374727249
1780626539391982000,4.941982177734375,0.18097425997257233,0.5582950711250305,-0.3046470582485199
1780626539401977000,4.95197705078125,0.13238994777202606,0.6607551574707031,-0.5444210767745972
1780626539411972000,4.96197216796875,0.08604292571544647,0.7144449353218079,-0.742050290107727
1780626539421967000,4.971967041015625,0.06194984167814255,0.6644808650016785,-0.8345733284950256
1780626539431962000,4.981962158203125,0.03736640140414238,0.537771999835968,-0.8471016883850098
1780626539441957000,4.99195703125,-0.018102450296282768,0.4583456218242645,-0.8433769941329956
1780626539451951900,5.001951904296875,-0.08930307626724243,0.4911932349205017,-0.8586663603782654
1780626539461947100,5.011947021484375,-0.1355438083410263,0.5736223459243774,-0.887459933757782
1780626539471942100,5.021942138671875,-0.14376863837242126,0.50897616147995,-0.851506769657135
1780626539481937200,5.031937255859375,-0.15821415185928345,0.21554961800575256,-0.711191713809967
1780626539491932200,5.04193212890625,-0.19011610746383667,-0.14292120933532715,-0.5162314772605896
1780626539501927200,5.05192724609375,-0.19488556683063507,-0.34062495827674866,-0.3068383038043976
1780626539511922200,5.061922119140625,-0.1225871667265892,-0.3594335615634918,-0.09404700249433517
1780626539521917700,5.071917724609375,-0.001032237894833088,-0.3084345757961273,0.047479499131441116
1780626539531912400,5.081912353515625,0.04632977023720741,-0.2957981526851654,0.05157953128218651
1780626539541908500,5.091908447265625,-0.016879023984074593,-0.23051927983760834,-0.07846368104219437
1780626539551903500,5.101903564453125,-0.11008242517709732,-0.03839094191789627,-0.3182978928089142
1780626539561898500,5.1118984375,-0.12803079187870026,0.11812649667263031,-0.6060420870780945
1780626539571893500,5.1218935546875,-0.015122951939702034,-0.04599922150373459,-0.8693611025810242
1780626539581888500,5.131888427734375,0.17000509798526764,-0.5367113947868347,-1.0392550230026245
1780626539591883500,5.141883544921875,0.29386475682258606,-0.979447066783905,-1.0514134168624878
1780626539601878500,5.15187841796875,0.3308219909667969,-1.0456225872039795,-0.9072277545928955
1780626539611873300,5.161873291015625,0.3009919226169586,-0.7714704871177673,-0.6652751564979553
1780626539621868300,5.171868408203125,0.21244820952415466,-0.32651886343955994,-0.3991321325302124
1780626539631863300,5.18186328125,0.09382209926843643,0.06350544095039368,-0.1937195509672165
1780626539641858600,5.191858642578125,-0.010894988663494587,0.21331091225147247,-0.11060893535614014
1780626539651853600,5.201853515625,-0.0832766592502594,0.16427381336688995,-0.16221269965171814
1780626539661848600,5.2118486328125,-0.14929428696632385,0.05756095424294472,-0.2873018980026245
1780626539671843600,5.221843505859375,-0.21389009058475494,-0.06447118520736694,-0.40196532011032104
1780626539681838600,5.231838623046875,-0.2579030990600586,-0.20957937836647034,-0.46026989817619324
1780626539691833600,5.24183349609375,-0.25073277950286865,-0.3826228678226471,-0.4736616015434265
1780626539701828400,5.251828369140625,-0.20237962901592255,-0.5654478073120117,-0.4691890776157379
1780626539711823400,5.2618232421875,-0.15285639464855194,-0.7254034876823425,-0.4477531611919403
1780626539721818400,5.271818359375,-0.12075332552194595,-0.7924608588218689,-0.38767969608306885
1780626539731813400,5.2818134765625,-0.13757920265197754,-0.7825325131416321,-0.3156089186668396
1780626539741808400,5.291808349609375,-0.18543168902397156,-0.8093188405036926,-0.2677431106567383
1780626539751803400,5.301803466796875,-0.23164424300193787,-0.89005047082901,-0.2538081705570221
1780626539761798400,5.31179833984375,-0.2409389466047287,-0.9114207029342651,-0.24899958074092865
1780626539771793400,5.32179345703125,-0.20719200372695923,-0.8463348150253296,-0.2279333919286728
1780626539781789400,5.33178955078125,-0.15533706545829773,-0.7175544500350952,-0.14891952276229858
1780626539791784400,5.341784423828125,-0.09194351732730865,-0.5424161553382874,-0.028843075037002563
1780626539801779500,5.351779541015625,-0.021014751866459846,-0.40417200326919556,0.07885569334030151
1780626539811774500,5.3617744140625,0.04125490039587021,-0.34646809101104736,0.11307187378406525
1780626539821769500,5.37176953125,0.07475560158491135,-0.31781861186027527,0.08090062439441681
1780626539831764500,5.381764404296875,0.06540808826684952,-0.2746286988258362,0.05489831417798996
1780626539841759500,5.391759521484375,0.04141274094581604,-0.22686171531677246,0.058483462780714035
1780626539851754500,5.40175439453125,0.03074297308921814,-0.18067380785942078,0.07236539572477341
1780626539861749500,5.41174951171875,0.0525774322450161,-0.0993131771683693,0.09387096017599106
1780626539871744500,5.42174462890625,0.08922845125198364,-0.021553559228777885,0.16161932051181793
1780626539881739300,5.4317392578125,0.10696110874414444,-0.00003734836354851723,0.2567402720451355
1780626539891734300,5.441734375,0.11258923262357712,-0.00865405984222889,0.33091452717781067
1780626539901729500,5.4517294921875,0.10684745758771896,0.0023274850100278854,0.38074785470962524
1780626539911724500,5.461724609375,0.08598720282316208,0.040500689297914505,0.42679694294929504
1780626539921719600,5.471719482421875,0.04434574767947197,0.05033174902200699,0.47220462560653687
1780626539931714600,5.481714599609375,-0.01376272737979889,0.020439017564058304,0.5135836005210876
1780626539941709600,5.49170947265625,-0.08188745379447937,-0.0039044052828103304,0.5204870700836182
1780626539951704600,5.50170458984375,-0.13961295783519745,-0.030207514762878418,0.5136024951934814
1780626539961699600,5.511699462890625,-0.16904382407665253,-0.07288600504398346,0.5279252529144287
1780626539971694600,5.521694580078125,-0.1690722107887268,-0.09639327973127365,0.5485662817955017
1780626539981689300,5.531689453125,-0.1582467257976532,-0.08558937162160873,0.5537344217300415
1780626539991684400,5.541684326171875,-0.1475980430841446,-0.04410539194941521,0.5522793531417847
1780626540001680400,5.551680419921875,-0.14501743018627167,0.020595040172338486,0.5573931932449341
1780626540011675400,5.56167529296875,-0.1512531340122223,0.07959707826375961,0.5703001618385315
1780626540021670700,5.571670654296875,-0.16422139108181,0.1056494489312172,0.5869518518447876
1780626540031665700,5.581665771484375,-0.1604865938425064,0.0664389431476593,0.613468587398529
1780626540041660700,5.59166064453125,-0.13360410928726196,-0.02376817911863327,0.6460168957710266
1780626540051655400,5.601655517578125,-0.0975673645734787,-0.12256930768489838,0.6663295030593872
1780626540061650400,5.611650390625,-0.062171828001737595,-0.18260841071605682,0.6700915098190308
1780626540071645400,5.6216455078125,-0.02567053586244583,-0.18142858147621155,0.646965742111206
1780626540081640400,5.631640380859375,-0.0028941179625689983,-0.14002308249473572,0.5881799459457397
1780626540091635500,5.641635498046875,0.00019599823281168938,-0.08253186196088791,0.4870983958244324
1780626540101630500,5.65163037109375,-0.01248064823448658,-0.019940655678510666,0.35366976261138916
1780626540111625500,5.66162548828125,-0.01630258373916149,0.050058964639902115,0.20327232778072357
1780626540121620500,5.671620361328125,-0.0037726773880422115,0.13066191971302032,0.08030246943235397
1780626540131615500,5.681615478515625,0.011799020692706108,0.1970537304878235,0.020170170813798904
1780626540141610500,5.691610595703125,0.020433789119124413,0.21307025849819183,0.003858043346554041
1780626540151605200,5.701605224609375,0.029383808374404907,0.1874920278787613,0.003982883878052235
1780626540161600500,5.7116005859375,0.050673384219408035,0.16087426245212555,-0.005684657022356987
1780626540171595500,5.721595458984375,0.05932958796620369,0.16436496376991272,-0.06456879526376724
1780626540181590500,5.731590576171875,0.05001784488558769,0.17548394203186035,-0.17963679134845734
1780626540191585500,5.74158544921875,0.03887205198407173,0.19111298024654388,-0.3524402678012848
1780626540201580500,5.75158056640625,0.04115145280957222,0.21193437278270721,-0.5565590262413025
1780626540211575600,5.761575439453125,0.04028702154755592,0.22974203526973724,-0.7257897853851318
1780626540221570600,5.771570556640625,0.02902264893054962,0.2483506053686142,-0.8236604332923889
1780626540231566300,5.78156640625,0.024483229964971542,0.273272305727005,-0.8740552067756653
1780626540241561300,5.791561279296875,0.047408249229192734,0.28659477829933167,-0.898285448551178
1780626540251556400,5.801556396484375,0.09744735062122345,0.2722444236278534,-0.909477174282074
1780626540261551400,5.81155126953125,0.15091615915298462,0.24312780797481537,-0.9091629385948181
1780626540271546400,5.82154638671875,0.18015430867671967,0.23217271268367767,-0.9019003510475159
1780626540281541600,5.831541748046875,0.17051579058170319,0.22539682686328888,-0.8838955163955688
1780626540291536600,5.84153662109375,0.13968424499034882,0.21324343979358673,-0.836330771446228
1780626540301531600,5.85153173828125,0.1266251802444458,0.1635371446609497,-0.7793609499931335
1780626540311526700,5.861526611328125,0.14987441897392273,0.04325323924422264,-0.7329285144805908
1780626540321521400,5.871521484375,0.20134027302265167,-0.02553834207355976,-0.7462667226791382
1780626540331516400,5.881516357421875,0.25483566522598267,-0.010304474271833897,-0.8683235049247742
1780626540341511400,5.891511474609375,0.26628565788269043,-0.02829119749367237,-1.0185884237289429
1780626540351506400,5.90150634765625,0.23634962737560272,-0.14830850064754486,-1.1143797636032104
1780626540361501400,5.91150146484375,0.20009548962116241,-0.3295120894908905,-1.121148943901062
1780626540371496400,5.921496337890625,0.17170405387878418,-0.38752639293670654,-1.052406668663025
1780626540381491500,5.931491455078125,0.14063520729541779,-0.16687236726284027,-0.9384018182754517
1780626540391486500,5.941486572265625,0.07816024869680405,0.13716857135295868,-0.7550705671310425
1780626540401481500,5.9514814453125,-0.005655017215758562,0.19054710865020752,-0.5191781520843506
1780626540411476500,5.9614765625,-0.06272974610328674,0.030193857848644257,-0.3422856330871582
1780626540421471200,5.97147119140625,-0.08199344575405121,-0.0823579877614975,-0.3557652235031128
1780626540431466500,5.981466552734375,-0.060234639793634415,-0.20377862453460693,-0.5211949348449707
1780626540441461500,5.99146142578125,-0.01916150376200676,-0.44143325090408325,-0.7262210845947266
1780626540451457500,6.00145751953125,-0.007256492972373962,-0.6174556016921997,-0.8364132642745972
1780626540461452500,6.01145263671875,-0.05206551030278206,-0.6615522503852844,-0.8081040978431702
1780626540471447600,6.021447509765625,-0.09173625707626343,-0.699491560459137,-0.6862647533416748
1780626540481442600,6.031442626953125,-0.09379488229751587,-0.7289184331893921,-0.5445957779884338
1780626540491437300,6.041437255859375,-0.06618530303239822,-0.7373965978622437,-0.45900505781173706
1780626540501432300,6.051432373046875,-0.0347171276807785,-0.7283210754394531,-0.4461859166622162
1780626540511427300,6.06142724609375,-0.025330286473035812,-0.6395074129104614,-0.4541717767715454
1780626540521422000,6.071422119140625,-0.035820476710796356,-0.4033912718296051,-0.40014955401420593
1780626540531417000,6.0814169921875,-0.026108674705028534,-0.10176694393157959,-0.2494318187236786
1780626540541412000,6.091412109375,0.00996224395930767,0.06670462340116501,-0.08713850378990173
1780626540551407000,6.101406982421875,0.044158484786748886,0.004155653528869152,-0.00005731428973376751
1780626540561402000,6.111402099609375,0.06563128530979156,-0.14704664051532745,-0.029063666239380836
1780626540571397000,6.121397216796875,0.04056871682405472,-0.16928517818450928,-0.09909965842962265
1780626540581392100,6.13139208984375,-0.016899103298783302,-0.05193672329187393,-0.0822192132472992
1780626540591387100,6.14138720703125,-0.041142188012599945,0.11347556114196777,0.06387678533792496
1780626540601382100,6.151382080078125,-0.03898689150810242,0.2791532278060913,0.2633483409881592
1780626540611377000,6.161376953125,-0.026899809017777443,0.3775903582572937,0.4241166114807129
1780626540621372000,6.171371826171875,-0.01748553477227688,0.37795841693878174,0.48517197370529175
1780626540631367200,6.1813671875,-0.019190799444913864,0.3220020830631256,0.44649234414100647
1780626540641362200,6.191362060546875,-0.04206974804401398,0.26706933975219727,0.36389386653900146
1780626540651357200,6.201357177734375,-0.07894865423440933,0.20954927802085876,0.296840101480484
1780626540661353200,6.211353271484375,-0.12466287612915039,0.13716402649879456,0.27112436294555664
1780626540671348000,6.221347900390625,-0.15513381361961365,0.05767303332686424,0.29803672432899475
1780626540681343000,6.231343017578125,-0.1749405413866043,0.0031642504036426544,0.35392263531684875
1780626540691338000,6.241337890625,-0.1927868276834488,0.019206533208489418,0.381297767162323
1780626540701333000,6.2513330078125,-0.20812956988811493,0.06552769243717194,0.390818327665329
1780626540711328000,6.261327880859375,-0.2058117687702179,0.09099432826042175,0.4058833420276642
1780626540721323000,6.271322998046875,-0.18248353898525238,0.09837687760591507,0.4349355101585388
1780626540731318000,6.281318115234375,-0.12698115408420563,0.09704850614070892,0.4475076496601105
1780626540741313000,6.29131298828125,-0.07624553143978119,0.10429470241069794,0.4384888708591461
1780626540751308300,6.301308349609375,-0.056640204042196274,0.07833937555551529,0.43280029296875
1780626540761303300,6.31130322265625,-0.06641080975532532,0.023428190499544144,0.4316684603691101
1780626540771298000,6.321298095703125,-0.08825264871120453,-0.045299116522073746,0.4286162853240967
1780626540781293000,6.33129296875,-0.11843878030776978,-0.10282952338457108,0.42369982600212097
1780626540791288000,6.3412880859375,-0.1578594297170639,-0.1201898530125618,0.39981725811958313
1780626540801283000,6.351282958984375,-0.18879258632659912,-0.11524356156587601,0.35661521553993225
1780626540811278000,6.361278076171875,-0.18530990183353424,-0.11877358704805374,0.3067863881587982
1780626540821273000,6.371273193359375,-0.14477500319480896,-0.11467710882425308,0.26423439383506775
1780626540831268000,6.38126806640625,-0.08289852738380432,-0.0842447355389595,0.2411322295665741
1780626540841263000,6.39126318359375,-0.01748196966946125,-0.025436807423830032,0.22502170503139496
1780626540851258000,6.401258056640625,0.04041580110788345,0.035579051822423935,0.20732466876506805
1780626540861253000,6.411253173828125,0.07864414900541306,0.06835564225912094,0.19709813594818115
1780626540871249200,6.421249267578125,0.09063708037137985,0.042305514216423035,0.20505015552043915
1780626540881244200,6.431244140625,0.10545304417610168,-0.07508396357297897,0.1937093436717987
1780626540891239200,6.4412392578125,0.12205129861831665,-0.19723984599113464,0.1250951588153839
1780626540901234200,6.451234130859375,0.12815099954605103,-0.21970385313034058,0.05093276873230934
1780626540911229200,6.461229248046875,0.13865265250205994,-0.15047286450862885,0.005924386437982321
1780626540921224200,6.47122412109375,0.1488128900527954,-0.08359424024820328,-0.023897424340248108
1780626540931219200,6.48121923828125,0.13873742520809174,-0.03047814406454563,-0.054681532084941864
1780626540941214200,6.491214111328125,0.10969538986682892,0.01876050792634487,-0.08172459900379181
1780626540951209000,6.501208984375,0.07611016929149628,0.027170956134796143,-0.10721176862716675
1780626540961204000,6.511203857421875,0.052091117948293686,-0.0437849760055542,-0.12137392908334732
1780626540971199000,6.521198974609375,0.04417440667748451,-0.09725496172904968,-0.11088713258504868
1780626540981194000,6.531194091796875,0.046229299157857895,-0.029535040259361267,-0.10095567256212234
1780626540991189000,6.54118896484375,0.058422449976205826,0.10796114057302475,-0.10640428215265274
1780626541001184000,6.55118408203125,0.08413553237915039,0.2259168028831482,-0.11668141931295395
1780626541011179300,6.56117919921875,0.12454685568809509,0.27433332800865173,-0.11130327731370926
1780626541021174300,6.57117431640625,0.1625211387872696,0.2835840880870819,-0.1248832643032074
1780626541031169300,6.581169189453125,0.1622895747423172,0.28409793972969055,-0.1812155544757843
1780626541041164000,6.5911640625,0.14223410189151764,0.3176809251308441,-0.23948578536510468
1780626541051159000,6.601158935546875,0.12207427620887756,0.4013710021972656,-0.24238042533397675
1780626541061154000,6.611154052734375,0.11141817271709442,0.5087922811508179,-0.1814454346895218
1780626541071150000,6.621150146484375,0.09937988221645355,0.5766163468360901,-0.11941029876470566
1780626541081145000,6.63114501953125,0.08799140155315399,0.5949863195419312,-0.11505070328712463
1780626541091140000,6.64114013671875,0.07398928701877594,0.5810627937316895,-0.2005741447210312
1780626541101135000,6.651135009765625,0.04720854386687279,0.5434459447860718,-0.32070454955101013
1780626541111130000,6.661130126953125,0.024962691590189934,0.41063904762268066,-0.396975040435791
1780626541121124900,6.671124755859375,0.019330371171236038,0.19776645302772522,-0.38237982988357544
1780626541131120000,6.6811201171875,0.04515835642814636,0.08953788876533508,-0.3062576949596405
1780626541141115100,6.691115234375,0.05848241597414017,0.14575748145580292,-0.21907298266887665
1780626541151110100,6.701110107421875,0.05622380971908569,0.2163568139076233,-0.1545812338590622
1780626541161105200,6.711105224609375,0.03857850283384323,0.13771605491638184,-0.13961559534072876
1780626541171100200,6.72110009765625,0.004908074624836445,-0.06869883090257645,-0.16643096506595612
1780626541181095200,6.73109521484375,-0.05754544958472252,-0.2827157974243164,-0.216892272233963
1780626541191090200,6.741090087890625,-0.10491934418678284,-0.44669461250305176,-0.2320234477519989
1780626541201085200,6.751085205078125,-0.09878101944923401,-0.45536985993385315,-0.17883799970149994
1780626541211080200,6.761080078125,-0.04421868547797203,-0.3409194350242615,-0.10089932382106781
1780626541221075000,6.771074951171875,0.061775125563144684,-0.22756434977054596,-0.03916645422577858
1780626541231070000,6.781070068359375,0.16583749651908875,-0.1759796291589737,-0.00758103933185339
1780626541241065000,6.79106494140625,0.22826039791107178,-0.1705435812473297,-0.01897270977497101
1780626541251060000,6.80106005859375,0.2642557621002197,-0.14824718236923218,-0.06823330372571945
1780626541261055000,6.811054931640625,0.27349746227264404,-0.10514339059591293,-0.12098492681980133
1780626541271051300,6.82105126953125,0.25554317235946655,-0.02106124721467495,-0.14854486286640167
1780626541281046300,6.83104638671875,0.2162272185087204,0.12384214997291565,-0.11581487953662872
1780626541291041000,6.841041015625,0.21805167198181152,0.2714516818523407,-0.02555934712290764
1780626541301036000,6.8510361328125,0.2866118252277374,0.41212198138237,0.12177444994449615
1780626541311031000,6.861031005859375,0.38503530621528625,0.5400892496109009,0.28594958782196045
1780626541321026000,6.871026123046875,0.4725278615951538,0.7057133913040161,0.41086864471435547
1780626541331021000,6.88102099609375,0.5032419562339783,0.8152615427970886,0.4222285747528076
1780626541341016000,6.89101611328125,0.47734034061431885,0.7715359330177307,0.308410108089447
1780626541351011000,6.901010986328125,0.4037289321422577,0.6661444902420044,0.15396079421043396
1780626541361006000,6.911006103515625,0.28478869795799255,0.5753530859947205,0.06278321892023087
1780626541371001000,6.9210009765625,0.19005538523197174,0.4681708812713623,0.06801312416791916
1780626541380996000,6.93099609375,0.15870490670204163,0.42054423689842224,0.13680896162986755
1780626541390991000,6.9409912109375,0.17723746597766876,0.4594872295856476,0.22759327292442322
1780626541400986000,6.950986083984375,0.23074090480804443,0.5169425010681152,0.30784040689468384
1780626541410981000,6.960981201171875,0.28907567262649536,0.5660244822502136,0.34891730546951294
1780626541420976000,6.97097607421875,0.3134137690067291,0.6325923204421997,0.3353727161884308
1780626541430971100,6.98097119140625,0.30599361658096313,0.6761667728424072,0.2804507613182068
1780626541440966100,6.990966064453125,0.27710604667663574,0.6404367685317993,0.20230190455913544
1780626541450961200,7.000961181640625,0.22912850975990295,0.5709324479103088,0.13524119555950165
1780626541460957000,7.01095703125,0.162161722779274,0.5404464602470398,0.10219191014766693
1780626541470952000,7.020951904296875,0.10806065052747726,0.5652230978012085,0.0919308140873909
1780626541480947000,7.030947021484375,0.06250089406967163,0.5860561728477478,0.08054633438587189
1780626541490942000,7.04094189453125,0.019369972869753838,0.5663155317306519,0.06620977818965912
1780626541500937000,7.05093701171875,-0.019201122224330902,0.5279929041862488,0.07349511981010437
1780626541510932200,7.06093212890625,-0.04482855647802353,0.5369676351547241,0.16327524185180664
1780626541520927500,7.070927490234375,-0.05410567671060562,0.5337010025978088,0.2891649901866913
1780626541530922500,7.080922607421875,-0.02640494331717491,0.4944476783275604,0.37204864621162415
1780626541540917500,7.09091748046875,0.009879295714199543,0.43794873356819153,0.40336981415748596
1780626541550912500,7.10091259765625,0.03383675962686539,0.37530964612960815,0.38832199573516846
1780626541560907500,7.110907470703125,0.03787197917699814,0.30919960141181946,0.3583241403102875
1780626541570902500,7.120902587890625,0.03246386721730232,0.25291216373443604,0.34560877084732056
1780626541580897500,7.1308974609375,0.02433510310947895,0.18759573996067047,0.357003390789032
1780626541590892500,7.140892578125,0.03410269692540169,0.12034465372562408,0.36738261580467224
1780626541600887600,7.150887451171875,0.06720632314682007,0.05111285299062729,0.33923858404159546
1780626541610882600,7.160882568359375,0.12442579865455627,-0.0676296129822731,0.2661686837673187
1780626541620877600,7.170877685546875,0.1856936812400818,-0.19672076404094696,0.15659426152706146
1780626541630872600,7.18087255859375,0.20607073605060577,-0.27094221115112305,0.07410669326782227
1780626541640867600,7.19086767578125,0.18023008108139038,-0.2110959142446518,0.09705275297164917
1780626541650863400,7.20086328125,0.14151474833488464,-0.08165943622589111,0.2076861709356308
1780626541660858600,7.210858642578125,0.1080675721168518,0.041621480137109756,0.3735635280609131
1780626541670853600,7.220853515625,0.07415522634983063,0.15693356096744537,0.570243775844574
1780626541680848600,7.2308486328125,0.04159940779209137,0.26719215512275696,0.7496268153190613
1780626541690843600,7.24084375,0.029206091538071632,0.3410230576992035,0.8666356205940247
1780626541700838700,7.250838623046875,0.046906523406505585,0.38724303245544434,0.8919108510017395
1780626541710833700,7.260833740234375,0.08272136747837067,0.4176977872848511,0.8244063258171082
1780626541720828400,7.270828369140625,0.11155673861503601,0.44444310665130615,0.6816343069076538
1780626541730823400,7.280823486328125,0.12445779144763947,0.45051243901252747,0.5023089647293091
1780626541740818400,7.290818359375,0.13475942611694336,0.3831605613231659,0.33846890926361084
1780626541750813400,7.3008134765625,0.15962332487106323,0.2171230912208557,0.20276550948619843
1780626541760808400,7.310808349609375,0.19363854825496674,-0.003326458390802145,0.10777000337839127
1780626541770803500,7.320803466796875,0.2064886838197708,-0.2153773009777069,0.07626635581254959
1780626541780798500,7.330798583984375,0.1889006346464157,-0.35261663794517517,0.0946405678987503
1780626541790793500,7.34079345703125,0.1738162785768509,-0.3698524534702301,0.13149452209472656
1780626541800788500,7.35078857421875,0.1914117932319641,-0.25593599677085876,0.16835640370845795
1780626541810783700,7.36078369140625,0.22509217262268066,-0.060633234679698944,0.20868155360221863
1780626541820778500,7.370778564453125,0.23045338690280914,0.15236717462539673,0.22641713917255402
1780626541830773500,7.3807734375,0.1864292025566101,0.418897420167923,0.2063097357749939
1780626541840769500,7.39076953125,0.13556203246116638,0.6946770548820496,0.14601817727088928
1780626541850764500,7.4007646484375,0.11736677587032318,0.8918156623840332,0.06484092772006989
1780626541860759600,7.410759521484375,0.13610662519931793,0.9321920871734619,-0.019166622310876846
1780626541870754600,7.420754638671875,0.17979072034358978,0.8217454552650452,-0.10249969363212585
1780626541880749600,7.43074951171875,0.21814022958278656,0.6436462998390198,-0.198630228638649
1780626541890744300,7.440744384765625,0.24236692488193512,0.42186427116394043,-0.32214072346687317
1780626541900739300,7.4507392578125,0.26807546615600586,0.2550334632396698,-0.478344202041626
1780626541910734300,7.460734375,0.30353567004203796,0.24532575905323029,-0.576942503452301
1780626541920729300,7.470729248046875,0.3345670998096466,0.349856436252594,-0.5957497954368591
1780626541930724600,7.480724609375,0.35020121932029724,0.52910977602005,-0.6074158549308777
1780626541940719600,7.4907197265625,0.3590199947357178,0.7816687822341919,-0.6663505434989929
1780626541950714600,7.500714599609375,0.37071144580841064,1.0407028198242188,-0.7355928421020508
1780626541960709600,7.510709716796875,0.3624367415904999,1.183835744857788,-0.8441438674926758
1780626541970704600,7.52070458984375,0.3200598657131195,1.0223593711853027,-1.0305830240249634
1780626541980699600,7.53069970703125,0.30059292912483215,0.5539770126342773,-1.249687910079956
1780626541990694400,7.5406943359375,0.30864036083221436,-0.10371500253677368,-1.4089250564575195
1780626542000689400,7.550689453125,0.2939639389514923,-0.7143741250038147,-1.4434577226638794
1780626542010684400,7.560684326171875,0.29270559549331665,-1.0712201595306396,-1.3904716968536377
1780626542020680400,7.570680419921875,0.3324088156223297,-1.0882377624511719,-1.3334240913391113
1780626542030675500,7.580675537109375,0.3873084783554077,-0.7963770627975464,-1.2275747060775757
1780626542040670700,7.590670654296875,0.39069175720214844,-0.4352111518383026,-0.9880939722061157
1780626542050665700,7.600665771484375,0.3031289875507355,-0.18108007311820984,-0.6200570464134216
1780626542060660500,7.610660400390625,0.14135180413722992,0.016621548682451248,-0.2611773908138275
1780626542070655500,7.620655517578125,-0.0052047353237867355,0.14982251822948456,-0.008858639746904373
1780626542080650500,7.630650390625,-0.08441220223903656,0.24321025609970093,0.1778462529182434
1780626542090645500,7.6406455078125,-0.12457871437072754,0.3343789875507355,0.31716153025627136
1780626542100640500,7.650640625,-0.14337795972824097,0.4133851230144501,0.4227212369441986
1780626542110635500,7.660635498046875,-0.07712266594171524,0.8373626470565796,0.6481234431266785
1780626542120630500,7.670630615234375,0.04225832596421242,1.5248992443084717,1.0539056062698364
1780626542130625500,7.68062548828125,0.11979353427886963,1.2932336330413818,1.2297518253326416
1780626542140620500,7.69062060546875,-0.028079817071557045,0.3340362310409546,0.8887157440185547
1780626542150615600,7.700615478515625,-0.0020592757500708103,0.0026370659470558167,0.6963304281234741
1780626542160610600,7.710610595703125,-0.004837485495954752,-0.07150506973266602,0.4978485107421875
1780626542170605300,7.720605224609375,-0.06174610182642937,-0.2505628764629364,0.3127414286136627
1780626542180600300,7.730600341796875,-0.17704738676548004,-0.6899465918540955,0.14900922775268555
1780626542190595600,7.740595703125,-0.3076665997505188,-1.160545825958252,0.09103795140981674
1780626542200591600,7.750591552734375,-0.4016577899456024,-1.445875883102417,0.15253913402557373
1780626542210586600,7.760586669921875,-0.4594652056694031,-1.4499620199203491,0.2337895780801773
1780626542220581600,7.77058154296875,-0.5031964778900146,-1.1687047481536865,0.26142412424087524
1780626542230576600,7.78057666015625,-0.5608938336372375,-0.7738713622093201,0.30355867743492126
1780626542240571400,7.7905712890625,-0.6442097425460815,-0.6120890974998474,0.4467669725418091
1780626542250566400,7.80056640625,-0.7155051827430725,-0.6040328741073608,0.7654337286949158
1780626542260561400,7.8105615234375,-0.7576385140419006,-0.4842311143875122,1.1954208612442017
1780626542270556400,7.820556396484375,-0.88873291015625,-0.20466391742229462,1.598526954650879
1780626542280551400,7.830551513671875,-1.0956240892410278,0.04158367961645126,1.8204220533370972
1780626542290546400,7.84054638671875,-1.2696529626846313,0.16097164154052734,1.8138946294784546
1780626542300541400,7.85054150390625,-1.30466628074646,0.17494872212409973,1.6351019144058228
1780626542310536700,7.86053662109375,-1.1966471672058105,-0.0035865013487637043,1.3503962755203247
1780626542320531700,7.87053173828125,-1.0108360052108765,-0.37750044465065,1.0104589462280273
1780626542330526500,7.8805263671875,-0.78321373462677,-0.8433051109313965,0.616827130317688
1780626542340521500,7.890521484375,-0.5872647166252136,-1.2420791387557983,0.1895996481180191
1780626542350516500,7.9005166015625,-0.47062820196151733,-1.4993720054626465,-0.20088502764701843
1780626542360511500,7.910511474609375,-0.4133601188659668,-1.589959979057312,-0.5414026379585266
1780626542370507500,7.920507568359375,-0.3720669150352478,-1.4737334251403809,-0.8425894975662231
1780626542380502500,7.93050244140625,-0.30302900075912476,-1.1435339450836182,-1.0738459825515747
1780626542390497500,7.94049755859375,-0.203826904296875,-0.6432601809501648,-1.1942673921585083
1780626542400492500,7.950492431640625,-0.10062781721353531,-0.059175197035074234,-1.1848235130310059
1780626542410487300,7.9604873046875,-0.034868303686380386,0.4472174048423767,-1.0758838653564453
1780626542420482300,7.970482421875,0.002567484974861145,0.7387959957122803,-0.919513463973999
1780626542430477600,7.9804775390625,0.041275035589933395,0.8289048075675964,-0.778847336769104
1780626542440472600,7.99047265625,0.044274553656578064,0.8097681403160095,-0.6942693591117859
1780626542450467600,8.000467529296875,0.04229294881224632,0.7631736397743225,-0.7155601978302002
1780626542460462600,8.010462646484376,0.07733508199453354,0.7778540849685669,-0.8637573719024658
1780626542470457600,8.02045751953125,0.13139930367469788,0.7539572715759277,-1.1044784784317017
1780626542480452600,8.03045263671875,0.17371346056461334,0.6386091113090515,-1.3655694723129272
1780626542490447600,8.040447509765626,0.20981484651565552,0.44146081805229187,-1.5900852680206299
1780626542500442600,8.050442626953124,0.23929977416992188,0.1932816207408905,-1.7374465465545654
1780626542510437400,8.060437255859375,0.27930575609207153,-0.037604790180921555,-1.8096234798431396
1780626542520432600,8.0704326171875,0.33007973432540894,-0.14851239323616028,-1.8439713716506958
1780626542530427600,8.080427734375,0.3733426034450531,-0.12513530254364014,-1.8841168880462646
1780626542540422700,8.090422607421875,0.43809202313423157,-0.024350369349122047,-1.9549436569213867
1780626542550418700,8.100418701171876,0.5258579254150391,0.1448518931865692,-2.042154312133789
1780626542560414000,8.1104140625,0.608045220375061,0.3294616937637329,-2.0783543586730957
1780626542570408700,8.12040869140625,0.6033328771591187,0.3968217372894287,-2.041069507598877
1780626542580403700,8.13040380859375,0.6015674471855164,0.45259127020835876,-1.9616081714630127
1780626542590398700,8.140398681640624,0.7012178897857666,0.6053943037986755,-1.8903062343597412
1780626542600393700,8.150393798828125,0.7653665542602539,0.7364631295204163,-1.8980956077575684
1780626542610388700,8.160388671875,0.7635712623596191,0.8016376495361328,-1.9981653690338135
1780626542620383700,8.1703837890625,0.6973493695259094,0.7377257943153381,-2.130509614944458
1780626542630378800,8.180378662109375,0.584922730922699,0.47288793325424194,-2.247762441635132
1780626542640373800,8.190373779296875,0.4938197135925293,0.1615058034658432,-2.3496615886688232
1780626542650368800,8.20036865234375,0.4643504321575165,0.01831650733947754,-2.4235129356384277
1780626542660363800,8.21036376953125,0.49341508746147156,0.031890369951725006,-2.493161678314209
1780626542670358800,8.22035888671875,0.5485698580741882,-0.014988826587796211,-2.574829578399658
1780626542680353500,8.230353515625,0.6167033314704895,-0.13398711383342743,-2.6826424598693848
1780626542690348500,8.2403486328125,0.6858825087547302,-0.17100191116333008,-2.816765308380127
1780626542700343600,8.250343505859375,0.7430709600448608,-0.2016916573047638,-2.9498188495635986
1780626542710339800,8.26033984375,0.7925100922584534,-0.35644686222076416,-3.0363941192626953
1780626542720334800,8.2703349609375,0.8376844525337219,-0.4879186153411865,-3.057023286819458
1780626542730329900,8.280329833984375,0.9043277502059937,-0.5110623240470886,-3.008873224258423
1780626542740324600,8.29032470703125,0.9723131656646729,-0.3036750257015228,-2.8907108306884766
1780626542750319600,8.300319580078124,1.003523588180542,0.07083459943532944,-2.762927770614624
1780626542760314600,8.310314697265625,0.9999536275863647,0.2682046592235565,-2.733255386352539
1780626542770309600,8.3203095703125,1.0263134241104126,0.15351103246212006,-2.8590404987335205
1780626542780304600,8.3303046875,1.1105105876922607,-0.11741393804550171,-3.111487627029419
1780626542790299600,8.340299560546875,1.1915104389190674,-0.36601877212524414,-3.303830862045288
1780626542800294700,8.350294677734375,1.2177544832229614,-0.4161365330219269,-3.2961158752441406
1780626542810289700,8.36028955078125,1.1795464754104614,-0.29172345995903015,-3.140043020248413
1780626542820284700,8.37028466796875,1.1493526697158813,-0.07054473459720612,-2.923518180847168
1780626542830280000,8.380280029296875,1.1820158958435059,0.11454799026250839,-2.7352492809295654
1780626542840274700,8.390274658203126,1.259028673171997,0.2001156359910965,-2.66032338142395
1780626542850269700,8.400269775390624,1.3390755653381348,0.17185164988040924,-2.6694724559783936
1780626542860264700,8.4102646484375,1.3650838136672974,-0.10204806923866272,-2.7450554370880127
1780626542870259700,8.420259765625,1.3239492177963257,-0.5835728645324707,-2.8720884323120117
1780626542880255700,8.430255859375,1.2538684606552124,-0.9242494702339172,-2.9462459087371826
1780626542890250800,8.440250732421875,1.1774778366088867,-1.0410430431365967,-2.894942283630371
1780626542900245800,8.450245849609376,1.1206454038619995,-1.062018632888794,-2.7823140621185303
1780626542910240800,8.46024072265625,1.063361644744873,-0.881843626499176,-2.580883741378784
1780626542920235500,8.470235595703125,1.0358357429504395,-0.5806273221969604,-2.3262338638305664
1780626542930230500,8.48023046875,1.0329514741897583,-0.35876497626304626,-2.067847728729248
1780626542940225800,8.490225830078124,1.0353695154190063,-0.31855538487434387,-1.8784223794937134
1780626542950220800,8.500220703125,0.999041736125946,-0.4751959443092346,-1.783125400543213
1780626542960215800,8.5102158203125,0.8951787948608398,-0.595322847366333,-1.7111634016036987
1780626542970210800,8.5202109375,0.7795310616493225,-0.5601237416267395,-1.606569766998291
1780626542980205800,8.530205810546875,0.6724786162376404,-0.5268198251724243,-1.4680134057998657
1780626542990200800,8.540200927734375,0.5589849948883057,-0.42523348331451416,-1.3139137029647827
1780626543000195800,8.55019580078125,0.4581310749053955,-0.3501826524734497,-1.1637308597564697
1780626543010190800,8.56019091796875,0.38472434878349304,-0.33505547046661377,-1.0718222856521606
1780626543020185600,8.570185546875,0.3025168478488922,-0.2547033727169037,-1.0177379846572876
1780626543030180600,8.5801806640625,0.18246319890022278,-0.2170596867799759,-0.9225970506668091
1780626543040176600,8.5901767578125,0.008368358947336674,-0.07017356902360916,-0.8071953654289246
1780626543050171600,8.600171630859375,-0.14302800595760345,-0.04376114159822464,-0.7878307700157166
1780626543060167000,8.6101669921875,-0.3016328513622284,-0.18987759947776794,-0.9054306149482727
1780626543070162000,8.620161865234374,-0.4675370454788208,-0.3546285033226013,-0.9892385601997375
1780626543080157000,8.630156982421875,-0.7009851932525635,-0.3566218912601471,-0.9692861437797546
1780626543090151700,8.640151611328125,-0.9000117182731628,-0.27951520681381226,-0.8820762038230896
1780626543100146700,8.650146728515624,-0.9615541696548462,-0.3856975734233856,-0.8127282857894897
1780626543110141700,8.6601416015625,-0.8732619285583496,-0.5124232769012451,-0.8214604258537292
1780626543120136700,8.67013671875,-0.699070155620575,-0.6858237981796265,-0.8590463995933533
1780626543130131700,8.680131591796876,-0.5407381057739258,-0.6774265170097351,-0.9853760600090027
1780626543140126700,8.690126708984375,-0.47790005803108215,-0.45011213421821594,-1.0531628131866455
1780626543150121700,8.700121826171875,-0.5707271695137024,-0.32763993740081787,-0.9697155356407166
1780626543160116700,8.71011669921875,-0.7089122533798218,-0.3199990689754486,-0.8419508934020996
1780626543170111700,8.72011181640625,-0.7789766788482666,-0.23031224310398102,-0.7742342352867126
1780626543180106800,8.730106689453125,-0.811233639717102,0.10019136965274811,-0.790127694606781
1780626543190101500,8.7401015625,-0.8562307357788086,0.4596896767616272,-0.7096695303916931
1780626543200096500,8.750096435546874,-0.91387939453125,0.44682660698890686,-0.5707758069038391
1780626543210092800,8.7600927734375,-0.9174830317497253,0.28821632266044617,-0.5362151861190796
1780626543220087800,8.770087890625,-0.840333878993988,0.1530020534992218,-0.6241453289985657
1780626543230082800,8.780082763671874,-0.7287355661392212,0.15893696248531342,-0.6824243068695068
1780626543240077800,8.790077880859375,-0.6768327355384827,0.2129727602005005,-0.613586962223053
1780626543250072800,8.80007275390625,-0.6824617385864258,0.17839232087135315,-0.5247678160667419
1780626543260067600,8.810067626953124,-0.6980063319206238,0.28719282150268555,-0.5228325128555298
1780626543270062600,8.8200625,-0.7410057783126831,0.4237062931060791,-0.5474745035171509
1780626543280057600,8.8300576171875,-0.8110700845718384,0.3741656243801117,-0.5747817754745483
1780626543290052600,8.840052490234376,-0.8767989277839661,0.2640886902809143,-0.5501891374588013
1780626543300047600,8.850047607421875,-0.9241682887077332,0.2036549150943756,-0.5058757662773132
1780626543310042600,8.860042724609375,-0.9360609650611877,0.2848716080188751,-0.43479424715042114
1780626543320038000,8.870037841796876,-0.8902641534805298,0.4387274980545044,-0.32890987396240234
1780626543330033000,8.880032958984375,-0.8042330741882324,0.7320408225059509,-0.24046140909194946
1780626543340028000,8.89002783203125,-0.7302225232124329,0.9336490631103516,-0.18886825442314148
1780626543350023000,8.90002294921875,-0.7142869234085083,0.9399729371070862,-0.13592861592769623
1780626543360018700,8.910018798828125,-0.7570769786834717,0.8843275308609009,-0.07046651095151901
1780626543370013700,8.920013671875,-0.8169031739234924,0.8291889429092407,0.038173846900463104
1780626543380008700,8.9300087890625,-0.8719983696937561,0.8079899549484253,0.17169195413589478
1780626543390003700,8.940003662109374,-0.9194347858428955,0.793451189994812,0.2806861102581024
1780626543399998700,8.949998779296875,-0.9600368142127991,0.8017027378082275,0.3142012059688568
1780626543409993700,8.95999365234375,-0.9576058983802795,0.7790399789810181,0.1876727044582367
1780626543419988700,8.96998876953125,-0.8708406686782837,0.6605455875396729,-0.17665518820285797
1780626543429983500,8.9799833984375,-0.72037672996521,0.3743051588535309,-0.6465810537338257
1780626543439978800,8.989978759765625,-0.5471820831298828,0.02119983173906803,-0.9623581767082214
1780626543449973800,8.999973876953124,-0.4169789254665375,-0.11676333844661713,-0.9393825531005859
1780626543459968800,9.00996875,-0.3386465907096863,0.23638726770877838,-0.5838667750358582
1780626543469963800,9.0199638671875,-0.25908035039901733,1.0717302560806274,-0.09310785681009293
1780626543479958800,9.029958740234376,-0.12304128706455231,1.9731868505477905,0.35008931159973145
1780626543489953800,9.039953857421875,0.1038489118218422,2.346391201019287,0.575908899307251
1780626543499948800,9.04994873046875,0.4077898859977722,2.0233654975891113,0.4840674102306366
1780626543509944600,9.059944580078126,0.5673359036445618,1.2656500339508057,0.18157462775707245
1780626543519939600,9.069939697265625,0.31853199005126953,0.599497377872467,-0.18278895318508148
1780626543529934600,9.0799345703125,-0.12463907897472382,0.22009840607643127,-0.43201765418052673
1780626543539929600,9.0899296875,-0.3771642744541168,-0.040359802544116974,-0.4688289165496826
1780626543549924600,9.099924560546874,-0.3266802728176117,-0.03500721976161003,-0.38060471415519714
1780626543559919900,9.109919921875,-0.07101254910230637,0.15681840479373932,-0.2898564338684082
1780626543569915000,9.119914794921876,0.18375924229621887,0.2842426300048828,-0.23603451251983643
1780626543579910000,9.129909912109374,0.36216628551483154,0.2813565731048584,-0.2157023400068283
1780626543589905000,9.13990478515625,0.43884995579719543,0.14998196065425873,-0.16023258864879608
1780626543599899600,9.149899658203125,0.44718486070632935,0.08529617637395859,-0.019563889130949974
1780626543609894700,9.159894775390624,0.4130213260650635,0.2199174165725708,0.07446718961000443
1780626543619889700,9.1698896484375,0.35868778824806213,0.25561603903770447,0.07938791066408157
1780626543629884700,9.179884765625,0.29472866654396057,0.05414951220154762,0.014002867043018341
1780626543639879700,9.189879638671876,0.19332720339298248,-0.12315656244754791,-0.13610035181045532
1780626543649874700,9.199874755859375,0.09423358738422394,-0.15405471622943878,-0.3018758296966553
1780626543659869700,9.20986962890625,0.0653473436832428,-0.07647896558046341,-0.33577945828437805
1780626543669865700,9.21986572265625,0.1139305904507637,0.08456078171730042,-0.27745142579078674
1780626543679860700,9.22986083984375,0.19772055745124817,0.20371940732002258,-0.24750657379627228
1780626543689855700,9.239855712890625,0.24113865196704865,0.28878918290138245,-0.1808500736951828
1780626543699850800,9.249850830078126,0.23945553600788116,0.34035196900367737,-0.10445890575647354
1780626543709845800,9.259845703125,0.21703867614269257,0.36487922072410583,-0.09195411205291748
1780626543719840800,9.2698408203125,0.14233806729316711,0.46886688470840454,-0.04610246792435646
1780626543729835800,9.279835693359376,0.0321488231420517,0.45397672057151794,-0.05006566271185875
1780626543739830800,9.289830810546874,-0.020220641046762466,0.4258825182914734,-0.15207378566265106
1780626543749825800,9.29982568359375,-0.018165580928325653,0.4493016004562378,-0.2340976446866989
1780626543759820800,9.30982080078125,0.002205203752964735,0.3083980083465576,-0.30058586597442627
1780626543769815800,9.31981591796875,0.06149344518780708,0.2037505805492401,-0.3113294243812561
1780626543779810600,9.329810546875,0.11160561442375183,0.2679135799407959,-0.2832956612110138
1780626543789805600,9.3398056640625,0.12603779137134552,0.32252925634384155,-0.27966830134391785
1780626543799800600,9.349800537109376,0.11906962841749191,0.4549109935760498,-0.2900322675704956
1780626543809795600,9.359795654296875,0.05577247962355614,0.5898205041885376,-0.1779264211654663
1780626543819792000,9.3697919921875,-0.019050095230340958,0.6008023023605347,-0.08673392981290817
1780626543829787000,9.379786865234376,-0.061555977910757065,0.6894594430923462,-0.09521642327308655
1780626543839782000,9.389781982421875,-0.09220176935195923,0.7895426750183105,-0.09571284055709839
1780626543849776600,9.399776611328125,-0.11355488002300262,0.7146003842353821,-0.13903144001960754
1780626543859771600,9.409771728515626,-0.0983429104089737,0.6120393872261047,-0.14002665877342224
1780626543869766700,9.4197666015625,-0.0893411934375763,0.6113535761833191,-0.11848056316375732
1780626543879761700,9.42976171875,-0.08481248468160629,0.6877778172492981,-0.15794514119625092
1780626543889756700,9.439756591796876,-0.11522253602743149,0.7668297290802002,-0.10668137669563293
1780626543899751700,9.449751708984374,-0.14691069722175598,0.8511387705802917,-0.0506250336766243
1780626543909746700,9.45974658203125,-0.14311717450618744,0.9252994060516357,-0.05797762796282768
1780626543919741700,9.46974169921875,-0.14833830296993256,0.9327349662780762,-0.07766319066286087
1780626543929736700,9.47973681640625,-0.17653846740722656,0.8793877959251404,-0.14052997529506683
1780626543939731700,9.489731689453125,-0.20198602974414825,0.7241164445877075,-0.17644670605659485
1780626543949726700,9.499726806640625,-0.2586081624031067,0.6244701147079468,-0.1361529380083084
1780626543959721700,9.5097216796875,-0.30887824296951294,0.5050950050354004,-0.14655950665473938
1780626543969717800,9.5197177734375,-0.35140690207481384,0.42697930335998535,-0.14120081067085266
1780626543979712800,9.529712646484375,-0.39864474534988403,0.37955108284950256,-0.1406487375497818
1780626543989707800,9.539707763671874,-0.3823578953742981,0.33982276916503906,-0.20804303884506226
1780626543999702800,9.549702880859375,-0.3297879099845886,0.5174108743667603,-0.23782463371753693
1780626544009697800,9.55969775390625,-0.2815230190753937,0.8086787462234497,-0.09592016041278839
1780626544019692500,9.569692626953126,-0.2645946443080902,0.9576852917671204,-0.052441131323575974
1780626544029687600,9.5796875,-0.320682168006897,0.9553572535514832,0.01633993722498417
1780626544039682600,9.5896826171875,-0.4149482250213623,0.9247722029685974,0.1057899221777916
1780626544049677600,9.599677490234376,-0.48809248208999634,0.8129526972770691,0.10566278547048569
1780626544059672800,9.6096728515625,-0.5157243609428406,0.6160135269165039,0.09851725399494171
1780626544069667800,9.619667724609375,-0.5384726524353027,0.49368637800216675,0.0712050125002861
1780626544079662800,9.629662841796875,-0.5432192087173462,0.3648013770580292,0.04007558524608612
1780626544089657900,9.639657958984374,-0.5229117274284363,0.4184117913246155,0.09359493851661682
1780626544099652900,9.64965283203125,-0.4546338617801666,0.6648878455162048,0.13280892372131348
1780626544109648000,9.65964794921875,-0.3865184187889099,0.7753229737281799,0.15944696962833405
1780626544119643600,9.6696435546875,-0.4675634801387787,0.6833954453468323,0.12165218591690063
1780626544129638700,9.679638671875,-0.6111387014389038,0.5311635732650757,0.11316719651222229
1780626544139633700,9.689633544921875,-0.6776479482650757,0.5841096043586731,0.17528888583183289
1780626544149628700,9.699628662109374,-0.6676377654075623,0.776561975479126,0.284047931432724
1780626544159623700,9.709623779296875,-0.6215597987174988,0.8083510994911194,0.3886512815952301
1780626544169618700,9.71961865234375,-0.5801425576210022,0.7650707364082336,0.3656192719936371
1780626544179614000,9.729614013671876,-0.5335806012153625,0.8152857422828674,0.4633846879005432
1780626544189608700,9.739608642578125,-0.5283421277999878,0.9130570888519287,0.4801347851753235
1780626544199603700,9.749603759765625,-0.6201620697975159,0.8458256125450134,0.4533921182155609
1780626544209598700,9.7595986328125,-0.7904730439186096,0.9273551106452942,0.5593934655189514
1780626544219593700,9.76959375,-0.9184001088142395,0.9053779244422913,0.48374828696250916
1780626544229588700,9.779588623046875,-1.0076782703399658,0.6920418739318848,0.39420127868652344
1780626544239583700,9.789583740234375,-1.0947498083114624,0.7600060105323792,0.34581777453422546
1780626544249578800,9.799578857421874,-1.1384142637252808,0.7176393866539001,0.14735330641269684
1780626544259573800,9.80957373046875,-1.1186604499816895,0.6041591763496399,0.03956906124949455
1780626544269569500,9.819569580078126,-1.0775507688522339,0.7403546571731567,0.01781628653407097
1780626544279564500,9.829564453125,-1.0151619911193848,0.7572212815284729,-0.02615862712264061
1780626544289559800,9.839559814453125,-0.9588466882705688,0.8467881679534912,0.0998815968632698
1780626544299554800,9.849554931640625,-0.9564948081970215,0.7405048608779907,0.15960803627967834
1780626544309549800,9.8595498046875,-0.9758508205413818,0.5749629735946655,0.25833508372306824
1780626544319544800,9.869544921875,-0.9407141804695129,0.6765844225883484,0.4867943525314331
1780626544329539800,9.879539794921875,-0.8242687582969666,0.8131506443023682,0.6581989526748657
1780626544339534800,9.889534912109376,-0.6628342866897583,0.9453923106193542,0.7806140780448914
1780626544349529900,9.89952978515625,-0.5308807492256165,0.7800472974777222,0.6508923768997192
1780626544359524600,9.909524658203125,-0.47427475452423096,0.3498364984989166,0.32439711689949036
1780626544369519600,9.91951953125,-0.5045478940010071,0.1332731693983078,0.18237659335136414
1780626544379514600,9.9295146484375,-0.6106367111206055,0.20930349826812744,0.07424294203519821
1780626544389509600,9.939509521484375,-0.7050724625587463,0.32921087741851807,0.016887519508600235
1780626544399504600,9.949504638671876,-0.777340829372406,0.36108121275901794,-0.0703485831618309
1780626544409501000,9.9595009765625,-0.7361249327659607,0.23071323335170746,-0.16949810087680817
1780626544419496000,9.969495849609375,-0.5965808629989624,0.3177597224712372,-0.13331027328968048
1780626544429490700,9.97949072265625,-0.4276179075241089,0.3396548330783844,-0.0798296108841896
1780626544439485700,9.989485595703124,-0.27502545714378357,0.328740656375885,-0.06837135553359985
1780626544449480700,9.999480712890625,-0.16314704716205597,0.6596705913543701,0.21265673637390137
1780626544459475700,10.009475830078125,-0.025242965668439865,0.9601073861122131,0.5878692269325256
1780626544469470700,10.019470703125,0.138589546084404,1.014243245124817,0.6450864672660828
1780626544479465700,10.0294658203125,0.3321121335029602,0.833648681640625,0.564450204372406
1780626544489460700,10.039460693359375,0.5049406290054321,0.5374841094017029,0.5382874011993408
1780626544499455700,10.049455810546876,0.6452136039733887,0.09375058114528656,0.26831263303756714
1780626544509450800,10.05945068359375,0.7316591143608093,-0.024054745212197304,0.16754209995269775
1780626544519445200,10.0694453125,0.7372440695762634,-0.0015164127107709646,0.24652080237865448
1780626544529440300,10.079440185546876,0.5917529463768005,0.0611245296895504,0.3467613756656647
1780626544539435300,10.089435302734374,0.30888184905052185,0.3558584153652191,0.5432073473930359
1780626544549431300,10.099431396484375,-0.005180137697607279,0.6444047093391418,0.7630607485771179
1780626544559426300,10.10942626953125,-0.2563524544239044,1.094806432723999,1.1741361618041992
1780626544569421300,10.11942138671875,-0.23477396368980408,0.8675538897514343,1.1205005645751953
1780626544579416300,10.129416259765625,0.07066984474658966,0.33084729313850403,0.8350198268890381
1780626544589411300,10.139411376953126,0.35600683093070984,-0.19436143338680267,0.5560080409049988
1780626544599406300,10.14940625,0.5041792392730713,-0.6639994978904724,0.23381991684436798
1780626544609401300,10.1594013671875,0.4937661290168762,-0.8144090175628662,0.09345604479312897
1780626544619396000,10.16939599609375,0.3072172999382019,-0.698374330997467,-0.025334255769848824
1780626544629391000,10.17939111328125,-0.0040501998737454414,-0.2642086148262024,0.06119207665324211
1780626544639386000,10.18938623046875,-0.373006135225296,-0.05964111536741257,0.17898555099964142
1780626544649381000,10.199381103515625,-0.6546648740768433,0.5986413955688477,0.6209312677383423
1780626544659376400,10.20937646484375,-0.7415441274642944,0.8100886940956116,0.757174015045166
1780626544669371400,10.219371337890625,-0.6693252921104431,0.5389196872711182,0.25855275988578796
1780626544679366400,10.229366455078125,-0.5010476112365723,0.47019708156585693,0.03489675372838974
1780626544689361400,10.239361328125,-0.28884536027908325,0.060006920248270035,-0.09724470973014832
1780626544699357200,10.249357177734375,-0.08038856089115143,-0.4860588014125824,-0.23459751904010773
1780626544709352200,10.259352294921875,-0.044008538126945496,-0.7522567510604858,-0.334366112947464
1780626544719347200,10.26934716796875,-0.16182945668697357,-0.32158100605010986,-0.25259721279144287
1780626544729342200,10.27934228515625,-0.3536536395549774,0.3542015552520752,-0.025343094021081924
1780626544739337200,10.289337158203125,-0.5514336228370667,0.7270547747612,0.148649200797081
1780626544749332200,10.299332275390626,-0.7288749814033508,0.8529013395309448,0.280775249004364
1780626544759327200,10.3093271484375,-0.8250808715820312,1.1472119092941284,0.6098948121070862
1780626544769322200,10.319322265625,-0.9030027389526367,0.5515419244766235,0.44347622990608215
1780626544779317500,10.3293173828125,-0.9694947004318237,0.11845200508832932,0.14991945028305054
1780626544789312300,10.339312255859374,-0.9839109182357788,0.32045790553092957,0.38960620760917664
1780626544799307300,10.349307373046875,-0.9604359865188599,0.018254641443490982,0.5128740668296814
1780626544809302300,10.35930224609375,-0.8748854398727417,-0.6952889561653137,0.1928587406873703
1780626544819297300,10.36929736328125,-0.7448188066482544,-1.0326262712478638,-0.2588578462600708
1780626544829292300,10.379292236328125,-0.6492587327957153,-0.8225424289703369,-0.4172890782356262
1780626544839288300,10.389288330078125,-0.605495810508728,-0.6755503416061401,-0.5347102880477905
1780626544849283300,10.399283447265624,-0.621862530708313,-0.3638598918914795,-0.36522147059440613
1780626544859278000,10.409278076171875,-0.6983290910720825,0.07904724031686783,-0.1876772940158844
1780626544869273000,10.419273193359375,-0.8002210259437561,0.639111340045929,0.1361199915409088
1780626544879268000,10.42926806640625,-0.8654953837394714,1.0759881734848022,0.4055624008178711
1780626544889263000,10.43926318359375,-0.8825889229774475,1.2326695919036865,0.45417720079421997
1780626544899258400,10.44925830078125,-0.8951990008354187,1.039939522743225,0.5355618596076965
1780626544909253400,10.45925341796875,-0.8943033814430237,0.660097599029541,0.5697258710861206
1780626544919248400,10.469248291015624,-0.8488349914550781,0.5445470213890076,0.45987260341644287
1780626544929243400,10.479243408203125,-0.7131650447845459,0.254435658454895,0.21771986782550812
1780626544939238400,10.48923828125,-0.5323731899261475,-0.012384054251015186,0.13739013671875
1780626544949233400,10.4992333984375,-0.40100806951522827,0.20267274975776672,0.36368855834007263
1780626544959228200,10.509228271484375,-0.30994048714637756,0.5026515126228333,0.4729175865650177
1780626544969223200,10.51922314453125,-0.267805278301239,0.3417757451534271,0.41763800382614136
1780626544979219200,10.52921923828125,-0.3229297995567322,0.19438014924526215,0.48406150937080383
1780626544989214200,10.539214111328125,-0.3949984312057495,0.06025118753314018,0.5241419672966003
1780626544999209200,10.549209228515625,-0.37902265787124634,0.2105030119419098,0.5904967188835144
1780626545009204200,10.559204345703124,-0.2808219790458679,0.29698020219802856,0.6429833173751831
1780626545019199500,10.569199462890625,-0.16191156208515167,0.16545279324054718,0.6771522164344788
1780626545029194200,10.5791943359375,-0.08289311826229095,-0.0465330109000206,0.743845522403717
1780626545039189200,10.589189208984376,0.03326944261789322,-0.5489135980606079,0.6314705014228821
1780626545049184300,10.599184326171875,0.13819925487041473,-0.7121625542640686,0.5589200854301453
1780626545059179300,10.60917919921875,0.16451022028923035,-0.17497822642326355,0.7081151604652405
1780626545069174300,10.61917431640625,0.18702447414398193,0.2660868763923645,0.7869874835014343
1780626545079169300,10.629169189453124,0.2672402262687683,0.30152156949043274,0.6832331418991089
1780626545089164300,10.639164306640625,0.37823089957237244,0.02482825517654419,0.4750688970088959
1780626545099159300,10.6491591796875,0.48592832684516907,-0.21072594821453094,0.30355119705200195
1780626545109154300,10.659154296875,0.47958052158355713,-0.37925490736961365,0.24904431402683258
1780626545119150000,10.669150146484375,0.2565804719924927,-0.2604092061519623,0.37853944301605225
1780626545129145300,10.679145263671876,0.025106875225901604,0.0592094361782074,0.6921707987785339
1780626545139140400,10.689140380859374,-0.03388667106628418,0.15355750918388367,0.8644323348999023
1780626545149135400,10.69913525390625,-0.002862276043742895,0.2721843719482422,0.8625996708869934
1780626545159130400,10.70913037109375,0.025180542841553688,0.3308064043521881,0.8811930418014526
1780626545169125400,10.71912548828125,0.08070185035467148,0.15663227438926697,0.7498078942298889
1780626545179120400,10.729120361328125,0.1780073493719101,-0.2288951724767685,0.2903553545475006
1780626545189115400,10.739115478515625,0.2819250822067261,-0.6594353914260864,-0.20918771624565125
1780626545199110100,10.749110107421876,0.36347293853759766,-0.5362170934677124,-0.177917942404747
1780626545209105200,10.759105224609375,0.3761637210845947,-0.008436516858637333,0.10576886683702469
1780626545219100200,10.76910009765625,0.3761589229106903,0.18954315781593323,0.015604881569743156
1780626545229095200,10.77909521484375,0.4317266345024109,0.31334707140922546,-0.15124520659446716
1780626545239090200,10.789090087890624,0.5078392624855042,0.6250482201576233,-0.061535291373729706
1780626545249086500,10.79908642578125,0.5076027512550354,0.6108088493347168,-0.10916794836521149
1780626545259081500,10.80908154296875,0.4799104332923889,0.3029431402683258,-0.2986406683921814
1780626545269076200,10.819076171875,0.4826503396034241,0.010436147451400757,-0.5025187730789185
1780626545279071200,10.8290712890625,0.45314598083496094,-0.17090222239494324,-0.6300886869430542
1780626545289066200,10.839066162109376,0.387687623500824,-0.1277063637971878,-0.5314702987670898
1780626545299061200,10.849061279296874,0.2919885516166687,0.1506384313106537,-0.34051018953323364
1780626545309056300,10.85905615234375,0.1979922205209732,0.46226006746292114,-0.1949211061000824
1780626545319051300,10.86905126953125,0.11100006103515625,0.6546851992607117,-0.04693829268217087
1780626545329046300,10.87904638671875,0.061140354722738266,0.2969246506690979,-0.11275619268417358
1780626545339041300,10.889041259765625,0.07828418910503387,-0.3232153058052063,-0.3865073025226593
1780626545349036300,10.899036376953125,-0.006137955468147993,-0.39533889293670654,-0.41978052258491516
1780626545359031300,10.90903125,-0.09102807939052582,-0.28364697098731995,-0.37236613035202026
1780626545369026300,10.9190263671875,-0.061997123062610626,-0.12406351417303085,-0.40268343687057495
1780626545379022300,10.929022216796875,0.033568281680345535,0.0904780775308609,-0.423744261264801
1780626545389017300,10.939017333984374,0.06214902549982071,0.21132542192935944,-0.41597095131874084
1780626545399012400,10.949012451171875,0.01936401054263115,0.05413900688290596,-0.423162043094635
1780626545409007400,10.95900732421875,-0.0022071637213230133,-0.16784657537937164,-0.48620662093162537
1780626545419002400,10.96900244140625,-0.01296260580420494,-0.44334182143211365,-0.6794617772102356
1780626545428997400,10.978997314453125,-0.07923655956983566,-0.38899824023246765,-0.6907618641853333
1780626545438992400,10.988992431640625,-0.16473175585269928,-0.1851324588060379,-0.5203536748886108
1780626545448987100,10.998987060546876,-0.21848627924919128,0.1564141809940338,-0.30713292956352234
1780626545458982100,11.008982177734374,-0.2451820820569992,0.41668009757995605,-0.11286995559930801
1780626545468977200,11.01897705078125,-0.2450326383113861,0.3210334777832031,-0.029583215713500977
1780626545478972200,11.02897216796875,-0.23308730125427246,0.3232329785823822,0.09387960284948349
1780626545488967200,11.03896728515625,-0.19472181797027588,0.3001319169998169,0.14676225185394287
1780626545498962200,11.048962158203125,-0.11979437619447708,0.08282202482223511,0.04027427360415459
1780626545508957200,11.058957275390625,-0.05850419029593468,-0.04178882762789726,0.009638183750212193
1780626545518953200,11.068953125,-0.029609423130750656,-0.3504220247268677,-0.15023884177207947
1780626545528947700,11.07894775390625,0.025179555639624596,-0.8106863498687744,-0.4917762577533722
1780626545538942700,11.088942626953125,0.05746505409479141,-1.142320156097412,-0.7676834464073181
1780626545548937700,11.098937744140626,0.03519093245267868,-1.4844958782196045,-0.9213343262672424
1780626545558932700,11.1089326171875,-0.040479592978954315,-1.7151525020599365,-1.0058082342147827
1780626545568927700,11.118927734375,-0.15717869997024536,-1.7357416152954102,-1.0404750108718872
1780626545578922800,11.1289228515625,-0.22769814729690552,-1.5311187505722046,-1.0914361476898193
1780626545588917800,11.138917724609374,-0.09715104103088379,-1.0751885175704956,-1.2442981004714966
1780626545598912800,11.148912841796875,0.3183891773223877,-0.8689399361610413,-1.1872830390930176
1780626545608907800,11.15890771484375,0.8364980816841125,-0.43185949325561523,-1.0562834739685059
1780626545618902800,11.16890283203125,1.336535096168518,1.2291080951690674,-1.5575811862945557
1780626545628897800,11.178897705078125,1.7849063873291016,2.040841817855835,-1.7379082441329956
1780626545638892500,11.188892578125,1.984809160232544,1.7416973114013672,-1.633203387260437
1780626545648888800,11.198888916015624,1.9056761264801025,1.4286514520645142,-1.6476167440414429
1780626545658883800,11.2088837890625,1.6656725406646729,1.5342515707015991,-1.759217381477356
1780626545668878800,11.21887890625,1.33087158203125,1.5480903387069702,-1.8006528615951538
1780626545678873900,11.228873779296874,0.8997230529785156,1.1122608184814453,-1.725841999053955
1780626545688868900,11.238868896484375,0.4350806772708893,0.6293313503265381,-1.558920979499817
1780626545698863900,11.24886376953125,0.16668997704982758,0.4510188698768616,-1.4508379697799683
1780626545708858600,11.258858642578126,0.22819501161575317,0.4342975616455078,-1.6002957820892334
1780626545718853600,11.268853515625,0.4116367697715759,-0.0315881073474884,-1.8627707958221436
1780626545728848600,11.2788486328125,0.48370733857154846,-0.7064316868782043,-2.080825090408325
1780626545738843600,11.28884375,0.40630656480789185,-0.6899397969245911,-2.209712028503418
1780626545748838700,11.298838623046874,0.08538428694009781,-0.2111685574054718,-2.0508220195770264
1780626545758833700,11.308833740234375,-0.22252801060676575,0.397564560174942,-1.7227120399475098
1780626545768829000,11.318828857421876,-0.272356778383255,0.8483418226242065,-1.5428286790847778
1780626545778824700,11.32882470703125,-0.16887539625167847,0.9329360723495483,-1.5944130420684814
1780626545788819700,11.33881982421875,0.005988697521388531,0.3598167300224304,-1.7951717376708984
1780626545798814700,11.348814697265626,0.14124426245689392,-0.36369702219963074,-2.013216018676758
1780626545808809700,11.358809814453124,0.21843545138835907,-0.2302689254283905,-1.9583089351654053
1780626545818804700,11.3688046875,0.30456793308258057,0.6054089069366455,-1.658117413520813
1780626545828799700,11.3787998046875,0.29802823066711426,0.8921893239021301,-1.1904560327529907
1780626545838794800,11.388794677734374,0.2730688154697418,0.6625041961669922,-1.1808971166610718
1780626545848789800,11.398789794921875,0.26966995000839233,0.30714234709739685,-1.4907989501953125
1780626545858784800,11.40878466796875,0.2493273764848709,0.20382635295391083,-1.4810512065887451
1780626545868779800,11.41877978515625,0.14133557677268982,0.27961671352386475,-1.278525710105896
1780626545878774800,11.42877490234375,0.021048855036497116,0.24942418932914734,-1.1399364471435547
1780626545888769800,11.438769775390625,-0.09062223136425018,-0.040864139795303345,-1.1117117404937744
1780626545898764800,11.448764892578126,-0.1683761477470398,-0.459644079208374,-1.0840164422988892
1780626545908760800,11.4587607421875,-0.14434225857257843,-0.5715284943580627,-0.9538284540176392
1780626545918755800,11.468755859375,-0.05320621654391289,-0.30512821674346924,-0.6820430159568787
1780626545928750800,11.478750732421876,0.061991989612579346,0.058210112154483795,-0.3881326913833618
1780626545938745900,11.488745849609375,0.21760261058807373,0.3605840802192688,-0.3131119906902313
1780626545948740600,11.49874072265625,0.35918277502059937,0.4743445813655853,-0.4915633499622345
1780626545958735600,11.508735595703126,0.3989032506942749,0.2640874981880188,-0.7053544521331787
1780626545968730600,11.518730712890624,0.34295889735221863,0.05875956267118454,-0.9769027829170227
1780626545978725600,11.5287255859375,0.26022112369537354,0.04015152528882027,-1.133949637413025
1780626545988720600,11.538720703125,0.27375349402427673,-0.14842940866947174,-1.1853110790252686
1780626545998716000,11.5487158203125,0.36836519837379456,-0.34525802731513977,-1.1431565284729004
1780626546008711000,11.5587109375,0.4372170567512512,-0.18439145386219025,-0.9754449725151062
1780626546018706000,11.568705810546875,0.4863097667694092,0.13145677745342255,-0.7067746520042419
1780626546028701000,11.578700927734374,0.5330061912536621,0.3708381950855255,-0.5079020261764526
1780626546038696700,11.58869677734375,0.4826498031616211,0.33685147762298584,-0.4204680919647217
1780626546048691700,11.598691650390625,0.30546489357948303,-0.053996436297893524,-0.39372995495796204
1780626546058686700,11.608686767578124,0.12267192453145981,-0.4148012399673462,-0.4912242889404297
1780626546068681700,11.618681640625,-0.05230342596769333,-0.6677175760269165,-0.5088127255439758
1780626546078676700,11.6286767578125,-0.1471034288406372,-0.7989733219146729,-0.45917245745658875
1780626546088671700,11.638671630859376,-0.11038142442703247,-0.6974347233772278,-0.49561336636543274
1780626546098666800,11.648666748046875,0.007375834509730339,-0.6059409976005554,-0.5160161256790161
1780626546108661800,11.658661865234375,0.08770914375782013,-0.7367395758628845,-0.5497866272926331
1780626546118656800,11.66865673828125,0.05030158534646034,-0.9633293151855469,-0.5903154015541077
1780626546128651800,11.67865185546875,0.019346658140420914,-0.9685984253883362,-0.6228910684585571
1780626546138646800,11.688646728515625,0.07479127496480942,-0.8866739869117737,-0.5832923054695129
1780626546148641800,11.698641845703126,0.20696616172790527,-0.8666397333145142,-0.5910068154335022
1780626546158636800,11.70863671875,0.4478224515914917,-0.9621116518974304,-0.6304964423179626
1780626546168632800,11.7186328125,0.7397148013114929,-0.9994986653327942,-0.5945802927017212
1780626546178627800,11.7286279296875,0.9968259930610657,-0.7238119840621948,-0.5711173415184021
1780626546188622600,11.73862255859375,1.2112475633621216,-0.3705299198627472,-0.5109555125236511
1780626546198617600,11.74861767578125,1.2779698371887207,0.06957981735467911,-0.40096697211265564
1780626546208612600,11.758612548828125,1.2445378303527832,0.6087551116943359,-0.35518547892570496
1780626546218607600,11.768607666015624,1.1573559045791626,0.8207469582557678,-0.45544126629829407
1780626546228602600,11.7786025390625,1.01104736328125,0.5604888796806335,-0.6304026246070862
1780626546238598000,11.788597900390625,0.7950888872146606,0.10965217649936676,-0.7965332865715027
1780626546248593000,11.798593017578124,0.5745877027511597,-0.2471080720424652,-0.8436039090156555
1780626546258588000,11.808587890625,0.4546133279800415,-0.2976734936237335,-0.6619177460670471
1780626546268583000,11.8185830078125,0.3413739800453186,-0.21039970219135284,-0.26257404685020447
1780626546278578000,11.828577880859376,0.24669113755226135,-0.022160276770591736,0.19787876307964325
1780626546288573700,11.83857373046875,0.28928154706954956,0.20078328251838684,0.5835891962051392
1780626546298568700,11.848568603515625,0.45738452672958374,0.2615717947483063,0.8048965334892273
1780626546308563700,11.858563720703126,0.671100914478302,0.23370221257209778,0.7829439043998718
1780626546318558700,11.868558837890625,0.799321711063385,0.13591599464416504,0.6991237998008728
1780626546328553700,11.8785537109375,0.7519438862800598,0.097389355301857,0.6548268795013428
1780626546338548700,11.888548828125,0.5601747035980225,0.12155860662460327,0.589728832244873
1780626546348544000,11.8985439453125,0.3072284460067749,-0.13229387998580933,0.5324033498764038
1780626546358538800,11.908538818359375,0.10367584228515625,-0.5074829459190369,0.40468111634254456
1780626546368533800,11.91853369140625,0.06408581882715225,0.03727676346898079,-0.023029737174510956
1780626546378528800,11.92852880859375,0.1296675056219101,0.7927218079566956,-0.44327282905578613
1780626546388523800,11.938523681640625,0.19417467713356018,0.8972716331481934,-0.5019800066947937
1780626546398518800,11.948518798828125,0.31989479064941406,0.52401202917099,-0.3165999948978424
1780626546408513800,11.958513671875,0.5704861283302307,0.2308632731437683,-0.27132168412208557
1780626546418509800,11.968509765625,0.7613874077796936,0.1318133920431137,-0.383925199508667
1780626546428504800,11.9785048828125,0.7741166353225708,0.06192205846309662,-0.3373703360557556
1780626546438499600,11.98849951171875,0.6278116106987,0.237348735332489,-0.18082280457019806
1780626546448494600,11.99849462890625,0.4033717215061188,0.5968926548957825,-0.11389689892530441
1780626546458489600,12.008489501953125,0.22270020842552185,0.6647965908050537,-0.19782988727092743
1780626546468484900,12.01848486328125,0.15336252748966217,0.2970443367958069,-0.4745329022407532
1780626546478480000,12.02847998046875,0.1237388625741005,-0.31154096126556396,-0.8258293867111206
1780626546488475000,12.038474853515625,0.07841736823320389,-0.6453747153282166,-1.0599924325942993
1780626546498470000,12.048469970703126,0.08866840600967407,-0.6679865717887878,-1.2003364562988281
1780626546508465000,12.05846484375,0.17548562586307526,-0.5923781991004944,-1.2402342557907104
1780626546518460000,12.0684599609375,0.3100026845932007,-0.32195839285850525,-1.2194831371307373
1780626546528455000,12.078454833984376,0.4719327390193939,0.12830086052417755,-1.186392903327942
1780626546538451000,12.088450927734375,0.6352958083152771,0.3868256211280823,-1.1562378406524658
1780626546548446000,12.098446044921875,0.7441554069519043,0.27383995056152344,-1.1823909282684326
1780626546558441000,12.10844091796875,0.763297438621521,-0.12206290662288666,-1.2651833295822144
1780626546568436000,12.11843603515625,0.7282081842422485,-0.6363085508346558,-1.3338754177093506
1780626546578431200,12.12843115234375,0.7167267799377441,-0.8972368240356445,-1.400499939918518
1780626546588426200,12.13842626953125,0.857191801071167,-0.8312569260597229,-1.4643311500549316
1780626546598421000,12.1484208984375,1.1116597652435303,-0.6558427214622498,-1.4420828819274902
1780626546608416000,12.158416015625,1.3702912330627441,-0.3362426459789276,-1.4126896858215332
1780626546618411000,12.168410888671875,1.5385197401046753,-0.20962077379226685,-1.2912319898605347
1780626546628406000,12.178406005859374,1.5519049167633057,-0.22778600454330444,-1.187215805053711
1780626546638401000,12.188401123046875,1.4776746034622192,-0.27342352271080017,-1.1864144802093506
1780626546648396000,12.19839599609375,1.386229157447815,-0.42626240849494934,-1.1351828575134277
1780626546658392000,12.20839208984375,1.3611507415771484,-0.5843404531478882,-1.0113445520401
1780626546668386800,12.21838671875,1.471221923828125,-0.5086846947669983,-0.9508953094482422
1780626546678381800,12.2283818359375,1.6550981998443604,-0.4914705753326416,-0.866336464881897
1780626546688376800,12.238376953125,1.7996622323989868,-0.5604857206344604,-0.8583924174308777
1780626546698372000,12.2483720703125,1.7780147790908813,-0.634419858455658,-0.8790364265441895
1780626546708367000,12.2583671875,1.606970191001892,-0.7956775426864624,-0.7847497463226318
1780626546718362000,12.268362060546876,1.417793869972229,-0.8962430357933044,-0.5469909906387329
1780626546728357000,12.278357177734375,1.3123070001602173,-0.7731772065162659,-0.3411463499069214
1780626546738352000,12.28835205078125,1.3509654998779297,-0.7242107391357422,-0.27453723549842834
1780626546748347100,12.29834716796875,1.4718453884124756,-0.6393437385559082,-0.3288647532463074
1780626546758342100,12.308342041015624,1.527643084526062,-0.4883105456829071,-0.28568825125694275
1780626546768337000,12.3183369140625,1.461289644241333,-0.28099003434181213,-0.1984938383102417
1780626546778333000,12.3283330078125,1.326268196105957,-0.17353761196136475,-0.14861470460891724
1780626546788328000,12.338327880859374,1.2181836366653442,-0.1242777407169342,-0.23559823632240295
1780626546798323000,12.348322998046875,1.1520147323608398,-0.06457312405109406,-0.37687385082244873
1780626546808318000,12.35831787109375,1.0937070846557617,0.07523280382156372,-0.36008310317993164
1780626546818313200,12.368313232421874,1.005378007888794,0.19194822013378143,-0.16409549117088318
1780626546828308200,12.37830810546875,0.9656733870506287,0.22965820133686066,-0.07060428708791733
1780626546838303000,12.388302978515625,0.8931810855865479,-0.02333783358335495,-0.09872619807720184
1780626546848298000,12.398298095703124,0.7468471527099609,-0.18932531774044037,-0.22490482032299042
1780626546858293000,12.40829296875,0.5438652634620667,-0.2274245023727417,-0.1926337033510208
1780626546868288000,12.4182880859375,0.32047727704048157,-0.32905563712120056,0.005197013262659311
1780626546878283000,12.428282958984376,0.20132720470428467,-0.34507107734680176,0.0903925970196724
1780626546888278000,12.438278076171875,0.16215716302394867,-0.1905411332845688,0.1374591886997223
1780626546898273000,12.44827294921875,0.1519641876220703,0.11228451132774353,0.20654451847076416
