time,seconds_elapsed,z,y,x
1780626033086488000,0.070488037109375,-0.5740782370835542,-0.11830430786311626,-0.5979337444454431
1780626033096518000,0.080517822265625,0.1365624336093664,-0.40143268270194526,-0.9258016439165919
1780626033106547000,0.090546875,0.1134399166971445,-0.739049603575468,-0.8393485914096236
1780626033116577000,0.100576904296875,-1.1634376299291849,0.33011136754900217,-0.9400998530559241
1780626033126606000,0.110606201171875,-3.539717848947644,1.5768097567498682,-0.9728022453486919
1780626033136636000,0.120635986328125,-3.574370060133934,0.4587620051205158,-0.8438910571448505
1780626033146665000,0.1306650390625,-0.47401978000700473,-0.7394277892380953,-0.7368369690272957
1780626033156694800,0.14069482421875,2.3137089042931795,-1.30405869127959,-0.6019643882010132
1780626033166724900,0.150724853515625,2.6400188337326047,-1.7364131664678453,-0.6813597772814333
1780626033176754000,0.16075390625,2.0769336998283863,-1.4634823605164884,-0.40557577385604376
1780626033186783700,0.17078369140625,2.2735066577643153,-0.6148705584600568,-0.043340398424118756
1780626033196812800,0.180812744140625,2.449960956779122,0.34133389557003974,0.0725889604685828
1780626033206843000,0.1908427734375,1.810631956627965,2.012631615787744,-0.050703328407555814
1780626033216872000,0.200871826171875,0.9173615131556987,2.2444836846366525,-0.17329130493924022
1780626033226902000,0.210902099609375,-0.008331190493702888,2.29361158042103,-0.09176241096146404
1780626033236931800,0.220931884765625,-0.7616057187765837,2.1895351198747752,-0.23972112172357737
1780626033246961000,0.2309609375,-0.9233078543394804,1.8530483720749615,-0.5130947030063718
1780626033256991000,0.240990966796875,-0.2644558230727911,1.0913970605909824,-0.5571686033368111
1780626033267020000,0.25102001953125,0.40052901186048984,-0.5642655758604407,-0.4185054711211473
1780626033277049900,0.2610498046875,1.3183406068712473,-2.2130618336737156,-0.7435022721353918
1780626033287079000,0.271078857421875,1.3028151209592818,-2.1941887908995152,-0.6850334973581135
1780626033297109000,0.28110888671875,1.3072586563646793,-2.2134701222136615,-0.6507596179649233
1780626033307138000,0.291137939453125,0.22275953859388828,-2.628040226647258,-0.5021392284236849
1780626033317167900,0.30116796875,-0.46354807035326956,-2.472200261116028,-0.4150383795324713
1780626033327197700,0.31119775390625,-0.6106330670207738,-1.1564683754384517,-0.30213169292919334
1780626033337226800,0.321226806640625,-0.2431459085404873,0.3651932023242116,0.8439954673673957
1780626033347256800,0.3312568359375,0.08301321425139903,1.9634107810229062,1.0122259087204932
1780626033357286000,0.341285888671875,0.3952840969443321,3.0376351730167865,0.6818726952396332
1780626033367316000,0.35131591796875,0.12652210111021994,2.9653385830909014,0.3272944834973663
1780626033377344800,0.3613447265625,0.4273047905832529,2.7942171695366502,-0.1536152021538466
1780626033387374800,0.371374755859375,1.5869003581315277,1.6525830828756094,0.08525777830779552
1780626033397405000,0.381405029296875,1.5903221492737531,-0.012788462163507937,0.22847397071793674
1780626033407434000,0.39143408203125,1.415560041129589,-0.3815528009727597,-0.045887379493191834
1780626033417464000,0.401464111328125,1.108807629597187,0.4204880963057279,-0.3812767605103552
1780626033427492900,0.411492919921875,0.6161527072250843,1.8263935893833636,-1.456877555423975
1780626033437523000,0.42152294921875,0.6490344016075134,2.8412743965268135,-1.9780309886582195
1780626033447552000,0.431552001953125,0.6095505324810743,3.261073049263656,-1.8995836210176347
1780626033457582000,0.44158203125,0.6542506749510765,2.940644286817312,-1.9060139463260768
1780626033467612000,0.45161181640625,1.1203209572583437,2.505845925608277,-2.439298546858877
1780626033477641000,0.461640869140625,1.4979413872182368,2.115907281345129,-1.6802749535299837
1780626033487670800,0.4716708984375,1.008835681760311,3.7845302293956276,-1.3872209586128592
1780626033497700000,0.4817001953125,0.4461842630982399,6.102087041288614,-2.2026827707394956
1780626033507730000,0.49172998046875,1.5395950015991926,6.632548254963755,-2.321350943478942
1780626033517758700,0.5017587890625,3.0292963837385174,6.854655467128754,-2.2764380350410938
1780626033527788800,0.511788818359375,4.701152322360873,8.307331479209662,-1.511757146602869
1780626033537819000,0.52181884765625,7.390164611843228,10.231375295484066,-0.049503743359446524
1780626033547848000,0.531847900390625,9.20757176169455,10.441501562476157,-0.2626832604423165
1780626033557878000,0.5418779296875,8.086953282794356,9.73098831755519,-2.479102295589447
1780626033567906800,0.55190673828125,2.264441892299056,8.09707427931428,-3.65878729596436
1780626033577937000,0.56193701171875,-3.0456326015114783,9.28379575419724,-4.571753204509616
1780626033587966000,0.571966064453125,-5.383222732129693,10.654281558847426,-4.047102722939849
1780626033597996000,0.58199609375,-4.089128093242645,10.630116254884005,-2.929530187606811
1780626033608025900,0.59202587890625,-0.928569720390439,11.314216124653816,-1.3331903854787348
1780626033618055000,0.602054931640625,2.0163427452653644,12.352581852281093,0.5575158093392849
1780626033628085000,0.6120849609375,3.366330536288023,11.968505378049612,1.149423717623949
1780626033638114000,0.622114013671875,5.08120903955698,11.808631626957654,0.45047173115909095
1780626033648144100,0.63214404296875,5.454681702187657,12.183999894076585,-0.499002830094099
1780626033658173000,0.6421728515625,3.4164304919749497,11.529345899021624,-0.4797101006031036
1780626033668202800,0.65220263671875,-1.0683411791741848,12.1391004296422,-2.362984684115648
1780626033678232800,0.66223291015625,-4.353032419912517,12.38822599711418,-4.038706065994501
1780626033688262000,0.672261962890625,-6.752379918524623,11.511215199047326,-5.494727296850085
1780626033698292000,0.6822919921875,-7.731818825408816,10.512857656681536,-7.456502585625648
1780626033708320800,0.69232080078125,-7.238601008456945,8.671890183022617,-9.289956614914535
1780626033718350800,0.702350830078125,-8.832188881528378,5.971482054778933,-12.887089710998534
1780626033728380000,0.7123798828125,-11.456199998790025,2.776819752272963,-17.33662815620303
1780626033738410000,0.722409912109375,-12.070914782166481,-0.7061363450109959,-21.814805835914612
1780626033748439800,0.732439697265625,-11.249043102997542,-3.4230683225542307,-27.022007399749754
1780626033758468900,0.74246875,-7.085050030645728,-6.447091734325886,-31.811458183288572
1780626033768499000,0.7524990234375,-0.10366787974536418,-9.23588307942152,-34.58884433727264
1780626033778528000,0.762528076171875,5.146195598730444,-9.177810245159268,-35.290979045426845
1780626033788558000,0.77255810546875,7.6690008424460885,-7.309661334586143,-33.91790205523967
1780626033798587000,0.7825869140625,10.52400565816164,-5.929147472396493,-30.995135954940316
1780626033808617000,0.792616943359375,14.38123053689003,-5.331430585572123,-27.345355556774138
1780626033818646800,0.802646728515625,18.494679416918753,-6.1922811069548125,-24.673667327058315
1780626033828676000,0.812676025390625,22.40847666221857,-7.803663579913973,-22.072954083275793
1780626033838706000,0.822705810546875,24.20052491440773,-8.078627937519549,-19.6085957678318
1780626033848735000,0.83273486328125,23.378937312877177,-7.685318940040469,-17.777750459736584
1780626033858764800,0.842764892578125,21.320234850788115,-7.2436641370654105,-16.609139226561783
1780626033868795000,0.852794921875,17.79409252272844,-3.850721195922792,-14.15774677567482
1780626033878824000,0.862823974609375,13.840388798975944,1.2084990069270134,-9.356431951341033
1780626033888853800,0.872853759765625,11.761662955033778,6.007465806829929,-3.1645728691905735
1780626033898882800,0.8828828125,12.375775680863857,8.436579205891489,2.50043266838789
1780626033908913000,0.892912841796875,11.411685149759053,12.417255692243575,9.00148863261342
1780626033918942000,0.90294189453125,8.654813960537314,14.606296014338731,13.421232828056812
1780626033928972000,0.912971923828125,7.244170333021879,12.977510571157932,15.074279436790942
1780626033939001900,0.923001953125,5.665498289531469,9.044891721010208,12.827372616660595
1780626033949031000,0.933031005859375,3.359998118396103,9.961337872886658,13.351583537769317
1780626033959061000,0.94306103515625,-4.345805099007487,12.840201703095435,14.399247839617729
1780626033969090000,0.953090087890625,-12.105034493911266,7.8223174269795415,8.903637914714217
1780626033979120000,0.9631201171875,-11.909546993124485,2.447889995723963,3.091112496182322
1780626033989149000,0.97314892578125,-11.043879426848887,1.0755573941633105,2.0163672951847316
1780626033999179000,0.983178955078125,-8.460515961796045,0.6905182123795152,2.1698446232378483
1780626034009208800,0.993208740234375,-5.210666609597205,0.6956298563048243,2.9612089359402654
1780626034019238000,1.00323779296875,-2.270506599165499,0.5159498732417822,3.537659162852168
1780626034029267700,1.013267822265625,0.5259639022558927,0.6605982904121279,4.017069988247752
1780626034039296800,1.023296875,2.4004762103810906,1.1715598538473249,4.063669826859235
1780626034049326800,1.033326904296875,3.65613882728219,0.12892448607683182,2.109385186100006
1780626034059357000,1.04335693359375,5.269914332857728,-1.4176672425419092,-1.1050076527923345
1780626034069386000,1.053385986328125,4.710857723817229,-2.746322030417621,-3.8557507145225998
1780626034079415800,1.063415771484375,2.7521435761779545,-2.841632708445191,-6.521912289771437
1780626034089444900,1.07344482421875,0.7379214763283729,-3.291041778808832,-7.264948332634567
1780626034099475000,1.083474853515625,0.5495896925151348,-2.3681740694522855,-6.404983361914754
1780626034109504000,1.09350390625,0.7871823508426546,-0.7191440028831362,-3.3120664466589687
1780626034119534000,1.1035341796875,4.1801574406892055,-0.8411059564709663,-1.8187381061941383
1780626034129564000,1.11356396484375,7.603362541365623,-3.9957346470132467,-4.187480915445089
1780626034139593000,1.123593017578125,8.539168642750383,-3.957777841323614,-3.472504845896363
1780626034149623000,1.133623046875,11.683809315502643,-9.835665666604042,-8.559198454344273
1780626034159652000,1.143652099609375,7.157941663855314,-1.1967267360687255,-4.6475399746388195
1780626034169681700,1.153681640625,6.751599581801891,2.9485172121495005,1.962933811160922
1780626034179711700,1.163711669921875,8.781599681019783,6.106059452050924,6.512752247238159
1780626034189740800,1.17374072265625,5.314269607412815,10.479607713508605,11.178344011396169
1780626034199771000,1.18377099609375,-7.564206004497408,9.939002122437953,9.105623545348644
1780626034209800000,1.193800048828125,-19.511005162173507,5.7670823487401,4.8662774181097745
1780626034219829800,1.203829833984375,-25.89832953327894,1.8659531540945171,0.6929226431727409
1780626034229858800,1.21385888671875,-26.252708788383007,-1.6454437325149773,-2.1648159814208743
1780626034239889000,1.223888916015625,-17.57591154409647,-2.8928987853020427,-4.1623955740272995
1780626034249919000,1.2339189453125,-8.659555017584562,-2.4904811832159757,-2.7701947811752556
1780626034259948000,1.243947998046875,-3.7950609757602214,-1.072126542931795,-0.9513877013981342
1780626034269977900,1.253977783203125,-3.7184205114111304,-0.7449193723917007,0.15572247663140296
1780626034280007000,1.2640068359375,-0.5428866877451539,0.050858665099740026,0.6728945851445197
1780626034290037000,1.274037109375,4.574360464398563,0.527654924082756,0.5235328757166862
1780626034300067000,1.284067138671875,7.419536252278089,-1.8580612318009138,0.9938660761654377
1780626034310096000,1.294095947265625,11.756834804224967,-3.1968209418445825,0.7755389670610427
1780626034320125700,1.304125732421875,11.975033318513631,-3.3641619600772854,0.26804361843168734
1780626034330155000,1.314155029296875,10.884825175446272,-2.1941595648050307,0.8499789987564086
1780626034340184800,1.324184814453125,9.425879581576584,-4.625981638303399,0.7425292623847722
1780626034350214000,1.3342138671875,7.3847227130502455,-5.6281549395650625,0.6470622247517108
1780626034360243700,1.34424365234375,5.414421587991714,-5.630041776224971,0.9352660031586885
1780626034370273800,1.354273681640625,3.6508138328671453,-4.0082945611178875,1.8849024769753218
1780626034380302800,1.364302734375,0.7469966170571744,-1.5132354024618864,2.9107734646886585
1780626034390333000,1.3743330078125,-0.9882532047197222,1.0933663148373365,3.16510127697885
1780626034400362000,1.384362060546875,-2.6518881352245804,3.6847657868295904,2.6371792263925076
1780626034410391800,1.394391845703125,-2.501692605321109,6.563211099365353,0.6046142451226711
1780626034420422000,1.404421875,-1.523720848380029,10.113528668260575,-2.445589902088046
1780626034430451000,1.414450927734375,-5.143895505094528,8.507551853737235,-5.284711504495143
1780626034440481000,1.42448095703125,-5.608260737049579,4.419994955334067,-7.3472636277496814
1780626034450509800,1.434509765625,-4.399003312970698,2.2526368882149455,-7.103336213442683
1780626034460540000,1.444539794921875,-2.0923051642224193,0.8603945943087339,-5.176489614707231
1780626034470569700,1.45456982421875,0.9294763138413429,-0.45479602409899234,-2.66581173889786
1780626034480599000,1.46459912109375,2.6115514486610887,-2.2462609234422444,-0.06352087053507566
1780626034490628900,1.47462890625,2.5205659403562546,-3.938827641659975,2.341483338664472
1780626034500658000,1.484657958984375,1.5943129724755882,-4.675808622267842,3.9358088783606884
1780626034510687700,1.494687744140625,2.142258404915035,-4.344263130262494,4.121173336800933
1780626034520716800,1.504716796875,2.252422368681431,-2.8722178163230416,2.9973320964619514
1780626034530747000,1.514746826171875,1.5579977965131402,-1.503854995176196,1.4088158275663851
1780626034540777000,1.52477685546875,1.8701263481259345,-0.6578723725795745,-0.02903407904356718
1780626034550805800,1.5348056640625,2.6418179921090603,-0.39623336049318314,-0.9927283043071627
1780626034560835800,1.5448359375,3.845245394860208,-0.13911328713595866,-1.158176348400116
1780626034570865000,1.554864990234375,3.805417826862633,-0.7719459110051393,-0.9726987849742174
1780626034580895000,1.56489501953125,2.05803859135285,-1.8326923972666262,-1.7741031379148362
1780626034590925000,1.574925048828125,2.5845558897078034,-0.9127484664022922,-1.8104075002223252
1780626034600953900,1.584953857421875,0.712311234253645,-0.2558504918128252,-0.8496122112706304
1780626034610984000,1.59498388671875,-0.41932314417958255,1.6778776831299065,-2.6514611419841647
1780626034621013000,1.605012939453125,-3.0780501855134963,4.071710509973764,-4.488813347755372
1780626034631043000,1.61504296875,-6.17467998381257,4.2303479972690345,-4.533215091800689
1780626034641073000,1.625072998046875,-4.402873724663257,-0.5674702171206474,-1.3197634792812167
1780626034651102000,1.63510205078125,-1.6197048956245184,-5.048743524760008,3.3613363812625408
1780626034661131800,1.6451318359375,-7.374319976979494,-3.394014077505469,4.438314455878734
1780626034671160800,1.655160888671875,-6.205124221915006,-3.3635914667129514,5.134675841328502
1780626034681191000,1.66519091796875,-4.744260227203369,-2.533982471290231,3.1153914896532893
1780626034691221000,1.675220947265625,-5.186864878249168,-2.5005156704962253,1.7515496530622243
1780626034701249800,1.685249755859375,-5.8624576164364814,-1.8944640860468147,0.008166939842700957
1780626034711279900,1.69527978515625,-6.96385818464756,0.36894027989804745,-3.4273800482735037
1780626034721309000,1.705308837890625,-0.2654617852449417,1.3571920233130454,-4.078503238853812
1780626034731339000,1.715339111328125,5.511523533350229,2.4379192213296887,-3.9787522402912376
1780626034741369000,1.725369140625,5.198043274867534,2.246086151397228,-2.8146882951572536
1780626034751398000,1.73539794921875,3.2879823912382125,0.021471242573857307,-1.8651910836808383
1780626034761428000,1.745427978515625,2.9652216787129637,-1.5517963115245104,-1.3311537650845944
1780626034771457000,1.75545703125,2.1758085000783205,-1.8163100022643803,-0.7215249066703021
1780626034781487000,1.765487060546875,4.761294948634505,-2.2886504508823156,0.6231073486685752
1780626034791516700,1.7755166015625,4.400969352346658,-2.647433493903279,1.7534309367641805
1780626034801546000,1.7855458984375,3.591264496311545,-2.1344366252481937,2.32265121242255
1780626034811575800,1.795575927734375,3.5408284405380486,0.17136135978996753,1.4273086388513445
1780626034821604900,1.80560498046875,4.167935672497749,3.257070535624027,-0.8405804712921381
1780626034831635000,1.815635009765625,4.451088597255945,5.183216292613745,-3.3972231026798485
1780626034841664800,1.825664794921875,3.2853304154247045,6.954811539360881,-5.15879262997508
1780626034851693800,1.83569384765625,0.1746259876091033,6.846388574042916,-5.4146869609296315
1780626034861724000,1.845723876953125,-2.5500778660446404,5.6684512941181655,-4.526390506477654
1780626034871753000,1.8557529296875,-4.897746907606721,3.2236528346687554,-2.2931652979582546
1780626034881783000,1.865782958984375,-4.37051108571887,0.21685703655183314,0.777888452796638
1780626034891811800,1.875811767578125,-1.8558464783608912,-1.368425364989042,3.1976319659665227
1780626034901842000,1.885842041015625,-2.0405898822933435,-2.271509346467256,4.092968694318831
1780626034911872000,1.8958720703125,-1.905597474479675,-2.5252321786016223,4.08668391496092
1780626034921901000,1.905901123046875,-2.1407073760807513,-2.609355399921536,4.001469099012017
1780626034931931000,1.915930908203125,-1.9328116446197032,-2.961118335047364,4.907417822271585
1780626034941960000,1.9259599609375,-1.5474930613726376,-2.9048189401984215,4.677273434123396
1780626034951990000,1.935989990234375,-0.4935878193080425,-2.758513111209869,4.123946016384661
1780626034962019800,1.946019775390625,1.6595780563294886,-2.128665640631318,3.3929180989623067
1780626034972049000,1.956048828125,1.6150339812040329,-1.6462217311501501,1.3146058042570947
1780626034982078700,1.96607861328125,2.4150340203046796,-1.0508370866656302,1.05399905782789
1780626034992107800,1.976107666015625,1.0128963553279637,-0.18625673110485075,-0.044424248138070103
1780626035002137900,1.986137939453125,0.16199856122620404,0.7141080545425414,-1.4118907049670815
1780626035012168000,1.99616796875,1.7408622548311947,0.7364093181997537,-1.595644367209822
1780626035022197000,2.006197021484375,3.1189743165761232,0.4375198951274156,-0.5519048375897109
1780626035032226800,2.016226806640625,2.210718485417962,0.3085650139123201,-0.3033390959575772
1780626035042256000,2.026255859375,2.800966936057806,0.9353390683948993,-0.8143795698478817
1780626035052286000,2.036285888671875,2.6440198860675097,1.7495336370646952,-1.3662996050067244
1780626035062316000,2.04631591796875,0.8504261580020189,2.471771222048998,-1.9976146639198065
1780626035072344800,2.0563447265625,-0.41389052467159926,2.456253919443488,-2.2151839403942226
1780626035082375000,2.066375,-0.7735976968001573,1.978721162879467,-1.9482950449556111
1780626035092404000,2.076404052734375,-0.9065577220033854,2.1234499518096444,-1.6748168342545628
1780626035102433800,2.086433837890625,-0.7948357882052659,1.9226415482610464,-1.4602277426347137
1780626035112464000,2.0964638671875,-1.2443529951184988,1.116006601190567,-1.5126418204829095
1780626035122492700,2.10649267578125,-0.6959570424325764,0.35909167057871816,-1.4376323183365165
1780626035132522800,2.116522705078125,-0.09363178502991795,0.24612463209033011,-1.376549926994741
1780626035142551800,2.1265517578125,-0.40768180622458455,-0.44072716673612594,-0.4011600763056427
1780626035152582000,2.136581787109375,-0.653500879497081,-0.9490256484419107,0.9553754558600485
1780626035162612000,2.146612060546875,-0.6917863326191902,-0.9769640412032604,1.7260364416211842
1780626035172640800,2.156640869140625,-0.7347200499385594,-1.1271224539667368,1.8702986359529197
1780626035182670800,2.1666708984375,-0.6203641874402761,-1.786015401765704,1.782840424991399
1780626035192700000,2.176699951171875,-0.49392450391650194,-2.0965251200050115,1.6656451012834905
1780626035202730000,2.18672998046875,-0.28395605783462524,-1.2350287019342183,1.5565382453545926
1780626035212760000,2.196760009765625,1.1662433349996804,-1.047308912539482,1.164576497766003
1780626035222788900,2.206788818359375,4.418909498184919,-1.282456223541498,0.25735665859207507
1780626035232819000,2.21681884765625,4.068054617814719,-0.7218120530486106,0.047960240244492885
1780626035242848000,2.226847900390625,0.6581641220677643,-0.8257435521662235,0.03738207454159856
1780626035252877800,2.2368779296875,-1.9851473965346813,-1.2058107907563447,0.3456591383580118
1780626035262908000,2.246907958984375,-1.7179028195261954,-1.919996002188325,0.5622381616860628
1780626035272936700,2.256936767578125,-1.9796113897174596,-1.9141326631128788,0.9014907940026372
1780626035282966800,2.266966796875,-1.7826063239745795,-1.6374433814108371,0.984319883858785
1780626035292995800,2.276995849609375,-1.3151320200882852,-1.420868084409833,0.9098653852466493
1780626035303026000,2.28702587890625,-0.5940495964884758,-0.7339543262630701,0.5705363266929984
1780626035313054700,2.2970546875,0.4350637341469526,0.49049628303349013,-0.40417335971221324
1780626035323084800,2.307084716796875,1.8759454096682369,2.320613276854157,-2.2240409083276984
1780626035333115000,2.317114990234375,2.9229280128628012,3.9607419518262144,-4.615599068237841
1780626035343144000,2.32714404296875,1.2716038440071045,3.7920617939442396,-5.826082819241285
1780626035353174000,2.337174072265625,-1.182955546478182,2.587669637814164,-5.032473942482471
1780626035363204000,2.3472041015625,-2.2895997144311666,1.4820891535699368,-2.8927015091642736
1780626035373233200,2.357233154296875,-1.8041301735185085,0.1740641890078783,-0.19682737108841536
1780626035383263200,2.36726318359375,-1.728623535504937,-1.022177978414297,1.8613681643918156
1780626035393292300,2.377292236328125,-1.9155891455315053,-1.5748171216279268,2.6484473471209404
1780626035403322000,2.387322021484375,-2.2584159100078045,-1.2083610597610472,2.9320123598113654
1780626035413351200,2.39735107421875,-2.31682265239954,-0.40417292132079596,3.192269269889593
1780626035423381000,2.407381103515625,-1.274081924558431,0.2174555869668722,3.363280501067638
1780626035433411000,2.4174111328125,0.5053682734727859,0.40584757653474807,3.1151988896906375
1780626035443440000,2.427440185546875,2.3287449992530047,0.29208558827638625,2.212402054590732
1780626035453470200,2.43747021484375,3.294213979104161,0.2513824064880609,0.7305138304203749
1780626035463499000,2.4474990234375,1.9970289729863404,0.6849976953923702,-0.29540720697976647
1780626035473529000,2.457529052734375,0.040397622970491646,0.9939911638498306,-0.5389871960885823
1780626035483559200,2.46755908203125,-0.7072643261276185,0.8848685258299112,-0.40798626906387503
1780626035493588200,2.477588134765625,0.0244213245511055,0.6669944211900234,-0.3487351848024875
1780626035503618300,2.487618408203125,1.7053092954128979,-0.19288404029011724,-0.754804002872482
1780626035513647000,2.497647216796875,1.8853462752200663,-0.20367314532995223,-1.0924955964174121
1780626035523677200,2.50767724609375,1.1499246528834104,0.3207861975818872,-1.0827764586966484
1780626035533707300,2.517707275390625,0.7887420013748109,-0.4439396990418434,-1.1745715298186987
1780626035543736300,2.527736328125,1.1220638554029165,-1.1624328368008137,-1.553210562236607
1780626035553766100,2.53776611328125,0.3749168700896203,-0.41860944295227526,-1.4093778453633188
1780626035563795200,2.547795166015625,-0.9707961662232876,-0.036087796947360036,-0.6201407539479434
1780626035573825000,2.557824951171875,-1.0903080963104963,-0.3843623054355383,-0.0937712665658444
1780626035583855000,2.567855224609375,-0.47136181284412737,-1.1238631599098443,0.1789241962596774
1780626035593884200,2.57788427734375,0.4531821591615677,-1.9378823720127343,-0.370101140370965
1780626035603914200,2.587914306640625,1.0926545133061707,-1.5642974811792372,-1.4324933480128645
1780626035613943000,2.597943115234375,0.9447131920702755,-0.6906950302511453,-1.8471905859574675
1780626035623973000,2.60797314453125,0.009144260442256927,0.07701134348809718,-1.754252482280135
1780626035634003200,2.618003173828125,-0.55079687634781,0.8908440931081771,-1.4234718371674417
1780626035644032300,2.6280322265625,-0.3315133433014154,0.7559902169823646,-0.9835945652589201
1780626035654062000,2.63806201171875,-0.39348610761165614,0.18171382697820662,-0.5695969269510358
1780626035664091100,2.648091064453125,-0.6309319048143923,-0.2970242137223482,-0.06524557543583213
1780626035674121200,2.658121337890625,-0.7904710171245038,-0.7275707627058029,0.32516032101288433
1780626035684151300,2.6681513671875,-0.9592286241568624,-0.8610317231684923,0.6752451668586582
1780626035694180400,2.678180419921875,-1.3538878672011196,-0.5055851310938596,1.118366754450649
1780626035704210000,2.6882099609375,-1.0348369689792394,-0.18391338284909725,1.4886968812718986
1780626035714239200,2.6982392578125,0.4275229633785784,0.1967722799003124,1.5186974672600626
1780626035724269000,2.70826904296875,1.3008898519851266,0.6514572448402642,1.259609893222153
1780626035734299100,2.718299072265625,1.3017081826306878,0.8181447676002979,0.9492758238106965
1780626035744328200,2.728328125,0.8686421981722116,0.4573971465080976,0.44168037580773234
1780626035754358000,2.73835791015625,0.38785190111696716,0.1417781224310398,-0.12073621118515729
1780626035764387000,2.748386962890625,0.06399389487430453,0.11570961519479751,-0.5306429269175976
1780626035774417200,2.758417236328125,-0.1466442671626806,-0.10252630849480629,-0.8032262346055358
1780626035784447200,2.768447265625,-0.1265096800200641,-0.6497171231746673,-0.8297851557072251
1780626035794476000,2.77847607421875,0.03978913568332791,-0.8405155893623828,-0.5768554467119276
1780626035804506000,2.788506103515625,0.23697803356051445,-0.7222118660211563,-0.23634821122437713
1780626035814535200,2.79853515625,0.8929466183453798,-0.41070670700371265,-0.187285781891644
1780626035824565200,2.808565185546875,1.4189303943455218,0.39238954454660413,-0.49982802887186406
1780626035834594300,2.81859423828125,1.2507790826432406,1.2139327224135399,-0.8831861257009208
1780626035844624100,2.8286240234375,0.9134778035901486,1.5054004710525273,-1.1745599124461412
1780626035854654000,2.838654052734375,-0.08691782047450541,1.5288737010985611,-1.1666374488838016
1780626035864683300,2.848683349609375,-1.0712607198826969,1.1982114216685293,-0.8580681971877813
1780626035874713000,2.858713134765625,-1.3015017002731561,0.6975701767176389,-0.48402489506229757
1780626035884742100,2.8687421875,-1.5277588717244566,0.41319852381944655,0.04355418730527162
1780626035894772000,2.87877197265625,-1.4464571375660598,-0.27757249427735803,0.5024865805566311
1780626035904802000,2.888802001953125,-1.2870439897231758,-0.3321826208651066,0.7783651303976774
1780626035914831000,2.8988310546875,-0.5871316337935626,-0.31636253592073915,0.926621289736405
1780626035924861200,2.908861083984375,-1.0427968419425189,0.9582347908139228,0.818264740718156
1780626035934890000,2.918889892578125,-1.5271715733557938,1.2609516632199287,0.9091240653600543
1780626035944920000,2.928920166015625,-1.051143376135826,1.0174579641550778,0.7650541787300258
1780626035954950100,2.9389501953125,-0.5172502883158624,0.2837789477020502,0.4630906089093536
1780626035964979200,2.948979248046875,-0.26594503871724007,0.3545774080246687,-0.044417964527755975
1780626035975009300,2.95900927734375,-0.5677307677529752,1.5125129334062337,-0.6978820191457867
1780626035985038000,2.9690380859375,-0.23841756484434007,2.759061392742395,-1.2469340976528822
1780626035995068200,2.979068115234375,0.032983474256470795,3.097819884866476,-1.8050544487565754
1780626036005098000,2.989097900390625,-0.24597959759645163,3.7191602238625285,-1.9720017914965748
1780626036015127300,2.999127197265625,0.22735336919017135,3.3106828833460806,-1.803663140528649
1780626036025157000,3.0091572265625,0.42510991088747974,1.9816168843209743,-1.1464725396681577
1780626036035186200,3.019186279296875,0.27020108872652054,0.9871505041748285,-0.07288206166364253
1780626036045216000,3.029216064453125,0.40741869830898936,0.11070727686285972,0.9649471479341387
1780626036055246000,3.03924609375,0.7914899849086999,-0.675258976188302,1.6783812487378715
1780626036065275100,3.049275146484375,1.1878565433274955,-1.0797650749862193,1.8856874898731708
1780626036075305200,3.05930517578125,-0.2571124745726585,-0.9294260449588299,2.2004050350658595
1780626036085334000,3.069333984375,-1.2906179026871918,-0.42676176974773405,2.2287210289679464
1780626036095364000,3.079364013671875,-1.0451724850326776,-1.3527923270493745,1.6642773200616239
1780626036105394200,3.089394287109375,0.14563943750169128,-5.357585602048039,0.4254541942805052
1780626036115423200,3.09942333984375,2.50416191804409,-8.665824599373341,-0.7823667672544717
1780626036125453300,3.109453369140625,3.3489287351101633,-9.242471810162067,-1.647838080305606
1780626036135482000,3.119482177734375,3.053956777742505,-7.231371057203412,-1.6575643784195184
1780626036145512200,3.12951220703125,2.932887681341171,-4.700518116110563,-0.9448208902284503
1780626036155542000,3.1395419921875,2.6428426589816807,-2.242132445335388,-0.3102198319146409
1780626036165571300,3.1495712890625,1.8412480441659689,0.526334489133954,-0.04253821519576013
1780626036175601200,3.15960107421875,0.9762199448376894,2.9595196676790714,-0.48446832798086104
1780626036185630200,3.169630126953125,-0.23335224427878856,4.309427963724732,-1.21742421779111
1780626036195660000,3.179659912109375,-2.440606268456578,4.413454739910364,-2.000654177746177
1780626036205689000,3.189689208984375,-4.365206549569964,3.1506559875190256,-2.5667656737342477
1780626036215719200,3.19971923828125,-3.0818361337929963,-0.34947336288392544,-2.35158650726676
1780626036225749200,3.209749267578125,-1.4587427647739648,-1.2173083363264798,-2.037142079927027
1780626036235778000,3.219778076171875,-1.812521131375432,0.24039397948384283,-1.2367903047792612
1780626036245808000,3.22980810546875,-2.8391484904140234,0.8967775748103857,-0.7596229474615305
1780626036255837200,3.239837158203125,-3.352126069846749,1.7659049261510371,-0.42701705968305465
1780626036265867300,3.2498671875,-3.8472868375599383,0.8079395999282598,0.1468132122551091
1780626036275897300,3.2598974609375,-2.2402163825809955,-0.6101151806265115,-0.030075514387898145
1780626036285926100,3.269926025390625,2.2679449319839478,-2.2673294304341076,-0.6627229544159025
1780626036295956200,3.279956298828125,5.747265887635946,-2.1064467945605516,-1.6706873332343994
1780626036305985300,3.2899853515625,4.526980581325292,-1.4424790277153252,-1.7277794858962296
1780626036316015400,3.300015380859375,2.1162720230042935,0.21124562641084194,-1.2203658242009578
1780626036326045000,3.310044921875,0.7449369080483913,0.7217752281695604,-0.6947922364369035
1780626036336074200,3.32007421875,1.2923358125209807,0.6816793646246194,-0.0773799576047808
1780626036346104000,3.33010400390625,2.0395476797640324,1.9717203442066906,0.36774358092676845
1780626036356133000,3.340133056640625,1.7354361381292343,2.1705618315964936,0.8346713933788239
1780626036366163200,3.3501630859375,0.5987310323029756,2.116062179645896,0.7422241419583558
1780626036376193300,3.360193359375,-0.48379064791500564,4.444606834021211,0.38804742368906736
1780626036386222300,3.370222412109375,-1.19908703545928,6.799709240454435,0.5323867018450051
1780626036396252400,3.38025244140625,-0.8475397889107465,7.771233136430382,0.9699426911991089
1780626036406281200,3.39028125,-0.14250353236244992,6.186632287412881,1.3235171327263116
1780626036416311300,3.400311279296875,0.32986908322572706,1.3078583758234976,1.1301012505818158
1780626036426341400,3.41034130859375,0.1781213371778838,-1.8277122707664966,0.8162585154622792
1780626036436370400,3.420370361328125,0.16803948535826055,-2.5580729564517735,0.9081644265476614
1780626036446400500,3.430400390625,0.5555816264063119,-3.119697954675555,0.5942888851370662
1780626036456429300,3.44042919921875,0.03905713161434978,-1.895067897158861,-0.3867039366582408
1780626036466459400,3.45045947265625,-0.890311009144783,-0.4245025926440954,-1.856292760823667
1780626036476489200,3.4604892578125,-0.11954111964907496,-0.8213193059831857,-3.3039003835991023
1780626036486518300,3.470518310546875,1.6324661775201559,-2.8083868569254875,-4.1403807260960335
1780626036496548400,3.48054833984375,1.575894395470619,-4.204441987118125,-4.5217225146666165
1780626036506577200,3.4905771484375,0.544592578347586,-4.49423566506505,-4.588768636718392
1780626036516607200,3.500607177734375,1.4138772026091813,-4.392501968252659,-3.800278125886619
1780626036526637300,3.51063720703125,2.100766995358467,-4.341688311338425,-2.25509071110785
1780626036536666400,3.520666259765625,1.8456050703316926,-4.430418734192848,-1.0760272766973822
1780626036546696400,3.530696533203125,1.9632845242947339,-4.288343090119958,-0.02418335107676685
1780626036556725200,3.540725341796875,2.028822287610173,-3.7900562993407245,0.42986514259055253
1780626036566755300,3.55075537109375,1.430506265848875,-3.451411788985133,0.2625927326146513
1780626036576784400,3.560784423828125,0.8189175055384635,-3.3175971927791834,-0.060414721213281154
1780626036586814500,3.570814453125,0.6980588370174169,-4.126602376112341,-0.5141200274661183
1780626036596844500,3.580844482421875,0.6727677438944578,-5.7353480708271265,-1.0121558391589671
1780626036606873300,3.590873291015625,0.5177659827530384,-6.91182463054955,-0.9398287079643458
1780626036616903400,3.6009033203125,0.6692039139330387,-7.959549722674488,-0.6171564774401486
1780626036626932500,3.610932373046875,0.7026403195887804,-8.41175339219272,-0.33489633680321274
1780626036636962300,3.62096240234375,1.4830167898088693,-7.67569303356111,0.1761746052905917
1780626036646992100,3.6309921875,3.230513368088007,-4.990665429800749,0.8791814931694417
1780626036657021200,3.641021240234375,4.509906696927547,-2.2246225076079367,1.4431065119639037
1780626036667051300,3.65105126953125,4.164733661586046,-0.5194388844013214,1.8359014224410055
1780626036677080300,3.661080322265625,2.0327572889715433,-0.2662766087591648,1.4802955481514333
1780626036687110400,3.6711103515625,0.09538462004661559,0.41638241455256936,0.7791707476921379
1780626036697140200,3.68114013671875,0.016533786171674728,2.8512954398036,0.4513941797662526
1780626036707169300,3.691169189453125,0.7318178987562656,7.278880411875248,0.5956859655186534
1780626036717199400,3.701199462890625,-2.2226444855332375,9.579721066766977,-0.19529628906361757
1780626036727228400,3.711228515625,-3.2956524874746798,14.278014492565392,-1.320162853862345
1780626036737258500,3.721258544921875,-1.2908090413451194,15.705018303251265,-3.4102330986395475
1780626036747288300,3.731288330078125,0.055224386028572915,13.36174486629963,-4.802486790722608
1780626036757317400,3.7413173828125,-0.8753379694838076,9.836773920106888,-4.313284931413829
1780626036767347500,3.751347412109375,-1.3564847518265246,5.123852249497175,-3.0794708659663796
1780626036777376500,3.76137646484375,-1.8261434140145778,2.1267858182340857,-1.6835935765586791
1780626036787406000,3.771406005859375,-2.6835119385004043,0.3235457254230976,-0.6297787161912769
1780626036797436200,3.781436279296875,-3.369366542983055,-1.0241869801491499,-0.12662680359371006
1780626036807465200,3.79146533203125,-3.5051100614249706,-1.4866712206631898,0.2935089904093183
1780626036817495300,3.801495361328125,-3.065724956947565,-1.3501777606368064,0.7979717481434345
1780626036827524400,3.8115244140625,-2.173243033504486,-1.220450726005435,1.2194175105001777
1780626036837554200,3.82155419921875,-1.3082771857574582,-1.5000737230718135,1.4410647770032285
1780626036847584300,3.831584228515625,-0.9017933571457862,-1.992919199579954,1.432927063255012
1780626036857613300,3.84161328125,-0.8491901864662766,-2.3585452403634783,1.2189416366167365
1780626036867643400,3.851643310546875,-0.9496658460415899,-2.672122529479861,0.8332474249903112
1780626036877672400,3.86167236328125,-0.875923441221565,-3.0074364341080186,0.5076999678233638
1780626036887702300,3.871702392578125,-0.5804182537600397,-2.6398195117682217,0.2668317218912765
1780626036897732400,3.881732421875,-0.14103110345602035,-2.5153601884067056,0.0048506914341822265
1780626036907761400,3.891761474609375,0.32218364328965543,-2.7069267163574695,-0.3815338770765811
1780626036917791500,3.90179150390625,0.8455740417957306,-2.7573978434443474,-0.7465665550768374
1780626036927820300,3.9118203125,0.49517771884799,-2.455092474448681,-0.8770089714359491
1780626036937850000,3.92185009765625,0.032669074545055625,-2.8778426704674955,-1.1880439556583762
1780626036947880200,3.931880126953125,0.2552032799504697,-2.7973253646850584,-1.3136534719683228
1780626036957909200,3.9419091796875,0.07040449256896972,-2.7276766589194534,-1.3779083558663725
1780626036967939300,3.951939208984375,0.26436609896272417,-2.6296014846146103,-1.211126286690682
1780626036977968000,3.961968017578125,0.09953794033378362,-1.6494886239916084,-0.8038515999622643
1780626036987998200,3.971998291015625,0.6891138985395431,-1.1043249312251806,-0.4810837270438671
1780626036998028300,3.9820283203125,1.6266484311521052,-0.85786536809206,-0.30264866600800305
1780626037008057300,3.992057373046875,1.7722645243108273,-0.8036246593385934,-0.4187278086349368
1780626037018087400,4.00208740234375,1.7163547133013606,-0.6761316673696041,-0.6163632812358438
1780626037028116200,4.0121162109375,1.9203112056173384,-0.004065934264659881,-0.710563513803482
1780626037038146300,4.022146240234375,2.571127083814144,1.0186749387294054,-0.6990007209774106
1780626037048175400,4.03217529296875,2.966304797774553,1.8953806163698435,-0.6028753655660897
1780626037058205400,4.042205322265625,2.8752959085941314,2.2622984505295753,-0.3324486513901502
1780626037068235500,4.052235595703125,2.778856811058521,2.1181576906204223,0.08676120514068753
1780626037078264300,4.062264404296875,3.097670247262716,1.9027303946107625,0.531606182459183
1780626037088294100,4.072294189453125,3.4688004384204745,1.8771318429738282,1.0840261664967983
1780626037098323500,4.082323486328125,3.265067964118719,2.217400739660859,1.7383311289183794
1780626037108353300,4.092353271484375,2.3972693771637976,2.693866743776202,2.3396938248991965
1780626037118383400,4.10238330078125,1.2494121782042085,2.836140540769696,2.7107237705528733
1780626037128412200,4.112412109375,0.7736170590877532,2.6076953577548263,3.0049414024218914
1780626037138442200,4.122442138671875,0.7662615817584097,1.9359236391603944,3.1344378431677815
1780626037148471300,4.13247119140625,1.12956414803043,0.8377315116018056,3.1364202491566537
1780626037158501400,4.14250146484375,1.9420751475274562,-0.04797054244279861,3.246721575567126
1780626037168531500,4.152531494140625,2.6072794704303144,0.05259703319966793,3.2508944773375985
1780626037178560300,4.162560302734375,1.8311749784409999,0.5012169990122318,2.622006207180023
1780626037188590300,4.17259033203125,0.12146627902537584,0.4976631059229374,1.5633382807582616
1780626037198619400,4.182619384765625,-1.062547690464556,0.08825286847054958,1.3534434844344854
1780626037208649500,4.1926494140625,-0.8652230373784899,-0.5683218655139207,1.7052755392737686
1780626037218679600,4.202679443359375,-0.03732055361270904,-1.942116648581624,1.7311437016323208
1780626037228708400,4.212708251953125,-0.19062457092553375,-2.6878824086695907,1.086877975731343
1780626037238738200,4.22273828125,-1.1054551042988896,-2.3651176044911146,0.07067403022535144
1780626037248767500,4.232767578125,-2.2028081506848336,-1.4881523991316556,-0.7135031474519521
1780626037258797300,4.24279736328125,-2.9714427451848984,-0.7087053187161684,-1.3596166201114654
1780626037268827100,4.2528271484375,-2.860319288736582,-0.11638590702116489,-1.7763816042408347
1780626037278856200,4.262856201171875,-1.8069092828430233,0.4890390699625015,-1.801677665799856
1780626037288886300,4.27288623046875,-0.532839633244276,0.9566706102371215,-1.6303741736769675
1780626037298915300,4.282915283203125,-0.08961071282029151,0.9725959091216325,-1.4428160045847296
1780626037308945400,4.2929453125,-0.3163013072527945,0.8808768258452415,-1.2438738332994281
1780626037318975200,4.302975341796875,-0.888769113465026,0.672058718842268,-1.060914244043827
1780626037329004300,4.31300439453125,-1.832547435837984,0.32264439266920086,-0.6449201712217182
1780626037339034400,4.323034423828125,-2.4735446614623067,-0.04746493100821972,-0.06202230254039168
1780626037349063400,4.3330634765625,-2.567633981001377,-0.4397095141261816,0.34789325408563015
1780626037359093500,4.343093505859375,-2.3617700476288794,-0.7166203296244144,0.5947706773046404
1780626037369123300,4.353123291015625,-1.9297686236619949,-1.012129462608695,0.6870945946063846
1780626037379152400,4.36315234375,-1.5290321065306662,-1.1180471671074628,0.688309815615043
1780626037389182200,4.37318212890625,-1.1772341000914572,-1.1506336779356001,0.3897308467313647
1780626037399211500,4.38321142578125,-0.8061796045184135,-1.0436802006483077,-0.09389511214122176
1780626037409241000,4.393240966796875,-0.609258271536231,-0.9954483769208192,-0.5322302691742777
1780626037419270400,4.4032705078125,-0.6472323206216096,-1.0175234306067227,-0.8825754464566707
1780626037429300200,4.41330029296875,-0.7797066081345081,-1.1383616408616304,-0.9712853379797189
1780626037439330300,4.423330322265625,-0.9440016828000545,-1.0782201836317777,-0.892365165195614
1780626037449359400,4.433359375,-0.9272253200441598,-0.8996084143221378,-0.7290861357048154
1780626037459389200,4.44338916015625,-0.7734592381775379,-0.6538000085741281,-0.3882672404522076
1780626037469418200,4.453418212890625,-0.5880769518196582,-0.12623451634049415,0.03947473597191274
1780626037479448300,4.4634482421875,-0.3608896599113941,0.5271195020318031,0.5219408938175067
1780626037489478400,4.473478515625,-0.3772889329832047,0.8445283321350813,0.7746833000797778
1780626037499507500,4.483507568359375,-0.6415887617766857,0.9848527486264705,0.7730030919078738
1780626037509537300,4.493537353515625,-0.8760895185034722,0.9637292965769767,0.735270231167227
1780626037519566300,4.50356640625,-0.9168751909434795,0.7828869917362928,0.6945581354200839
1780626037529596400,4.513596435546875,-0.8662987768512219,0.2957365119993686,0.6808604494571685
1780626037539626200,4.523626220703125,-0.6433708959531038,-0.22633038281798362,0.6172770350798964
1780626037549655300,4.5336552734375,-0.3666179744303226,-0.48014440036714073,0.40504506451282646
1780626037559685000,4.54368505859375,-0.15621990475952624,-0.5696598361194133,0.19868183984868226
1780626037569714400,4.55371435546875,-0.22852526251375674,-0.34182781656682487,0.04323558634277433
1780626037579744300,4.563744140625,-0.4862099109511822,0.15441957733929157,-0.13931487412266433
1780626037589774300,4.5737744140625,-0.7171557516753673,0.7495119608789682,-0.400611210251227
1780626037599803100,4.58380322265625,-0.9621276335339992,1.359759243452549,-0.5994033055413513
1780626037609833200,4.593833251953125,-1.337934949657321,1.9020067565113306,-0.6917225466679782
1780626037619862300,4.6038623046875,-1.153262345938757,2.1209511207312346,-0.8175392029225825
1780626037629892400,4.613892333984375,-0.6502706654042005,1.7876579082757234,-0.8204521677598356
1780626037639922400,4.62392236328125,0.004454568256065249,1.291941844767332,-0.8510733698643743
1780626037649951200,4.633951171875,0.2986152823060751,0.8518944769889116,-0.8622448252853006
1780626037659981300,4.643981201171875,0.24338150739464906,0.5050684137433767,-0.9456650859676301
1780626037670010400,4.65401025390625,0.14305358572695404,0.1829220337241888,-1.0157686958938836
1780626037680040400,4.66404052734375,-0.06092351098563522,0.05943477026522159,-1.0620594685561955
1780626037690070300,4.6740703125,-0.27895488854646683,0.031949966490268704,-1.08956911451146
1780626037700099300,4.684099365234375,-0.4196323927918449,0.003984685721993446,-1.114420062651485
1780626037710129200,4.694129150390625,-0.5406757336974144,0.07564005513489246,-1.1260974948331712
1780626037720158500,4.704158447265625,-0.6172977856069803,0.09439327092170714,-1.0906558868348597
1780626037730188300,4.714188232421875,-0.6288602131068706,0.04935585932135582,-0.9594128946825862
1780626037740218400,4.72421826171875,-0.5836708258152008,0.19064941310584543,-0.8547386143736541
1780626037750247200,4.7342470703125,-0.7054372568309306,0.4555342752456665,-0.7025499378915876
1780626037760277200,4.74427734375,-0.9831856921970844,0.6241998200803994,-0.5101959128249436
1780626037770306300,4.754306396484375,-1.3227297817409038,0.7489905673533678,-0.32224706391468644
1780626037780336400,4.76433642578125,-1.6542998236656188,0.8171358828186989,-0.10729542259275912
1780626037790365200,4.774365234375,-1.4957622896134852,0.7050403664678335,-0.036771176101639866
1780626037800395300,4.784395263671875,-0.2744295566091314,0.645922407066822,-0.18158647427149116
1780626037810425300,4.79442529296875,1.3607225355267525,1.1360399199157953,-0.637642800629884
1780626037820454400,4.804454345703125,0.587330005909875,1.6071306607335805,-0.9474666554968804
1780626037830484500,4.814484375,-1.3348913441777228,0.9872551335930824,-0.969293944966793
1780626037840513300,4.82451318359375,-2.4077939860485493,-0.4370943631917238,-1.0202161768220364
1780626037850543400,4.83454345703125,-2.3707028572775424,-1.4589865104019641,-0.8697584888510406
1780626037860573200,4.8445732421875,-1.6666005023121833,-2.027930891728401,-0.427093778181076
1780626037870602500,4.8546025390625,-0.903564604602009,-2.064529560807347,-0.010334383542276919
1780626037880632300,4.86463232421875,-0.6626295039787888,-1.2479495583057403,0.5638750421728939
1780626037890661000,4.8746611328125,-0.7425250246010721,-0.14974047961235046,1.1567235192432999
1780626037900691200,4.884691162109375,-0.8804967404864728,0.7622112834542989,1.5772528243422508
1780626037910721300,4.89472119140625,-1.3797687429107726,1.5659002402007578,2.022929137918353
1780626037920750300,4.904750244140625,-1.5046927611745893,1.8135306006789207,2.3376596887230874
1780626037930780400,4.914780517578125,-1.538157954533398,1.2361907314509153,2.1775720026195047
1780626037940809200,4.924809326171875,-1.8327698464170097,0.03661562021374702,1.6464844737395643
1780626037950839300,4.93483935546875,-1.7716098597943781,-1.2028723992168902,1.33064420812726
1780626037960869400,4.944869384765625,-1.621652814821899,-2.168977777275443,1.1156582261443138
1780626037970898400,4.9548984375,-1.4475053314447401,-3.0539503480017185,0.9157388073246926
1780626037980928500,4.964928466796875,-1.1809002213835715,-3.6544314388424155,0.7571132296629249
1780626037990957300,4.974957275390625,-0.9487693355932831,-3.919865751558542,0.7080849217955023
1780626038000987400,4.9849873046875,-0.3714151455789804,-3.920401173609495,0.7842346069529652
1780626038011017200,4.995017333984375,0.31269349201917646,-3.7157881170809266,0.7097565082695335
1780626038021046500,5.005046630859375,0.8323366668209433,-3.327414822438359,0.5602580207195133
1780626038031076400,5.015076416015625,1.294905370748043,-2.926667783913016,0.3241656839523464
1780626038041105200,5.025105224609375,1.6980036485746501,-2.5623452269434925,-0.0011110299818217753
1780626038051135200,5.03513525390625,1.9847814858317374,-2.174527228096127,-0.41474641084857283
1780626038061165300,5.045165283203125,2.156281377309561,-1.7376421237409114,-0.8857856406748295
1780626038071194400,5.0551943359375,2.0009508226051924,-1.4410072015970945,-1.3066858249127864
1780626038081224200,5.06522412109375,1.8060817459776997,-1.4450503395080565,-1.514521058358252
1780626038091253200,5.075253173828125,2.043383312404156,-1.3725281241327523,-1.550593219345063
1780626038101283300,5.085283447265625,2.2355084971509873,-0.6658364833265542,-1.7222653986498713
1780626038111312400,5.0953125,1.6007940050579605,0.7953367234647274,-1.8388778079032897
1780626038121342500,5.105342529296875,-0.963218570575863,2.9132746338546274,-0.9626624710630625
1780626038131372300,5.115372314453125,-1.8484872016392646,4.318061352035403,0.6335632762312888
1780626038141401300,5.1254013671875,0.46697468380108476,4.233648207858205,1.8613930065721271
1780626038151431400,5.135431396484375,1.6764533494152127,4.1008115167737005,2.4692393654838205
1780626038161460500,5.14546044921875,-1.5346809260725973,2.7647154729813335,2.922416556209326
1780626038171490300,5.155490234375,-2.325002597854286,-0.08691898951828479,3.351273252409696
1780626038181520100,5.16552001953125,0.9114882372081279,-2.57700854306817,3.813832311725616
1780626038191549200,5.175549072265625,3.300998524677753,-2.5786609864503145,4.623465856090188
1780626038201579300,5.185579345703125,3.5805157232820988,-1.076363742110133,4.8601294168740505
1780626038211608300,5.1956083984375,0.16068375230059026,0.4975029469251632,3.8079035061985254
1780626038221638100,5.20563818359375,-2.4560686260044573,1.9677666381448506,2.2515895711190996
1780626038231668200,5.215668212890625,-2.0305740997135637,2.8119559475839138,0.5213011711418628
1780626038241697300,5.225697265625,-2.1361374378167093,2.3807629173904656,-0.189374570864439
1780626038251727400,5.235727294921875,-1.8170283796668052,1.8741981276094912,-0.4241305444613099
1780626038261756400,5.24575634765625,-0.4270328417740762,1.6080004293054342,-0.6168583712764084
1780626038271786200,5.2557861328125,0.33550964639596637,0.7518272520840168,-0.9114189713642
1780626038281816300,5.26581640625,-0.48950792958326633,-0.550516159710288,-1.1810640336431562
1780626038291845400,5.275845458984375,-1.437996329343319,-1.4572919814437626,-1.3902553578726946
1780626038301875500,5.28587548828125,-1.5554548340320586,-1.6954472420901059,-1.4126324632450937
1780626038311904500,5.295904541015625,-1.3866250385463237,-1.3785457769870757,-1.1667147519037127
1780626038321934300,5.305934326171875,-1.0723755492568015,-0.7371756263971329,-0.7606338050045073
1780626038331964200,5.315964111328125,-0.9108568805020302,-0.12030161916017532,-0.375569342648983
1780626038341993200,5.3259931640625,-1.1735177829820662,0.14738953257203102,-0.04953881467282772
1780626038352023300,5.336023193359375,-1.4944295797049998,0.18953356081843376,0.2545347330391407
1780626038362052000,5.346052001953125,-1.372795250636339,0.20920038431882856,0.5142084364019334
1780626038372082200,5.356082275390625,-1.037349828583002,0.19055881221294402,0.7050640396043658
1780626038382112300,5.3661123046875,-0.6528817246854305,0.10399755009114742,0.7798840105280279
1780626038392141300,5.376141357421875,-0.4217384251603856,-0.09180851512551307,0.741983318939805
1780626038402171400,5.38617138671875,-0.4054980689773336,-0.22612989180982113,0.5682052533969283
1780626038412200200,5.3962001953125,-0.3883739156970754,-0.2039092921733856,0.29602585033476353
1780626038422230300,5.406230224609375,-0.42960141362044957,-0.18131226043999193,0.1096776415541768
1780626038432260400,5.41626025390625,-0.4598257984271273,-0.16047463959455488,0.04330430419743061
1780626038442289400,5.426289306640625,-0.482728535108827,-0.14359832359552382,-0.049997372095286846
1780626038452319500,5.436319580078125,-0.43991464477684344,-0.075372344109416,-0.11767010161280632
1780626038462348300,5.446348388671875,-0.4357704211115837,-0.02293839251697063,-0.1306283673852682
1780626038472378400,5.45637841796875,-0.4469464796423912,-0.10295008686482905,-0.15092004478573798
1780626038482407400,5.466407470703125,-0.4941583492049947,-0.19826164167523383,-0.118771048592031
1780626038492437200,5.476437255859375,-0.515280595678091,-0.42034371939897536,-0.070603522272408
1780626038502467000,5.486467041015625,-0.5596726585796102,-0.797241680303216,-0.09659224227070808
1780626038512496000,5.49649609375,-0.6817220347225665,-1.0940361769229172,-0.09953823259472847
1780626038522526200,5.506526123046875,-0.9004057021796703,-0.9778659584790468,-0.025628654514253137
1780626038532555300,5.51655517578125,-0.9877975699067115,-0.4256915101677179,0.09548574233353137
1780626038542585300,5.52658544921875,-0.9282043942093848,0.3940256213158369,0.29436025521010156
1780626038552615200,5.536615234375,-0.8934405393421649,1.13233814278841,0.4687041379421949
1780626038562644200,5.546644287109375,-0.9053507573664188,1.3347019590854643,0.5446995823860168
1780626038572674300,5.55667431640625,-0.8573720316171646,0.8906406794905662,0.5432318479210138
1780626038582703400,5.566703369140625,-0.7481108619093895,0.1437257493674755,0.38095308151394125
1780626038592733400,5.5767333984375,-0.5163876801371574,-0.3768552908062935,0.11798311308473348
1780626038602763300,5.58676318359375,-0.22381576964855193,-0.7958674693405627,-0.11995353637486696
1780626038612792300,5.596792236328125,0.015058452922105788,-1.236222880154848,-0.36761779912263154
1780626038622822400,5.606822509765625,0.09161679194569587,-1.344969670599699,-0.4527928675830364
1780626038632851500,5.6168515625,0.03784895911769708,-0.829151899304986,-0.35741730762571094
1780626038642881300,5.62688134765625,0.06955225508722943,0.1497697057068348,-0.1412982299596071
1780626038652911000,5.6369111328125,0.04390928435325622,0.8475865506619215,0.04620411729216575
1780626038662940200,5.646940185546875,-0.1982242322742939,1.0720569848269224,0.03900660700351
1780626038672970200,5.65697021484375,-0.3003016279578209,0.8931360034376382,-0.12556202390640972
1780626038682999300,5.666999267578125,-0.1179582709044218,0.20209201361835002,-0.30406507214456796
1780626038693029000,5.677029052734375,-0.16582944462597368,-0.22022505168020723,-0.32011136706024407
1780626038703059200,5.68705908203125,-0.33275545231699943,-0.17552257112264633,-0.2457964230492711
1780626038713088300,5.697088134765625,-0.2767144161432981,-0.15645079090595246,-0.12347206588983535
1780626038723118300,5.707118408203125,-0.26218612457513807,-0.1811924334526062,-0.04011544502824545
1780626038733147400,5.7171474609375,-0.38785657729208467,-0.2726461437910795,-0.052770051679015155
1780626038743177200,5.72717724609375,-0.5341068767011166,-0.3961486048191786,-0.12395254288315773
1780626038753207300,5.737207275390625,-0.5169353771477937,-0.44723231084644793,-0.19292232647389174
1780626038763236400,5.747236328125,-0.40460897465050216,-0.3618336627632379,-0.10159925677776337
1780626038773266400,5.757266357421875,-0.13954174168109892,-0.1997352213591337,0.0718894704297185
1780626038783295500,5.76729541015625,0.13306640818715096,0.02661094354987144,0.0889078252479434
1780626038793325300,5.7773251953125,0.26915128741264344,0.3945610433667898,-0.02332417696416378
1780626038803355100,5.787355224609375,0.35441783354878426,0.65116673746109,-0.20849632770270107
1780626038813384200,5.79738427734375,0.4521487244606018,0.5553372962564229,-0.2935653054401278
1780626038823414300,5.807414306640625,0.5333873302549124,0.1281137542158365,-0.27707915780246256
1780626038833443000,5.817443115234375,0.45240123791694636,-0.26918285159468647,-0.20719109032303093
1780626038843473200,5.82747314453125,0.38685236868560313,-0.47542146349847314,-0.18434125287234782
1780626038853502200,5.837502197265625,0.33150399095118044,-0.4247948535889387,-0.16852613636404276
1780626038863532300,5.8475322265625,0.2437280923426151,-0.12336743647158145,-0.07749269726425409
1780626038873562400,5.857562255859375,0.22741817805469033,0.3065560121774673,0.012043781276047228
1780626038883591200,5.867591064453125,0.18609657210707664,0.529570402315259,0.12418576711714267
1780626038893621200,5.877621337890625,0.14271218841075897,0.5306248798042535,0.1311056295081973
1780626038903650300,5.887650390625,0.06226502525508403,0.3416226493835449,0.0017892215043306349
1780626038913680400,5.897680419921875,-0.09544773927754722,0.05400047025680542,-0.0382896909058094
1780626038923710500,5.90771044921875,-0.27954174852371216,-0.2051595844954252,0.012065116325020789
1780626038933739300,5.9177392578125,-0.4218786738812923,-0.3057014411747455,0.09506488657295703
1780626038943769300,5.927769287109375,-0.5231944375425577,-0.4581090941697359,0.30939547338709233
1780626038953798400,5.93779833984375,-0.5121288536489009,-0.6226707108169793,0.4252022653460502
1780626038963828200,5.947828125,-0.3716460317254066,-0.7185784779548645,0.4363499745652079
1780626038973858300,5.9578583984375,-0.11035479189706966,-0.6875035407334565,0.21749226571545002
1780626038983887000,5.96788720703125,0.07145487840473652,-0.6640718117415905,-0.021126813050359485
1780626038993917200,5.977917236328125,0.2166910506014712,-0.5521709411799908,-0.3110992085650563
1780626039003946200,5.9879462890625,0.3336667219430208,-0.26448680273294445,-0.5879606319636106
1780626039013976300,5.997976318359375,0.36383857284486293,0.016153262421488762,-0.80982292945683
1780626039024006400,6.00800634765625,0.3168447664797306,0.23658581937253473,-0.9446865963242947
1780626039034035200,6.01803515625,0.19704583614468574,0.4293248982340097,-0.9493518116563558
1780626039044065300,6.028065185546875,0.07359888642979785,0.4481733910888433,-0.8803403808809817
1780626039054094300,6.03809423828125,-0.09976383977783844,0.42628772249519825,-0.7081980998463928
1780626039064124400,6.04812451171875,-0.24295710797011852,0.29417700759768484,-0.40097383301854134
1780626039074154500,6.058154541015625,-0.2246195237794891,0.15274959830045698,-0.1132481935173273
1780626039084183300,6.068183349609375,-0.2596896681169048,0.011720248410105705,0.0453787723839283
1780626039094213000,6.078213134765625,-0.38714232807550575,-0.2135129868209362,0.14939429652318356
1780626039104242400,6.088242431640625,-0.5154740724235772,-0.3918552915394306,0.22109935029670594
1780626039114272300,6.098272216796875,-0.5995780045211315,-0.40160920831263064,0.2811651119418442
1780626039124302300,6.10830224609375,-0.49237259829938407,-0.2722024916768074,0.4453574568852782
1780626039134331100,6.1183310546875,-0.2954717601159587,-0.16894377725422383,0.5601384129278362
1780626039144361200,6.128361328125,-0.16538754607737063,-0.005730068084597587,0.6168928580679
1780626039154390300,6.138390380859375,0.016440244403015822,0.017124153280258177,0.5622201876379549
1780626039164420400,6.14842041015625,0.10792902605487033,-0.09989069929420948,0.47306613254398105
1780626039174450200,6.1584501953125,0.014097480669151992,-0.24514731149077415,0.4648366488590836
1780626039184479200,6.168479248046875,-0.07925822736574337,-0.25752163989543914,0.4962922559611499
1780626039194509300,6.17850927734375,-0.17731177436066792,-0.1435603296726942,0.5643598300151527
1780626039204538400,6.188538330078125,-0.2422778935343027,0.017971710020303726,0.6817318254642188
1780626039214568400,6.198568359375,-0.3077034286469221,0.07174363221824169,0.8024044698938727
1780626039224597200,6.20859716796875,-0.3070627926558256,0.039458734685182566,0.8200156760387122
1780626039234627300,6.21862744140625,-0.236057393317949,-0.03111059305667877,0.7438976281285286
1780626039244657200,6.2286572265625,-0.1876128036226146,-0.11051964533627033,0.6161623518362641
1780626039254686500,6.2386865234375,-0.04392798905372619,-0.2598416072756052,0.49655236820206045
1780626039264716300,6.24871630859375,0.07354394137216731,-0.37073885375261306,0.38580928937345743
1780626039274745300,6.258745361328125,-0.022254501906037328,-0.4170990383893251,0.3465225502543151
1780626039284775200,6.268775146484375,-0.1569476527784951,-0.4108107519000768,0.3979275971904397
1780626039294805200,6.27880517578125,-0.14226033472372218,-0.3479050906538963,0.48269627680703997
1780626039304834300,6.288834228515625,-0.12258242357373236,-0.24269056598842143,0.5262039946220815
1780626039314864000,6.298864013671875,-0.16163785642134024,-0.04407411952614784,0.5386407207384705
1780626039324893200,6.30889306640625,-0.17309797432422636,0.10916589263975619,0.5544188662372529
1780626039334923300,6.31892333984375,-0.07897065172917209,0.1961672997444868,0.45891032755002376
1780626039344953300,6.328953369140625,0.00044072950482368465,0.3103092272311449,0.3090872842207551
1780626039354982400,6.338982421875,-0.09476502684354782,0.37496436249315734,0.137641168756783
1780626039365012200,6.34901220703125,-0.08787292010909878,0.284428351521492,-0.06761442345902323
1780626039375041500,6.35904150390625,-0.08641686694873496,0.18564765929579732,-0.14250819027125836
1780626039385071600,6.369071533203125,0.06205812277244403,-0.01771393586695194,-0.3406719245299697
1780626039395101400,6.379101318359375,0.18437341984258965,-0.17946283318102357,-0.6163523214504122
1780626039405130800,6.389130859375,0.09604335794998332,-0.17486849112808703,-0.7034753091081977
1780626039415160300,6.399160400390625,-0.17068156083226202,-0.21222470057606696,-0.6357689695820212
1780626039425189400,6.409189453125,-0.41446635179817676,-0.5752630629539489,-0.558969369148463
1780626039435219500,6.419219482421875,-0.3565466622710228,-1.0896890876293182,-0.4829945291012525
1780626039445249500,6.42924951171875,-0.040520774426124985,-1.2302151641726493,-0.4670492103420198
1780626039455278600,6.439278564453125,0.05723755248188972,-1.0470698430866003,-0.37869478119313715
1780626039465308400,6.449308349609375,0.003147074987227097,-0.6367080039978027,-0.29527678553313014
1780626039475337500,6.45933740234375,0.14477789790206588,-0.1278133099645376,-0.21499650337696075
1780626039485367600,6.469367431640625,0.34179508334100245,0.3963426660865545,-0.22365312643274662
1780626039495396600,6.479396728515625,0.32882395808696746,0.7116454638212919,-0.26260902616232634
1780626039505426400,6.489426513671875,0.33073125301301476,0.5263333200901746,-0.4016792048089206
1780626039515456500,6.49945654296875,0.256352596116066,0.24234511355161664,-0.45584860189184545
1780626039525485600,6.509485595703125,0.09523322887718677,-0.01102291379570961,-0.2482233579352498
1780626039535515600,6.519515625,0.11521452515423297,-0.15099837071895597,-0.06964052245914935
1780626039545545500,6.52954541015625,0.18470950166285036,0.08763502883315086,0.1466692554734647
1780626039555574500,6.539574462890625,0.07279400892085396,0.4515647870928049,0.5025179986082017
1780626039565604400,6.549604248046875,-0.04231295507252216,0.5463707304686307,0.6865190597407519
1780626039575633400,6.55963330078125,-0.15800854174196718,0.6982248412340879,0.7766277852110565
1780626039585663500,6.56966357421875,-0.5138917716681957,0.8724170405358076,0.9612636371158063
1780626039595692500,6.579692626953125,-0.5811375079452992,0.7356827574908733,1.0483433701537548
1780626039605722400,6.589722412109375,-0.4496504779040813,0.3638251288414001,1.0292356418408453
1780626039615752400,6.59975244140625,-0.46613165710568427,-0.10974807644188403,1.0024486110717057
1780626039625781500,6.609781494140625,-0.580859860047698,-0.6533475886315107,0.7641368446893989
1780626039635811600,6.6198115234375,-0.5842530096173286,-1.007013727030158,0.4251122489750385
1780626039645840400,6.62984033203125,-0.37144846332669257,-1.1723749696224928,0.1323572370044887
1780626039655870500,6.639870361328125,-0.0058627591201337054,-1.0621855791538952,-0.0038185353748500343
1780626039665900500,6.649900634765625,0.30872692647576333,-0.7592372360795736,-0.1353041041113436
1780626039675929600,6.6599296875,0.2694178293943405,-0.3958236106485128,-0.4759938565589487
1780626039685959700,6.669959716796875,0.046665889585018154,-0.2401291910678148,-0.840990805658698
1780626039695988500,6.679988525390625,0.018631068978179247,-0.17577216196954248,-1.0731658228516578
1780626039706018600,6.6900185546875,0.31093408113121984,0.011011807879805564,-0.8264460013471543
1780626039716048400,6.70004833984375,0.5366951396286487,-0.0003653261810541153,-0.244996504843235
1780626039726077400,6.710077392578125,0.22526187680363655,-0.10408873550593853,0.19029680027589202
1780626039736107500,6.720107421875,-0.2556803959429264,-0.18403671696782112,0.3464054997459054
1780626039746136300,6.73013623046875,-0.4879413378536701,-0.1114578029692173,0.36405776855349536
1780626039756166400,6.74016650390625,-0.3045709758400917,-0.14854396330416203,0.2453745443753898
1780626039766196500,6.750196533203125,-0.2745931862056255,-0.4117144227415323,-0.15521335806548595
1780626039776225500,6.7602255859375,-0.323311916667223,-0.557832620203495,-0.6024773792244493
1780626039786255600,6.770255615234375,-0.07101822228683158,-0.49349078867435453,-0.7477149944595992
1780626039796284400,6.780284423828125,0.300913019588124,-0.2294067215234041,-0.6359840736374258
1780626039806314500,6.790314453125,0.3400993853390217,-0.027320553123950958,-0.4532200069539249
1780626039816344600,6.800344482421875,0.07745848446739836,0.0077817399173974984,-0.4652072357371449
1780626039826373600,6.81037353515625,-0.21099252843260763,-0.10809446401596069,-0.6128256086289883
1780626039836403700,6.82040380859375,-0.3882031987726688,-0.40697979543507096,-0.7446237504459917
1780626039846432500,6.8304326171875,-0.3762298523843288,-0.6594236936748027,-0.7754485122986138
1780626039856462600,6.840462646484375,-0.23343115473389625,-0.6678741266340017,-0.7302154319956898
1780626039866491600,6.85049169921875,-0.0771849464893341,-0.39312019690871236,-0.5490536859422922
1780626039876521500,6.860521484375,-0.042046997612714763,0.003944353711605072,-0.29201252304017544
1780626039886551600,6.870551513671875,-0.04237664969218895,0.1935965724736452,-0.11388663755133747
1780626039896580400,6.880580322265625,-0.04447159441113472,0.15178279909491538,-0.011060177066177129
1780626039906610400,6.8906103515625,-0.01291910280585289,-0.006707388684153557,0.05444397624060511
1780626039916639500,6.900639404296875,0.062357964235544204,-0.1738327183395624,0.048374739329516886
1780626039926669600,6.910669677734375,0.15654080727696418,-0.21758827343583106,-0.06251286253631115
1780626039936699600,6.92069970703125,0.200223297137022,-0.16504560077190397,-0.207521052929759
1780626039946728400,6.930728515625,0.19976035580039023,0.009231938725709914,-0.33755613059699535
1780626039956758500,6.940758544921875,0.22501873396383598,0.2215694520264864,-0.3865346810385585
1780626039966787600,6.95078759765625,0.2489724410031922,0.4254080170512199,-0.34082506926506756
1780626039976817700,6.960817626953125,0.2805295905172825,0.43261634099483487,-0.27609014676511284
1780626039986847700,6.97084765625,0.34564065285325046,0.3732505443125963,-0.24127953014671802
1780626039996876500,6.98087646484375,0.3016530425667763,0.1330167238265276,-0.31643530889600513
1780626040006906600,6.99090673828125,0.19519640888571738,-0.21419980004131792,-0.4788981996983289
1780626040016935700,7.000935791015625,0.07040916874408722,-0.4043208053588867,-0.6151216106116771
1780626040026965500,7.010965576171875,-0.04263619567751884,-0.4078279366970062,-0.704668318285048
1780626040036995300,7.020995361328125,-0.15950199517011643,-0.26597791807353494,-0.6843102976500988
1780626040047024400,7.0310244140625,-0.18849311185479162,-0.00511339749097824,-0.5679352042838931
1780626040057054500,7.041054443359375,-0.1755412758231163,0.2566243987947702,-0.4478188785627484
1780626040067083500,7.05108349609375,-0.2312766070485115,0.5567372261822223,-0.3086214202746749
1780626040077113600,7.061113525390625,-0.3229752320587635,0.5889478894352913,-0.22127602203786373
1780626040087143400,7.071143310546875,-0.47370472270846364,0.44934944913089275,-0.13103461009860037
1780626040097172500,7.08117236328125,-0.7339239311248064,0.2576771227180958,-0.04531272141039371
1780626040107202600,7.09120263671875,-0.8880465713441371,-0.000006429740786552429,0.051122284471988674
1780626040117231600,7.101231689453125,-0.8565992936789989,-0.2794254286676645,0.13984014010578394
1780626040127261700,7.11126171875,-0.6798252611905335,-0.5410708704948425,0.17399784577339886
1780626040137291500,7.12129150390625,-0.4682832821816206,-0.673026687091589,0.20213205336779355
1780626040147320600,7.131320556640625,-0.3306184402883053,-0.7363046887814998,0.20402882689982652
1780626040157350700,7.1413505859375,-0.5525859517216682,-0.5733072527110576,0.23289222555160521
1780626040167379700,7.151379638671875,-0.9871031579017638,-0.3522323062032461,0.35977819153815505
1780626040177409500,7.161409423828125,-1.2564052519619464,-0.13366788121163845,0.6242106337353587
1780626040187439400,7.171439453125,-1.2777227652788161,-0.02142740343213081,0.917056977251172
1780626040197468400,7.181468505859375,-1.157922665899992,-0.17802315576672553,1.1778244672000409
1780626040207498500,7.19149853515625,-1.011648401093483,-0.5877899515718221,1.3582915089875458
1780626040217527600,7.201527587890625,-1.0873977618217467,-0.7774883475631476,1.5741200792744754
1780626040227557400,7.211557373046875,-0.9597720833837985,-0.7154664834141731,1.7846923364683984
1780626040237587500,7.22158740234375,-0.5944552546799182,-0.8087666984021663,1.7973744156479834
1780626040247616500,7.231616455078125,-0.43788869190718976,-1.01627898350358,1.6259873368948696
1780626040257646600,7.241646484375,-0.6251859085083007,-1.083913426837325,1.3614102255299687
1780626040267675600,7.251675537109375,-0.9977952323079109,-0.8753203607618808,1.1491267805039882
1780626040277705500,7.26170556640625,-1.0198387218117713,-0.7812813101053238,1.026848016051948
1780626040287734500,7.271734619140625,-0.5551004918258637,-0.9541004674881696,0.8902753533095121
1780626040297764600,7.2817646484375,-0.11469130499772727,-1.113307863625884,0.7788248568639159
1780626040307794700,7.291794677734375,0.19832126290798185,-0.9668401220738887,0.7694128853961825
1780626040317823500,7.301823486328125,0.4047778284113854,-0.7067723048269748,0.6955056454032659
1780626040327853600,7.311853515625,0.6610638620972633,-0.44012335562407967,0.4484449015066027
1780626040337882600,7.321882568359375,1.020529626685381,0.008472060269117355,-0.04071691805273294
1780626040347912400,7.331912353515625,0.7051542751710862,0.8570768480628729,-0.6213511526510119
1780626040357942500,7.341942626953125,0.24177593536153436,1.3640367746412754,-1.0939110892385244
1780626040367971300,7.351971435546875,0.325228125552088,1.3151847731888293,-1.2515841154158114
1780626040378001400,7.36200146484375,0.3593045826770365,0.8473170860707759,-0.9891180048555135
1780626040388030500,7.372030517578125,-0.19071444116607308,0.15871698227226733,-0.6054916124790907
1780626040398060500,7.382060546875,-0.6139793087087572,-0.24760405699312685,-0.32863194264620543
1780626040408090600,7.392090576171875,-0.25741511078104373,-0.17615794641673563,-0.09984393754303454
1780626040418119400,7.402119384765625,0.538207005496323,0.232260357388854,-0.029173195253312585
1780626040428149500,7.4121494140625,0.8746796517055481,0.7280915717095137,-0.5175719214856624
1780626040438178600,7.422178466796875,0.9001765695989131,1.3045441367089747,-1.1321584023073314
1780626040448208600,7.432208740234375,0.44107568791285157,1.6174878040969372,-1.468558056345582
1780626040458238700,7.44223876953125,0.22199206135272978,1.1940788519084453,-1.3888739865168929
1780626040468267500,7.452267578125,0.1525964535653591,0.2756014864653349,-0.8544783560022712
1780626040478297600,7.462297607421875,-0.05306771945133805,-0.5987403846532106,-0.20981530134677887
1780626040488326700,7.47232666015625,-0.24275077174305915,-1.0607774659216402,0.04203618395775556
1780626040498356500,7.4823564453125,-0.11817264430746435,-0.6284124693393707,-0.014886018964648246
1780626040508386600,7.492386474609375,0.5319030830465257,0.16242109748721123,-0.29001842661350963
1780626040518415400,7.502415283203125,0.9758779995322227,0.6458867512315511,-0.645211920709908
1780626040528445400,7.512445556640625,0.8110488179899752,1.1018225930154324,-1.0218269730195402
1780626040538474500,7.522474609375,0.1730792696237564,1.4144459424078464,-1.152478721280396
1780626040548504600,7.532504638671875,-0.4420413180746138,1.203266366970539,-0.7791153642430901
1780626040558534700,7.54253466796875,-0.8372365676917135,0.31100422375798226,0.0318783625587821
1780626040568563500,7.5525634765625,-1.06916097112447,-0.4464958132654428,0.8182534886717796
1780626040578593500,7.562593505859375,-0.8998528906024992,-1.0020108041763305,1.4511284903779624
1780626040588622600,7.57262255859375,-0.49433147728219623,-1.2704875533282756,1.8324208868488667
1780626040598652700,7.582652587890625,-0.12648483783975242,-1.0365320824593305,1.7775030094861983
1780626040608682800,7.592682861328125,0.6444986578740179,-0.4544599240124225,1.1138082143634558
1780626040618711600,7.602711669921875,1.2327040583789348,0.12161445532441138,0.24280776262730358
1780626040628741400,7.612741455078125,1.069994060947746,0.4919190093129873,-0.46295945681035516
1780626040638770700,7.622770751953125,0.537660769790411,0.46753392511904235,-0.8734422919303179
1780626040648800500,7.632800537109375,-0.006533785682916641,0.336607451570034,-0.8877201158687472
1780626040658830600,7.64283056640625,-0.43337621945142746,0.3515402322858572,-0.695496293053031
1780626040668859400,7.652859375,-0.6143408354975283,0.3090858229160309,-0.5026847334772349
1780626040678889500,7.662889404296875,-0.7456453485786915,0.17339491144418714,-0.38474955118745563
1780626040688918500,7.67291845703125,-0.7967045046865939,-0.12928104442954064,-0.43844753136634823
1780626040698948600,7.682948486328125,-0.550448939692974,-0.4084527905970812,-0.5860132972881198
1780626040708977400,7.692977294921875,-0.35713249933496116,-0.4433884948998689,-0.7193748890295625
1780626040719007500,7.703007568359375,-0.3029229163721204,-0.34319033709168434,-0.6997749932855367
1780626040729037600,7.71303759765625,-0.3096272363163531,-0.1724772120773792,-0.5261959574460983
1780626040739066600,7.723066650390625,-0.4658581008613109,-0.16065350329279898,-0.1988569772198796
1780626040749096700,7.7330966796875,-0.521247541258484,-0.3503045530110597,0.14694558819681405
1780626040759125500,7.74312548828125,-0.4664942068077624,-0.5767167688935995,0.37726884004324673
1780626040769155600,7.753155517578125,-0.3739817811965942,-0.666805036097765,0.5521364543884992
1780626040779185400,7.763185302734375,-0.31739553223028777,-0.6522358279973268,0.6227034440428019
1780626040789214700,7.773214599609375,-0.2201169151306152,-0.7191063012212514,0.6492521360114216
1780626040799244500,7.78324462890625,0.04220598756670951,-0.7397796714156866,0.645927960024774
1780626040809273600,7.793273681640625,0.25826748982667924,-0.5318634816884994,0.5204971612825989
1780626040819303400,7.803303466796875,0.45604719320386644,-0.11526713212430477,0.22621640104949473
1780626040829333500,7.81333349609375,0.4870728844560682,0.28693536590635776,-0.2460720251202583
1780626040839362600,7.823362548828125,0.49313408419117327,0.4729927750468254,-0.6755351627811789
1780626040849392400,7.833392333984375,0.3637476796910167,0.34799627606868744,-0.9160571525588631
1780626040859421400,7.84342138671875,0.20508301212787627,0.13636954138576984,-0.9869278013348579
1780626040869451500,7.853451416015625,0.03198401489034295,0.013244681498408318,-0.9671855745106935
1780626040879481600,7.863481689453125,-0.04887187519669532,-0.020865677896142003,-0.9175602505981921
1780626040889510700,7.8735107421875,-0.12886267288699746,0.11449380966424941,-0.8193155649453401
1780626040899540500,7.88354052734375,-0.3110496703349054,0.1631149249702692,-0.6264861774519086
1780626040909569500,7.893569580078125,-0.4325954443372786,0.1670966880828142,-0.39888533630669115
1780626040919599600,7.903599609375,-0.32693843660131094,0.11460136169195174,-0.09420885426551102
1780626040929629400,7.91362939453125,-0.3147938252992928,-0.07401216167211531,0.12829086434841155
1780626040939658800,7.92365869140625,-0.2536370535470545,-0.24198855519890783,0.2518614221766591
1780626040949688300,7.933688232421875,-0.18832374663725493,-0.25174247197210786,0.36593963677734137
1780626040959717600,7.943717529296875,0.0470563502073288,-0.1941103672146797,0.4262728171870112
1780626040969747500,7.95374755859375,0.12911021790727972,-0.06361643986403942,0.4596840884014964
1780626040979777500,7.963777587890625,-0.07286532972455025,0.21193711580634117,0.473030768969655
1780626040989806300,7.973806396484375,-0.004756839138269424,0.3090980978757143,0.46715047875940796
1780626040999836400,7.98383642578125,-0.04395239284262061,0.15820844822824,0.5666419496029615
1780626041009865500,7.993865478515625,-0.032871172988414764,0.0020247838258743286,0.7294412327527999
1780626041019895600,8.0038955078125,0.11424714142680167,-0.12664251261949538,0.8529267426460981
1780626041029925600,8.013925537109374,0.22859818161949513,-0.20553134041726587,0.8349602933228015
1780626041039954400,8.023954345703125,0.28733678631410003,-0.3451180902838707,0.6940192062377929
1780626041049984500,8.033984619140625,0.5626948194123804,-0.4111661412090063,0.3317857305020094
1780626041060013600,8.044013671875,0.878024359023571,-0.09133096074163913,-0.2413955577418208
1780626041070043600,8.054043701171874,0.851539379940927,0.28754502223730083,-0.7592115171164274
1780626041080073500,8.064073486328125,1.0041443090736866,0.5584907918512821,-1.1373664923444389
1780626041090102500,8.0741025390625,1.0512897988691925,0.7110656181067228,-1.3101686985924839
1780626041100132400,8.08413232421875,1.0343217129334807,0.6878004778534174,-1.156818504050374
1780626041110161700,8.09416162109375,0.8988616876080632,0.5604430949628353,-0.9341112801656126
1780626041120191500,8.10419140625,0.9014566725373268,0.37604572798907754,-0.7315826286956667
1780626041130220300,8.11422021484375,0.8420634033262729,0.13193068215548992,-0.5782262966737151
1780626041140250400,8.12425048828125,0.5790446273192763,-0.13302140000164508,-0.5300917958408594
1780626041150280400,8.134280517578125,0.2152742974050343,-0.24019290395379064,-0.5368950461149216
1780626041160309500,8.1443095703125,0.0854398568764329,-0.1391688167154789,-0.5530179133981465
1780626041170339600,8.154339599609376,-0.11255801929607986,-0.024366964015364645,-0.585615530142188
1780626041180368400,8.164368408203124,-0.30052023914456366,0.09044716364443302,-0.5616857885003089
1780626041190398500,8.1743984375,-0.4295777039512992,0.18029519235193728,-0.4506123086735606
1780626041200428500,8.184428466796875,-0.5121254926480353,0.14414718964993953,-0.2482908702135086
1780626041210457600,8.19445751953125,-0.710369744797051,0.01949263597726822,0.12567132949978113
1780626041220487700,8.20448779296875,-0.7055050613701344,-0.32691841672658917,0.5319651884973049
1780626041230516500,8.2145166015625,-0.7275488431349396,-0.6876344736367463,0.8485784843087196
1780626041240546600,8.224546630859376,-0.8186787283465266,-0.8671762172728776,1.0098106642723084
1780626041250576400,8.234576416015624,-0.6699591162145138,-0.8575216692209243,1.0024185081943868
1780626041260605700,8.244605712890625,-0.41890901042073964,-0.7596306193113327,0.544939820882678
1780626041270635500,8.254635498046875,-0.29055530996918677,-0.7499351547271013,0.08211538862884044
1780626041280664300,8.264664306640626,-0.44112961005717516,-0.811182527372241,-0.03456833229511976
1780626041290694400,8.2746943359375,-0.6725216601788997,-0.5722808322727679,-0.15642185707241296
1780626041300724500,8.284724365234375,-0.653807607358694,-0.26201485966145993,-0.25762422348707914
1780626041310753500,8.29475341796875,-0.47318683631420133,-0.0124263508528471,-0.35549452286958694
1780626041320783600,8.30478369140625,-0.3901744988456368,0.11965689151585102,-0.39473698445558547
1780626041330812400,8.3148125,-0.3235466022059321,0.10796586920022964,-0.4102887738525867
1780626041340842500,8.324842529296875,-0.2642085703134537,0.11372691694498062,-0.3718769178718328
1780626041350872600,8.33487255859375,-0.13160744155049323,0.03631926761567592,-0.23333646218776702
1780626041360901600,8.344901611328124,-0.0063166358008980746,-0.07058277174532412,-0.03775514563769102
1780626041370931700,8.354931640625,0.17079934199303387,-0.17680325858294962,0.16307810009121892
1780626041380959500,8.36495947265625,0.28689474163502454,-0.04957739311754703,0.2389052022308111
1780626041390989300,8.3749892578125,0.29279636689424515,0.1302145258873701,0.19328969848155975
1780626041401019400,8.385019287109374,0.4458145530030131,0.22399930952191352,-0.08906096998304128
1780626041411048400,8.39504833984375,0.20165800611525772,0.2756312970817089,-0.45160731106027957
1780626041421078500,8.40507861328125,0.27687866679430007,0.5867635311335325,-0.4868405370049178
1780626041431107300,8.415107421875,0.25583734007030723,0.46756782738864416,-0.30358722549974915
1780626041441137400,8.425137451171874,-0.017786708842217922,0.25955168441832066,0.019650456887483597
1780626041451167200,8.435167236328125,-0.24959552307128904,0.06433773987591267,0.24687165106534956
1780626041461196500,8.445196533203125,-0.3419721934735775,-0.2607078687161207,0.357240928145498
1780626041471226400,8.455226318359376,-0.38503041395545,-0.6638210518509149,0.34945626561865206
1780626041481255200,8.465255126953124,-0.26489845227375625,-0.9532453119635581,0.20733283688127993
1780626041491285200,8.47528515625,-0.47114831622391934,-0.8923819701999426,-0.08108969884291291
1780626041501315300,8.4853154296875,-0.36942601758837695,-0.7213257308363914,-0.3163400318279862
1780626041511344400,8.495344482421874,-0.056983869981765745,-0.6316390301704407,-0.6123726041644811
1780626041521374500,8.50537451171875,-0.04249591042399406,-0.5371668487936258,-0.8643541455894708
1780626041531403300,8.5154033203125,-0.09267711465358734,-0.3551069848567247,-1.0671547458685935
1780626041541433300,8.525433349609376,0.006754442696273327,-0.06899345672726631,-1.1493303402520716
1780626041551463400,8.53546337890625,0.006489800410717725,0.1454986042588949,-1.0006687419176101
1780626041561492500,8.545492431640625,-0.1117656998746097,-0.0015150807380676268,-0.6026835693210363
1780626041571522600,8.5555224609375,-0.08190949079319834,-0.36289281642735,-0.10274755003005266
1780626041581551400,8.56555126953125,-0.025895634887367486,-0.6554366698652505,0.28513810722604394
1780626041591581400,8.57558154296875,0.054000031865388154,-0.6547223841160535,0.5202900944031774
1780626041601610500,8.585610595703125,-0.14854600913077592,-0.6846294466018676,0.6193516493968665
1780626041611640600,8.595640625,-0.45741643573045726,-0.9133739048242568,0.5798717257931828
1780626041621670400,8.60567041015625,-0.36789924641251565,-1.118981233087182,0.4599667047351598
1780626041631699200,8.61569921875,-0.19648907904475926,-1.0798556758791207,0.2946992779061198
1780626041641729300,8.625729248046875,-0.05901596033126116,-0.5890589485943317,0.12794789612963794
1780626041651758300,8.63575830078125,0.03218289846330881,0.10736556521952152,-0.05867796054854989
1780626041661788400,8.645788330078124,0.09567132803350686,0.514896564796567,-0.06664177903458475
1780626041671818500,8.655818603515625,0.25150603286772966,0.547912699213624,0.3296680076956749
1780626041681847300,8.665847412109375,0.30356559818983075,0.02826455597579479,0.8386461422286927
1780626041691877400,8.67587744140625,0.5714616248443722,-0.6171726979225873,1.0925862703755498
1780626041701906400,8.685906494140625,0.7709865644536912,-0.8560480895370245,0.9742069975800811
1780626041711936500,8.6959365234375,0.6053261927843093,-0.9207961637794971,0.5184592257142067
1780626041721966600,8.705966552734376,0.487421113371849,-0.7475269245415925,-0.12360928240343928
1780626041731995400,8.715995361328124,0.3958193728648126,-0.3929185368567705,-0.6412889020472765
1780626041742025500,8.726025390625,0.288461406429857,0.026004209828376767,-0.7560432623438537
1780626041752054500,8.736054443359375,-0.10270955610722303,0.42926001630425453,-0.35473815154433247
1780626041762084600,8.746084716796876,-0.22794848553910851,0.6914326968759298,0.49388402577564117
1780626041772114400,8.756114501953125,-0.21470555760636925,0.689121497324109,1.4037956613168119
1780626041782143200,8.766143310546875,0.06961772610545158,0.7178560088992119,2.0794858685292303
1780626041792173300,8.77617333984375,0.09877981544286012,0.5866425351023674,2.2239257575154303
1780626041802202400,8.786202392578126,0.29693156700283285,0.2554705525845289,1.8150028651885688
1780626041812232400,8.796232421875,0.5838377068147063,-0.09974807595312594,0.9600381869740784
1780626041822262300,8.80626220703125,0.5743496013708412,-0.4176490734875202,-0.016348784993588925
1780626041832291300,8.816291259765626,0.5394885697394609,-0.4645739062696695,-0.8372108487285673
1780626041842321400,8.8263212890625,0.4330686148069799,-0.09256897810399532,-1.1896776943400502
1780626041852350500,8.8363505859375,0.23849998243078588,0.6241641642451285,-1.0103357110597193
1780626041862380500,8.846380615234375,0.21786635972484944,1.275945818734169,-0.44527080151513215
1780626041872410400,8.856410400390626,0.41115445077121254,1.5918705477595327,0.14310089546740054
1780626041882439400,8.866439453125,0.5297992426350713,1.6149971563249825,0.5819624144621193
1780626041892469500,8.876469482421875,0.44570524740964174,1.490567059057951,0.5925827388063073
1780626041902498600,8.88649853515625,0.4905228787794709,1.2112117730170489,0.35441513013504444
1780626041912528600,8.896528564453124,0.41523952812775966,0.8925491434603929,0.07571436248011887
1780626041922558200,8.90655810546875,0.1308855570167303,0.619791940510273,-0.14975670009478925
1780626041932587300,8.916587158203125,-0.026803981903940437,0.47450142604410644,-0.20828020073398945
1780626041942617300,8.926617431640626,-0.04122954374998808,0.6462333727121353,-0.021348931368440387
1780626041952646400,8.936646484375,-0.024873013841360807,1.0710305643886326,0.4013018959291279
1780626041962676200,8.94667626953125,0.06051525897830724,1.4352783025562763,0.8514762515768408
1780626041972705300,8.956705322265625,0.1468272225141525,1.385572899144888,1.0570027696885167
1780626041982735400,8.9667353515625,0.09585092238411307,0.8707108211398125,0.80654989913553
1780626041992765400,8.976765380859375,-0.17864289510026574,0.23944354689121244,0.1381016258753836
1780626042002794500,8.98679443359375,-0.3921512057460844,-0.32655309054553505,-0.40650165652930736
1780626042012824300,8.99682421875,-0.6464300643280149,-0.7080880636006593,-0.5478340810194611
1780626042022853400,9.006853271484376,-1.0352585553921758,-0.9060159432768821,-0.599866173812747
1780626042032883500,9.016883544921875,-1.0525462286710738,-0.8722937064170837,-0.5407153350554407
1780626042042913500,9.02691357421875,-0.773922325644642,-0.3837853823304176,-0.3151950995765626
1780626042052942600,9.036942626953126,-0.6407037956357002,0.2482861940383911,-0.14806436309367418
1780626042062972400,9.046972412109374,-0.5690732684031129,0.8501379887104034,0.008771627737581729
1780626042073001500,9.05700146484375,-0.21582535541653633,1.350688048246503,0.2030722568273544
1780626042083031300,9.06703125,-0.17217647556513546,1.5763848093360662,0.18110636260434984
1780626042093061400,9.077061279296874,-0.39610359663367267,1.5330699837446211,0.050574441330879925
1780626042103090200,9.087090087890624,-0.4796836509875953,1.2299550519317388,-0.10665639403685927
1780626042113120300,9.097120361328125,-0.5375727992460131,0.7031418393701314,-0.31033070841059085
1780626042123149300,9.1071494140625,-0.6684126174248755,0.30650340520739555,-0.5108901056341827
1780626042133179400,9.117179443359374,-0.709369920104742,0.17050737330913543,-0.6184576231665909
1780626042143209500,9.12720947265625,-0.6728484079152345,0.18113631935119628,-0.6525567305147647
1780626042153238300,9.13723828125,-0.740060534183681,0.26796529249846934,-0.6485258675634861
1780626042163268400,9.147268310546876,-0.9248454391703009,0.4393775056928396,-0.6639034694373607
1780626042173297400,9.15729736328125,-1.0268202512621878,0.45319151151180265,-0.7368126383036374
1780626042183327500,9.167327392578125,-1.1376248510196805,0.31894612267315386,-0.8052575212374329
1780626042193357600,9.177357666015626,-1.1107694311894476,0.03126666040122509,-0.900713014563173
1780626042203386400,9.187386474609376,-1.031773197494447,-0.3304834157317877,-0.9719333535596728
1780626042213416400,9.19741650390625,-1.1403495998084545,-0.513997570130229,-0.9159453627474605
1780626042223445500,9.207445556640625,-1.267325289905071,-0.5272773229420185,-0.7212529578611254
1780626042233475300,9.217475341796876,-1.6406899621166289,-0.48328620552420615,-0.47171121080368755
1780626042243504400,9.22750439453125,-2.1613655487060544,-0.3982908775448799,-0.2166286346234381
1780626042253534200,9.2375341796875,-2.387291442376375,-0.2404997779458761,-0.10143325256109237
1780626042263564300,9.247564208984375,-2.19736858997941,-0.08432955754697323,-0.12121654204800725
1780626042273593300,9.25759326171875,-1.9397429051876067,0.014316694644093513,0.20204232925772667
1780626042283623400,9.26762353515625,-1.5970923740610479,-0.08475684304833411,0.9103020961634815
1780626042293652200,9.27765234375,-1.0458698196470737,-0.04886135380268097,1.5830262931771575
1780626042303682300,9.287682373046875,-0.08216273490190505,0.17969547289311885,2.154963864970207
1780626042313712400,9.29771240234375,0.7408993230953812,0.6318722544044256,2.689277077898383
1780626042323741400,9.307741455078125,1.0553896354034542,1.377021343898773,2.967181872870028
1780626042333771500,9.317771484375,0.6725073393926024,1.9902122787088155,2.9960826809227465
1780626042343800300,9.32780029296875,0.03947890069037675,1.8905571417361497,2.6590450212419032
1780626042353830400,9.337830322265624,0.4229100627556443,1.369151341176033,1.9441782572865485
1780626042363860500,9.347860595703125,1.0341209296643734,0.33674949038922786,1.0977597274906932
1780626042373889500,9.3578896484375,1.0511723099693655,-0.7953039902389049,0.29413667558729645
1780626042383919400,9.36791943359375,0.9143719759508967,-1.8053607382267713,-0.38403073539361354
1780626042393948700,9.37794873046875,0.9128054572865366,-2.6192507709920405,-0.856713713838905
1780626042403978500,9.387978515625,1.01172848059237,-3.1660891189724203,-1.281984806637466
1780626042414008600,9.398008544921876,1.0651020511224865,-3.430446742367744,-1.66140775597468
1780626042424037400,9.408037353515626,1.2033680737793444,-3.432519456988573,-1.9101172899916767
1780626042434067500,9.4180673828125,1.385937933064997,-3.13270590480864,-2.0226091121837495
1780626042444096500,9.428096435546875,1.5423080599501728,-2.508742231571674,-1.991054282490909
1780626042454126600,9.438126708984376,1.5128826435014604,-1.8350024277746677,-1.7502789024740457
1780626042464156700,9.44815673828125,1.2659110391929744,-1.3097346910893917,-1.3976042593307791
1780626042474185500,9.458185546875,0.984833167143166,-0.8528735511541367,-1.2196093067452312
1780626042484215600,9.468215576171875,0.7056815869808196,-0.40776071667969227,-1.170216622544825
1780626042494244600,9.47824462890625,0.4982341838091612,0.06005260990262031,-1.115801141746342
1780626042504274700,9.488274658203125,0.35394758568853135,0.4413192874103784,-1.0068312100701033
1780626042514304500,9.498304443359375,0.3836436357721686,0.36887948962152,-0.7385691265821457
1780626042524333600,9.50833349609375,0.5329100681319833,-0.12208557996749878,-0.4412009217277169
1780626042534363400,9.51836328125,0.5626528799667954,-0.5824912606418132,-0.16550430432483554
1780626042544392700,9.528392822265625,0.7142538927540183,-0.745672236585617,0.15752981831431387
1780626042554422500,9.538422607421875,1.19437783485502,-0.7487631883382797,0.5025298351764679
1780626042564451600,9.54845166015625,1.7986226621434092,-0.6958370693147182,0.7749146976828575
1780626042574481400,9.5584814453125,2.4532713965013624,-0.6758394064247608,0.9866827405326067
1780626042584511500,9.568511474609375,2.7520354396283624,-0.5075783507376909,1.1399819355398415
1780626042594540500,9.57854052734375,2.5940824274659153,-0.5106833310157061,1.0010654861502348
1780626042604570600,9.588570556640626,2.1874515915989874,-0.770889095428586,0.8667278889834881
1780626042614599400,9.598599365234374,1.6067160885833203,-0.9672253219991922,0.6878051540285348
1780626042624629500,9.60862939453125,0.96086981549263,-1.1117366687864065,0.4937245974302292
1780626042634659600,9.61865966796875,0.6747673202138393,-1.1856705045253038,0.33641996617391706
1780626042644688600,9.628688720703124,0.4553074076872319,-1.2080536012470722,0.1676373708307743
1780626042654718700,9.63871875,0.24314123236536977,-1.3931640849262474,0.02876855997517705
1780626042664747500,9.64874755859375,-0.02032733323574066,-1.6118337238579987,0.06874927270784974
1780626042674777600,9.658777587890626,-0.5444248570978641,-1.4244739999473095,0.15929770476967095
1780626042684807400,9.668807373046874,-0.6156956111073494,-0.4370750739693641,0.490723223657161
1780626042694836700,9.678836669921875,-1.0806114626824854,1.4727882412612436,0.9234237358041107
1780626042704866300,9.6888662109375,-1.5117267514646053,3.3680846864789724,1.1588096778675914
1780626042714895400,9.698895263671876,-1.6727286298036574,5.293058477079868,1.90528519366011
1780626042724925400,9.708925537109375,-0.9808429284632205,5.769402316120266,2.508960842758417
1780626042734955500,9.71895556640625,0.10594809963703154,5.044071441295743,2.857830979052186
1780626042744984600,9.728984619140626,0.9081026864230632,3.636638592520356,2.7262086321935057
1780626042755014400,9.739014404296874,1.9393962837070227,2.129515535458922,2.121969796254486
1780626042765043500,9.74904345703125,2.8565672427266833,1.3543641064107417,1.257239656959474
1780626042775073500,9.759073486328125,2.822569111534953,0.6572223842382431,0.22843232353329657
1780626042785102600,9.7691025390625,2.094679199877381,0.18382102839052675,-0.4435390092864632
1780626042795132700,9.779132568359374,1.2304945656359194,-0.4064104711145162,-0.6531278084009885
1780626042805162500,9.78916259765625,0.21869316593781113,-1.1991940029650925,-0.5621925689786672
1780626042815191600,9.799191650390625,-0.7401064191520214,-1.9584768317520618,-0.4174142418183386
1780626042825221600,9.8092216796875,-1.5698697283536194,-2.424556466409564,-0.29880276770219205
1780626042835250700,9.819250732421875,-2.2878221833646295,-2.599339032819867,-0.3600155074253678
1780626042845280500,9.829280517578125,-3.1076509585291143,-2.24796655831635,-0.4409234199605882
1780626042855310300,9.839310302734376,-3.8847278026819225,-1.9007909509807823,-0.5668276814334094
1780626042865339400,9.84933935546875,-3.6607875298708676,-1.6149860504090785,-0.6168468269690871
1780626042875369500,9.859369384765625,-1.8209528596341609,-0.985064345550537,-0.5622603735178708
1780626042885398500,9.8693984375,0.748410137116909,0.014919921234250068,-0.1531242768317461
1780626042895428400,9.879428466796876,1.5325772317916153,0.4409095375657081,0.18433599217534063
1780626042905458400,9.88945849609375,-0.11654723506271839,0.08135024947524071,0.1908076724074781
1780626042915487500,9.899487548828125,-1.8415480500258505,-0.47292321694195266,-0.12531988571360705
1780626042925517600,9.909517578125,-1.472344004625082,-0.8817781585991382,-0.5333645339012145
1780626042935546600,9.919546630859376,-0.08238762969896196,-0.8255284481108188,-0.9807903945583849
1780626042945576400,9.929576416015625,0.4751236495956778,-0.3229226250886917,-1.3700105883538722
1780626042955606500,9.9396064453125,-0.13262158702909946,0.5208043275356292,-1.6544230116538703
1780626042965635600,9.949635498046876,-1.0589467433631419,1.1117343306988476,-1.9241824940927326
1780626042975665700,9.959665771484374,-0.8238124379731714,1.35781746173501,-1.8959362044259904
1780626042985694500,9.969694580078125,0.18414134638607502,1.4667793562352656,-1.5248406461901962
1780626042995724500,9.979724609375,0.7553514806874096,1.3884610218018292,-0.918730901812762
1780626043005754400,9.98975439453125,0.5162598159737884,0.875911312392354,-0.0809269094966352
1780626043015783400,9.999783447265624,0.5279800643838942,0.5464969871968031,0.6707308312393725
1780626043025813500,10.0098134765625,1.038166405662894,0.24688392602503298,1.120394168625027
1780626043035842300,10.01984228515625,1.7818851700931786,-0.23781974508166312,1.4873264697015285
1780626043045872400,10.029872314453126,1.8093407477736472,-0.8056535348176955,1.695373446201533
1780626043055902500,10.03990234375,1.4874185318991542,-1.4397908115446567,1.5543683539696036
1780626043065931500,10.049931640625,1.559320277288556,-1.5947037253588436,1.4560181621156632
1780626043075961600,10.059961669921876,1.6046744997531175,-1.6066379087805747,1.4597987035676836
1780626043085990400,10.069990478515624,1.2053181849338113,-2.007128926718235,1.4654273571044205
1780626043096020500,10.0800205078125,0.5945400103539228,-2.5432816300332544,1.3437231776699423
1780626043106049500,10.090049560546875,-0.06985621103644371,-2.7695605749249457,0.9526811022095382
1780626043116079600,10.10007958984375,-0.04527706557512283,-2.5869717186778782,0.18492796671912073
1780626043126109700,10.110109619140625,0.26519597391560673,-1.8081091601520776,-0.5652876123845577
1780626043136138500,10.120138427734375,-0.0071212301820516586,-1.3904349522233008,-1.1882603748880327
1780626043146168600,10.13016845703125,-0.7802331162266433,-1.3357704650998115,-1.7797095796197653
1780626043156197600,10.14019775390625,-1.0534069371536374,-1.2083663204580544,-1.9973644885510204
1780626043166227500,10.1502275390625,-0.6134282506972552,-0.8459189097106457,-2.0381845747172833
1780626043176257500,10.160257568359375,-0.09641454761624335,-0.47780748185217375,-1.8399042283415794
1780626043186286300,10.170286376953126,0.06833075503483414,-0.48099487971663474,-1.7989027942590414
1780626043196316400,10.18031640625,-0.21994316599890587,-0.7594009022086858,-1.8565458588019013
1780626043206345500,10.190345458984375,-0.22145941578075287,-1.3000906644314527,-1.7755369701102375
1780626043216375600,10.20037548828125,0.2166933704227209,-2.1113591165214776,-1.7162743415415287
1780626043226405600,10.210405517578126,0.6017537411250173,-2.900146272212267,-1.610354298955202
1780626043236434400,10.220434326171874,0.6536961098082363,-3.286466725978255,-1.4439952774971723
1780626043246464500,10.230464599609375,0.10050868506208062,-3.2465883045762776,-1.3767941110141575
1780626043256493600,10.24049365234375,-0.8016611041806638,-2.6332342881590125,-1.2668676092654465
1780626043266523600,10.250523681640624,-1.15087683904171,-1.888810590329766,-1.2804022136211395
1780626043276553700,10.2605537109375,-0.8876414976745843,-0.9668658410370349,-1.3357555597916244
1780626043286582500,10.27058251953125,-0.058550973168015476,-0.6453063209950923,-1.2631956427544355
1780626043296612600,10.280612548828126,0.796302499756962,-1.5483213288903235,-0.9497440258443355
1780626043306641700,10.2906416015625,0.40913258955478665,-1.6762626491487025,-0.3704308107167482
1780626043316671500,10.30067138671875,0.11135375807285308,-0.35389117932617664,0.16642370245838536
1780626043326701600,10.31070166015625,0.7490553031526506,1.2999112162113189,0.4798275164376944
1780626043336730400,10.32073046875,1.2181611537635326,2.828525974112749,0.7654130021050572
1780626043346760400,10.330760498046875,0.7017132678717375,3.952257616597414,1.2044826108925044
1780626043356789500,10.34078955078125,-0.5863796463824809,4.6921302269935605,1.7653117825634776
1780626043366819600,10.350819580078126,-1.8518302284568546,4.438376415199041,2.513778179912269
1780626043376850400,10.360850341796874,-2.1983903342425823,2.963115646344423,3.202089822158217
1780626043386879200,10.370879150390625,-1.1897943064570426,0.9308703985482454,3.406006713116169
1780626043396909300,10.380909423828125,-0.8752860201008618,-0.9702087217241525,3.0188135681688784
1780626043406938400,10.3909384765625,-0.738030343530327,-2.518202133834362,2.102277692182362
1780626043416968400,10.400968505859375,0.6096849725157022,-3.000166150844097,1.1316625085491687
1780626043426998300,10.410998291015625,1.427483118635416,-2.363537641823292,0.22693139918474478
1780626043437027300,10.42102734375,1.1324626459509133,-1.1565297502368688,-0.7184273059811442
1780626043447057200,10.43105712890625,0.30611119101941586,0.4465191941410303,-1.59603468170166
1780626043457086200,10.441086181640625,-0.8913285156242549,1.582356869482994,-2.2424343508914113
1780626043467116300,10.4511162109375,-1.7697668622761964,2.1863176191329954,-2.7571438686832783
1780626043477145000,10.46114501953125,-1.4697722544409333,2.601379598736763,-2.8993954538449644
1780626043487175200,10.471175048828124,-0.8405144203186035,2.4973984152585267,-2.6275577038273212
1780626043497205200,10.481205322265625,-1.1056728387027979,1.6236095018476246,-1.9333792153745888
1780626043507234300,10.491234375,-0.987316362261027,0.47923254621922967,-1.1893567918226122
1780626043517264400,10.501264404296874,-0.41239992078766224,-0.16015899777412412,-0.6045580214234069
1780626043527293200,10.511293212890624,-0.3786455352239311,-0.08929097934663295,0.032815807805676014
1780626043537323300,10.5213232421875,-0.20010332401916384,-0.009886018720269202,0.757335055720061
1780626043547353300,10.531353271484376,-0.05065861248299479,-0.0048895256072282785,1.2293712606944143
1780626043557382400,10.54138232421875,-0.3388764924805611,0.04905950672328472,1.4342413607239721
1780626043567412500,10.55141259765625,-0.5721895737927407,0.06762684454917907,1.4401741117738187
1780626043577441300,10.561441162109375,0.07589768315777182,0.08713058644235133,1.0135652675654738
1780626043587471400,10.571471435546876,0.7765669949345291,0.37319618377685543,0.053374465579260136
1780626043597501200,10.581501220703124,0.3042518268883228,0.5192331326961517,-0.9118472067136317
1780626043607530200,10.5915302734375,-0.13094240177050231,0.4515560192644596,-1.4503740187488496
1780626043617560300,10.601560302734375,0.5274367512874305,0.06078384678661823,-1.4983129970096052
1780626043627589000,10.611589111328126,0.6016710312776267,-0.69288698733747,-1.2889113910302519
1780626043637619200,10.621619140625,-0.26163842756450173,-1.0931523798257112,-0.8868379262067377
1780626043647649300,10.631649169921875,-1.080923524306342,-0.7849263886094093,-0.3419347110074013
1780626043657678300,10.64167822265625,-1.2706120564907788,0.07471358793973923,-0.005007124104909598
1780626043667708200,10.651708251953124,-0.9838837574638426,1.1429822863996029,-0.1448076445863582
1780626043677737200,10.6617373046875,-0.9775224057383834,2.4130869778901336,-0.9707655518893152
1780626043687767300,10.671767333984375,-1.4495127257443963,3.3246132090210914,-1.9788895051836966
1780626043697797400,10.68179736328125,-1.235691549757123,3.512120816969871,-2.3701893547974526
1780626043707826400,10.691826416015624,-0.6802828687649219,3.4915982534229753,-1.8283963075079024
1780626043717856300,10.701856201171875,-0.809731086454913,3.136242846763134,-0.7016807538416237
1780626043727885300,10.71188525390625,-1.5776555599242448,3.1594314146488904,0.13611688179895282
1780626043737915400,10.721915283203124,-1.8154981013596057,3.9522698915570973,0.6489108482930809
1780626043747945200,10.7319453125,-1.8528151478409767,4.770839022049308,1.2438055903688072
1780626043757974300,10.741974365234375,-1.8569687603890894,4.765062776735425,1.7992875557929275
1780626043768004000,10.752004150390626,-1.4156541491538286,4.517569778901338,1.892660251495242
1780626043778033200,10.762033203125,-0.8760662106931209,4.818413843172788,1.343022628185153
1780626043788063200,10.772063232421875,-0.8819920936107635,4.871366850203275,0.42546296210885043
1780626043798093300,10.78209326171875,-1.5202935042798518,4.055364939850569,-0.08523395904079079
1780626043808122000,10.7921220703125,-1.4528390936881304,2.6401462595045566,-0.18138401050195097
1780626043818152200,10.802152099609375,-1.1969716507405042,1.1758382618188858,-0.21481208672076463
1780626043828181200,10.81218115234375,-0.9422400068897754,0.013812836775183676,-0.3145926036387682
1780626043838211300,10.82221142578125,-0.8496826461583376,-0.707238168773055,-0.4931948744677007
1780626043848241400,10.832241455078124,-1.3657266274243594,-1.3118038985788822,-0.7144209198839963
1780626043858270200,10.842270263671875,-1.6676655011951922,-2.3151240317881108,-1.06867158017233
1780626043868300300,10.85230029296875,-1.697886451935768,-3.4601708495020866,-1.4224422018587588
1780626043878329300,10.862329345703126,-1.4174538920521735,-4.458127409851551,-1.7251776328347623
1780626043888359400,10.872359375,-0.874973154759407,-4.511916867706179,-1.891564711343497
1780626043898389200,10.88238916015625,-0.357346288216114,-3.9323996544390916,-1.866368018505722
1780626043908418300,10.892418212890625,-0.059613122506812215,-3.5005478680759667,-1.6902416362710295
1780626043918448000,10.9024482421875,-0.4156159602247178,-3.025798604750633,-1.6091658198229968
1780626043928477200,10.912477294921874,-1.2371907022736965,-1.8932927041798828,-1.3129036765143274
1780626043938507300,10.92250732421875,-1.9746200111709533,-1.1104086350530384,-0.8945810876794159
1780626043948537300,10.932537353515626,-2.5265806706011293,-0.46950376388728615,-0.33383637942150235
1780626043958566100,10.942566162109374,-2.830172864536941,-0.2307879467487335,0.4174062046423554
1780626043968596200,10.95259619140625,-3.209040664209425,-0.559691984334588,1.2033764032162726
1780626043978625300,10.962625244140625,-4.399151781530678,-1.270854048553109,1.4731427537873387
1780626043988655400,10.9726552734375,-5.657311475944518,-0.959431891644001,1.8066209674209355
1780626043998685400,10.982685546875,-5.409462504279613,-0.2655950562357902,2.417196312905103
1780626044008714200,10.99271435546875,-3.834342308051884,0.26831834371984004,3.006993366515636
1780626044018744300,11.002744384765625,-1.7750538627684116,0.5451847355544567,3.2053014776811
1780626044028773400,11.0127734375,-0.48380409191846846,1.0863193189352751,2.573822021986544
1780626044038803500,11.022803466796875,-0.3483206857174635,1.541112420424819,1.6420799551703036
1780626044048833300,11.032833251953125,-0.8314186751931906,1.8797405641674994,0.06493552310597152
1780626044058862300,11.0428623046875,-0.5490571930736303,1.1372779372781514,-1.9318118199273944
1780626044068892200,11.05289208984375,0.3737818747103214,-0.6884796922892331,-3.3038217654049395
1780626044078921200,11.062921142578125,2.6494547705978153,-3.948225000080466,-2.5338798876985904
1780626044088951300,11.072951416015625,5.8699313133180135,-7.559954192271828,0.8033317408066243
1780626044098981400,11.0829814453125,6.91820176436603,-7.558895038607716,4.1408097651630635
1780626044109010200,11.09301025390625,3.8550931273967026,-3.5510423760384318,4.271341686436534
1780626044119040300,11.103040283203125,0.2623129658252001,-0.6454109504133463,3.2070871920540927
1780626044129069300,11.1130693359375,-3.1120144144356248,-1.463555718013644,1.751185642055422
1780626044139099400,11.123099365234374,-5.677753959992527,-4.967821729829907,-0.01228716157786548
1780626044149129500,11.13312939453125,-6.403343193492293,-8.870945605424046,-1.4851076246082782
1780626044159158300,11.143158203125,-6.353228624758124,-10.621950484085083,-2.5669877920523283
1780626044169188400,11.153188232421876,-4.822436522817611,-9.491951013377308,-2.729575770539045
1780626044179217400,11.163217529296874,-2.2430320245236155,-7.531924614095687,-1.8595757280170917
1780626044189247500,11.17324755859375,-0.17592589122653007,-5.671760272535681,-0.1461749691504985
1780626044199277000,11.183277099609375,0.8476572778105735,-2.857440518429875,1.5953031525567174
1780626044209306400,11.193306396484376,-0.15226035347878933,-1.3556599914401768,2.5501430402353407
1780626044219336200,11.203336181640625,-1.6128730037778616,-2.743407312014699,1.966142690204829
1780626044229365200,11.213365234375,-2.180270155662298,-5.287713024398684,0.5172146324805915
1780626044239395300,11.223395263671875,-1.6384925982028244,-7.159230534622073,-0.768201463779807
1780626044249425200,11.233425048828124,-1.061395305559039,-7.4083701306194065,-1.4705471843361855
1780626044259454200,11.2434541015625,-0.24233809928894043,-5.908091824886203,-1.0422292711876333
1780626044269484300,11.253484375,0.6392559349149465,-3.668011635905504,-0.10029942622557282
1780626044279513300,11.263513427734376,0.5512748691231012,-2.011153359928727,0.9434843809276818
1780626044289543400,11.27354345703125,-0.031790976536273954,-1.313531160762906,1.574945424182713
1780626044299572200,11.283572265625,-0.6340817471474409,-1.3194640579432249,1.6755448562681674
1780626044309602300,11.293602294921875,-0.8098352044165134,-2.2365981920838354,1.67968940872699
1780626044319632400,11.30363232421875,-0.6424088459879159,-3.710852414244413,1.1110969095781444
1780626044329661400,11.313661376953124,0.14370119944810866,-4.066885281774401,-0.08069353913217782
1780626044339691300,11.323691162109375,1.1962363222032786,-3.2763837233811617,-1.4067846139997242
1780626044349720300,11.33372021484375,1.8921242449223994,-1.478071150100231,-2.3813073995307086
1780626044359750100,11.343750244140624,1.7591975374668836,0.030951018580794333,-2.3512886933639643
1780626044369780200,11.3537802734375,1.3473182795524596,-0.18141513629257677,-1.387057292483747
1780626044379809000,11.36380908203125,0.9559639232724905,-1.173597789415717,-0.2798904158309102
1780626044389838800,11.3738388671875,0.7035930902689695,-0.38100364265739917,0.8137997241333127
1780626044399868700,11.38386865234375,0.9418325220674276,2.491614571160078,1.5411135894685983
1780626044409897700,11.393897705078125,1.9639508792489766,7.642544212675094,0.3375970471292734
1780626044419927800,11.403927734375,2.851101963058114,13.432553848016262,-1.5294213981091975
1780626044429956900,11.413956787109376,1.453688403993845,10.518289034080505,-2.399253682848811
1780626044439986700,11.423986572265624,-1.039962641429901,-1.1600222685277461,-1.181777588739991
1780626044450015700,11.434015625,-1.437315361341834,-5.60697186628282,0.7374380767256021
1780626044460045800,11.4440458984375,0.6980261037915945,-2.754378787884116,1.6319366006880998
1780626044470076000,11.454075927734374,3.180735483962297,2.699597396382689,1.9401123230218886
1780626044480105000,11.46410498046875,2.0370143618941308,5.253219803166389,1.0482067381620406
1780626044490134800,11.474134765625,-0.23821751222759485,5.750712228697538,0.5835474916964769
1780626044500163800,11.484163818359375,-0.8241215039223432,6.377023926365375,0.7072498592108488
1780626044510194000,11.49419384765625,-1.4672899361059069,7.023685169100761,0.8094593568414449
1780626044520223700,11.5042236328125,-2.3707988649979232,5.565831462121009,0.5100158070176839
1780626044530253000,11.514253173828125,-2.8750977556735275,3.7940743028104302,0.0729454092234373
1780626044540282600,11.52428271484375,-2.603759771871567,3.2918115941375494,-0.4815566052526235
1780626044550311700,11.534311767578124,-1.5019363020732999,2.364835280418396,-0.1500830094397068
1780626044560341800,11.544341796875,-0.21529373275786637,1.9206828154087066,0.9441185871779918
1780626044570371800,11.554371826171876,0.9822183084696531,0.5671697728693484,1.15775841524899
1780626044580400600,11.564400634765626,1.4406824996873735,-2.193305578324199,0.5806044239819049
1780626044590430700,11.5744306640625,0.5276180992037057,-4.51879902843535,-0.15940087288320062
1780626044600459800,11.584459716796875,-0.8104170959576964,-4.141339926517009,-0.13377075706422328
1780626044610489900,11.59448974609375,-0.7224620413899421,-2.04462483689785,0.5623702636331319
1780626044620520000,11.60452001953125,0.5912374616771936,-0.4851473232209682,1.1072387728452682
1780626044630548700,11.614548828125,1.2951304116755724,0.23881693942546844,1.2431956417769192
1780626044640578800,11.624578857421875,1.629015452544391,-0.5631020850390196,1.010575803425908
1780626044650607900,11.63460791015625,1.9996207430452106,-0.5120329920589923,0.45237259634435173
1780626044660638000,11.644637939453125,1.7203034509271382,0.3079752313256264,-1.0271680417865514
1780626044670667800,11.654667724609375,0.9450906470805406,-1.047150507107377,-2.0682365986317395
1780626044680696800,11.66469677734375,0.4654582878887653,-2.392068155258894,-2.434246085774898
1780626044690726700,11.6747265625,0.23765198729932308,-2.6483617146641016,-2.9175533340871334
1780626044700755700,11.684755615234375,0.1887912180185318,-1.820066724449396,-3.6328491371095177
1780626044710785800,11.694785888671875,0.8828665383577347,0.39332185696065425,-2.8751345805525776
1780626044720815900,11.70481591796875,1.0784668518692255,1.5711550919890402,-1.2260609671026468
1780626044730844700,11.7148447265625,0.736160896396637,1.6687322536438702,0.45078152776062486
1780626044740874800,11.724874755859375,0.15676877081394194,1.2860299903750418,1.228928631493449
1780626044750903800,11.73490380859375,-0.7572413860872388,0.6417617802560329,0.7417623696655035
1780626044760934000,11.744933837890626,-0.9128925510481,1.505814897072315,0.05652969647347927
1780626044770964000,11.7549638671875,-0.6274564837887883,1.6700912670373915,-1.7756448143988848
1780626044780992800,11.76499267578125,-0.82892042863667,1.4004261848837136,-2.5604566367179156
1780626044791022800,11.77502294921875,-0.9391448904186487,0.7078776357203722,-2.3770722461789844
1780626044801052000,11.785052001953124,-0.5002203891903162,0.5127537075489759,-1.3437491888940334
1780626044811082000,11.79508203125,0.048211073200404644,1.1346358983367681,0.45176118644773955
1780626044821111800,11.80511181640625,0.3245084329754114,1.004759226101637,2.2146564093887804
1780626044831140900,11.815140869140626,-0.21364713459461926,0.683604779729247,3.043731151804328
1780626044841170700,11.825170654296874,-1.5243722980260848,-0.004805938977003097,2.795612715548277
1780626044851199700,11.83519970703125,-2.5006273141771556,-0.8295949668973683,1.9073440258860588
1780626044861229800,11.845229736328125,-1.3972612911120057,-0.006094809743762016,0.6114204180061816
1780626044871260000,11.855260009765624,0.364202145460248,1.0232657736510038,-0.03970832553207874
1780626044881288700,11.865288818359375,1.2506810290962458,0.9429360993951559,-0.23701368939578532
1780626044891318800,11.87531884765625,1.3164622457787394,0.12100012281835079,-0.12329495575726032
1780626044901347800,11.885347900390625,0.8669672506973147,-0.7029086151361466,-0.19800795917510985
1780626044911378000,11.8953779296875,0.4423483381971717,-0.23379297378361225,-0.5491548082292079
1780626044921407700,11.90540771484375,-0.14246084399819373,0.6666331866621971,-0.9284802885413169
1780626044931436800,11.915436767578125,-0.4001391357600689,0.44718204196393485,-0.43688042818009853
1780626044941467000,11.925466796875,-0.3492264023855328,-0.8771370547950267,0.6899748992830514
1780626044951496000,11.935495849609374,-0.1666334544852376,-2.2148294278681275,2.0025082811802624
1780626044961526000,11.945526123046875,-0.21880875514149664,-2.0055571473568676,2.478415482369065
1780626044971555600,11.9555556640625,-0.1252107262507081,-0.4635334573060274,1.5533441254884004
1780626044981585000,11.9655849609375,0.3265732565507293,-0.3008540011435747,1.6630027700811623
1780626044991614700,11.97561474609375,0.6810606482043862,-2.611519299957156,2.373055996274948
1780626045001644800,11.985644775390625,1.0846700904235242,-3.1486867332726716,2.5163018531709906
1780626045011673900,11.995673828125,2.1050781365558504,-1.3649965595841407,1.94868901270926
1780626045021703700,12.00570361328125,3.243706027138233,0.8620534674316644,0.4116624002933502
1780626045031732700,12.015732666015625,4.690246020682156,3.7346307647168633,-1.989131497734785
1780626045041762800,12.0257626953125,6.01921469681263,5.270125345259904,-5.139188934838772
1780626045051792000,12.0357919921875,7.215660862374305,2.655669407328963,-7.5091224151790135
1780626045061821700,12.04582177734375,7.217988428539037,-0.5831266359359025,-7.608922513580322
1780626045071851800,12.055851806640625,5.833446626007556,-2.3978467386603355,-5.854895656749606
1780626045081880800,12.065880859375,4.352358173912763,-2.6678157721966502,-3.5178929706305264
1780626045091911000,12.075910888671874,3.1401939224764703,-1.8755080411642788,-0.7707803743571042
1780626045101940000,12.08593994140625,1.4830138671994209,-0.30577392188906666,1.7005027719140051
1780626045111969800,12.0959697265625,-0.6414803329661488,1.125958086362481,2.6339865678310392
1780626045121999600,12.10599951171875,-2.2177993835896253,2.1071429601311684,2.4730939950853585
1780626045132029000,12.11602880859375,-3.2133167340934277,2.4014035543590784,2.0304513501167296
1780626045142058800,12.126058837890625,-3.3294530502676962,1.9231822310090063,1.3809978463143109
1780626045152087800,12.136087890625,-3.0822064284101125,1.4524340200185775,0.7655600093603133
1780626045162117600,12.14611767578125,-2.701427242158353,1.1156120489150285,0.19443477686345575
1780626045172147700,12.156147705078125,-2.1451032729521393,0.8719494230240583,-0.319949162235856
1780626045182176800,12.1661767578125,-1.7976625849395989,0.761017689755559,-0.5657207431048155
1780626045192206800,12.176206787109376,-1.5250444981992244,0.6773422122031449,-0.49831192522048945
1780626045202237000,12.18623681640625,-1.4006409966781734,0.5338239681065082,-0.2808241895496845
1780626045212265700,12.196265625,-1.4369114567160606,0.37892449829578395,0.12255319747924803
1780626045222295800,12.2062958984375,-1.5331184990614652,0.14850304677188395,0.6116513041526079
1780626045232324900,12.216324951171876,-1.4442895842686294,-0.48529520725905895,0.9422358421713113
1780626045242355000,12.22635498046875,-1.0731681609392165,-1.1227373707503079,1.0223246934086083
1780626045252385000,12.236385009765625,-0.8766305665776133,-1.440103530755639,0.9672720837503671
1780626045262413800,12.246413818359375,-0.6926166459634899,-1.6083078878194093,0.747580116033554
1780626045272443600,12.256443603515624,-0.4543333750233054,-1.652641535064578,0.4433160141855478
1780626045282473000,12.266472900390625,-0.3685816757187247,-1.7315122426837681,0.09181669843196869
1780626045292502800,12.276502685546875,-0.17472206839472054,-1.5709838270753622,-0.39861061101853845
1780626045302532900,12.286532958984376,0.1156643147483468,-0.9946814842015504,-0.7226713002264499
1780626045312561700,12.296561767578124,0.18237492123544216,-0.3517185114622116,-0.8321335454642772
1780626045322591700,12.306591796875,0.2687988207131624,0.13844342505037785,-0.8621335469305514
1780626045332620800,12.316620849609375,0.3755167356789112,0.7436036136180162,-0.677713383603096
1780626045342651000,12.32665087890625,0.7132268877938389,1.1569482679098844,-0.4353291070848703
1780626045352681000,12.336680908203125,0.6915884719595312,1.2457903344452381,-0.2830933035254478
1780626045362709800,12.346709716796875,0.42316988273560996,1.2446791583329437,-0.22335750448703764
1780626045372739800,12.35673974609375,0.3416901616618037,1.1565893714696167,-0.021166706669330595
1780626045382769000,12.366768798828126,0.23618951353132722,1.067555581754446,0.31330373287200924
1780626045392799000,12.376799072265625,0.265489257773757,1.0789975977450608,0.5895552076786756
1780626045402829000,12.3868291015625,0.4045312332391739,1.3598738097429275,0.7951169432342052
1780626045412858000,12.396858154296876,0.5394622662544251,1.747754936954379,0.9448165063142776
1780626045422888000,12.406887939453124,0.5824100120991468,1.9823639032959937,0.940494551461935
1780626045432917000,12.4169169921875,0.33929859035015103,1.7917536531567573,0.7232558221161365
1780626045442946800,12.42694677734375,-0.11405571050792931,1.3893746295154095,0.4486106134623289
1780626045452977000,12.436976806640626,-0.33571137951314445,1.0034411292403935,0.13619418481886386
1780626045463006000,12.447005859375,-0.4123988978743553,0.7776449994295835,-0.13308394384384153
1780626045473036000,12.4570361328125,-0.27162907570302486,0.805656457427144,-0.34623043543994425
1780626045483064800,12.46706494140625,0.06314531522095203,0.8086188143640756,-0.6100532213062048
1780626045493095000,12.477094970703124,0.36996143963932987,1.049218545553088,-0.742093209055066
1780626045503125000,12.487125,0.19400398423075674,1.341301211220026,-0.847494196203351
1780626045513154000,12.497154052734375,-0.48928047750294207,1.6986311328232286,-0.9936141472309827
1780626045523183900,12.507183837890626,-1.0453852510005235,1.9423580561220646,-0.9704700030088425
1780626045533213000,12.517212890625,-1.2169804195463656,1.598705362215638,-1.0023059877306222
1780626045543243000,12.527242919921875,-1.2603420068889855,0.8531336633950471,-0.9018371962875127
1780626045553273000,12.537273193359376,-1.03657066090405,0.0321072028785944,-0.6871224324613809
1780626045563302100,12.54730224609375,-0.6372615462273359,-0.9180153008893132,-0.6782850460112094
1780626045573331700,12.557331787109375,-0.37330899650156496,-1.7399693976446986,-0.9128992730498313
1780626045583361000,12.567361083984375,-0.13178192133456468,-2.1259245252296326,-0.9967050989836453
1780626045593390800,12.577390869140626,0.10429507173299789,-2.2272654233321547,-0.8622586346149445
1780626045603421000,12.5874208984375,0.3389420319974422,-2.026407919944823,-0.7324994512796401
1780626045613450000,12.597449951171875,0.4466118408605456,-1.6130723257422446,-0.7609796958327293
