time,seconds_elapsed,z,y,x
1780626033072696000,0.056696044921875,-1.0373992919921875,-0.242156982421875,-0.1456756591796875
1780626033082726000,0.066725830078125,-1.0045928955078125,-0.32415771484375,-0.1733856201171875
1780626033092755700,0.076755615234375,-0.9279937744140625,-0.37567138671875,-0.208740234375
1780626033102784800,0.08678466796875,-0.9178619384765625,-0.4085235595703125,-0.2176055908203125
1780626033112814800,0.09681494140625,-1.018341064453125,-0.334075927734375,-0.222564697265625
1780626033122844000,0.106843994140625,-1.27520751953125,-0.167083740234375,-0.23321533203125
1780626033132874000,0.1168740234375,-1.3224945068359375,-0.257965087890625,-0.2048492431640625
1780626033142902800,0.12690283203125,-1.0397796630859375,-0.376922607421875,-0.180816650390625
1780626033152932900,0.136932861328125,-0.7344512939453125,-0.4320220947265625,-0.148162841796875
1780626033162963000,0.146962890625,-0.6739044189453125,-0.4763336181640625,-0.1435546875
1780626033172992000,0.156991943359375,-0.734710693359375,-0.4627532958984375,-0.111114501953125
1780626033183021800,0.167021728515625,-0.7231903076171875,-0.38092041015625,-0.06475830078125
1780626033193051000,0.17705078125,-0.694183349609375,-0.3003082275390625,-0.0498809814453125
1780626033203081000,0.1870810546875,-0.7501373291015625,-0.1328125,-0.0601043701171875
1780626033213110000,0.197110107421875,-0.83343505859375,-0.1047821044921875,-0.0815277099609375
1780626033223140000,0.20714013671875,-0.925384521484375,-0.11492919921875,-0.0803375244140625
1780626033233170000,0.217169921875,-1.000274658203125,-0.1342315673828125,-0.097808837890625
1780626033243199000,0.227198974609375,-1.019683837890625,-0.18218994140625,-0.1339569091796875
1780626033253228800,0.237228759765625,-0.955810546875,-0.264068603515625,-0.149627685546875
1780626033263257900,0.2472578125,-0.87109375,-0.4326629638671875,-0.1435699462890625
1780626033273288000,0.257287841796875,-0.81884765625,-0.5989532470703125,-0.1321563720703125
1780626033283316700,0.267316650390625,-0.7111358642578125,-0.62762451171875,-0.14019775390625
1780626033293346800,0.277346923828125,-0.75970458984375,-0.632354736328125,-0.179046630859375
1780626033303376000,0.2873759765625,-0.8713226318359375,-0.66668701171875,-0.1689453125
1780626033313406000,0.297406005859375,-0.9534759521484375,-0.659393310546875,-0.1524200439453125
1780626033323435800,0.307435791015625,-0.9772796630859375,-0.52667236328125,-0.1425628662109375
1780626033333464800,0.31746484375,-0.9501800537109375,-0.3640289306640625,-0.0236053466796875
1780626033343495000,0.327494873046875,-0.9180145263671875,-0.1959991455078125,0.017181396484375
1780626033353524000,0.33752392578125,-0.8859405517578125,-0.0658721923828125,-0.01318359375
1780626033363554000,0.347553955078125,-0.9090728759765625,-0.0611572265625,-0.0441131591796875
1780626033373582800,0.357582763671875,-0.8974761962890625,-0.0751190185546875,-0.095367431640625
1780626033383613000,0.367613037109375,-0.776397705078125,-0.1711578369140625,-0.083099365234375
1780626033393643000,0.37764306640625,-0.761688232421875,-0.3465576171875,-0.06817626953125
1780626033403672000,0.387672119140625,-0.782867431640625,-0.403533935546875,-0.104278564453125
1780626033413702000,0.397701904296875,-0.8042144775390625,-0.331878662109375,-0.1450347900390625
1780626033423731000,0.40773095703125,-0.858154296875,-0.1961669921875,-0.2602996826171875
1780626033433760800,0.4177607421875,-0.854217529296875,-0.0843505859375,-0.3423309326171875
1780626033443790000,0.4277900390625,-0.8531494140625,-0.038360595703125,-0.3542327880859375
1780626033453820000,0.43781982421875,-0.8464202880859375,-0.0692901611328125,-0.3666534423828125
1780626033463849700,0.447849609375,-0.7960968017578125,-0.1172637939453125,-0.4413604736328125
1780626033473878800,0.457878662109375,-0.74957275390625,-0.165435791015625,-0.404449462890625
1780626033483908900,0.467908935546875,-0.781585693359375,-0.0198211669921875,-0.371612548828125
1780626033493938000,0.47793798828125,-0.8538818359375,0.2444305419921875,-0.473419189453125
1780626033503968000,0.487968017578125,-0.761932373046875,0.3368377685546875,-0.5159912109375
1780626033513996800,0.497996826171875,-0.60504150390625,0.369384765625,-0.5376129150390625
1780626033524027000,0.50802685546875,-0.4363555908203125,0.514892578125,-0.5142059326171875
1780626033534057000,0.518056884765625,-0.1493988037109375,0.721466064453125,-0.413604736328125
1780626033544086000,0.5280859375,0.095733642578125,0.7719268798828125,-0.4715423583984375
1780626033554116000,0.5381162109375,0.0798187255859375,0.70489501953125,-0.764923095703125
1780626033564145000,0.548144775390625,-0.428497314453125,0.5490875244140625,-0.963775634765625
1780626033574175000,0.558175048828125,-0.9528961181640625,0.652496337890625,-1.129669189453125
1780626033584204000,0.5682041015625,-1.2060699462890625,0.8516693115234375,-1.133514404296875
1780626033594234000,0.578234130859375,-1.0924835205078125,0.8984222412109375,-1.05938720703125
1780626033604263700,0.588263671875,-0.763275146484375,1.0075531005859375,-0.9265899658203125
1780626033614292700,0.598292724609375,-0.43267822265625,1.174285888671875,-0.75592041015625
1780626033624322800,0.60832275390625,-0.24932861328125,1.2100372314453125,-0.6943511962890625
1780626033634351900,0.618351806640625,-0.04534912109375,1.2339019775390625,-0.7804412841796875
1780626033644382000,0.6283818359375,0.071990966796875,1.3358154296875,-0.912994384765625
1780626033654410800,0.63841064453125,-0.0378265380859375,1.3319244384765625,-0.932891845703125
1780626033664440800,0.64844091796875,-0.42181396484375,1.436279296875,-1.115081787109375
1780626033674471000,0.658470947265625,-0.727630615234375,1.5543975830078125,-1.301849365234375
1780626033684500000,0.6685,-0.92816162109375,1.53558349609375,-1.43475341796875
1780626033694530000,0.678530029296875,-1.030609130859375,1.5155792236328125,-1.6078948974609375
1780626033704558800,0.688558837890625,-0.9651031494140625,1.4036865234375,-1.7590789794921875
1780626033714589000,0.6985888671875,-1.09381103515625,1.2039794921875,-2.060455322265625
1780626033724618000,0.708617919921875,-1.40155029296875,0.9269866943359375,-2.4644012451171875
1780626033734648000,0.71864794921875,-1.5276336669921875,0.6158599853515625,-2.870147705078125
1780626033744678000,0.728677978515625,-1.5220947265625,0.3483428955078125,-3.34490966796875
1780626033754707000,0.73870703125,-1.2185821533203125,0.06048583984375,-3.801239013671875
1780626033764736800,0.74873681640625,-0.5753326416015625,-0.2523651123046875,-4.075286865234375
1780626033774766000,0.75876611328125,-0.0643768310546875,-0.310546875,-4.14495849609375
1780626033784796000,0.7687958984375,0.163360595703125,-0.15692138671875,-4.0081329345703125
1780626033794825000,0.778824951171875,0.386260986328125,-0.0352020263671875,-3.7062530517578125
1780626033804854800,0.788854736328125,0.7422637939453125,0.0064697265625,-3.3191986083984375
1780626033814884900,0.798884765625,1.1266632080078125,-0.076141357421875,-3.0159759521484375
1780626033824914000,0.808913818359375,1.5268707275390625,-0.268707275390625,-2.757110595703125
1780626033834944000,0.818944091796875,1.7337493896484375,-0.3345184326171875,-2.504730224609375
1780626033844972800,0.828972900390625,1.6824798583984375,-0.3073577880859375,-2.3325653076171875
1780626033855003000,0.8390029296875,1.4912261962890625,-0.298126220703125,-2.234130859375
1780626033865033000,0.849032958984375,1.1700439453125,0.003631591796875,-2.0459136962890625
1780626033875062000,0.85906201171875,0.7698822021484375,0.4962615966796875,-1.6016693115234375
1780626033885091800,0.869091796875,0.5406494140625,1.01019287109375,-1.00006103515625
1780626033895121000,0.879120849609375,0.59442138671875,1.255706787109375,-0.4395904541015625
1780626033905151000,0.88915087890625,0.5673065185546875,1.6421661376953125,0.1918487548828125
1780626033915180000,0.899179931640625,0.3033447265625,1.8881072998046875,0.6405487060546875
1780626033925210000,0.909210205078125,0.1862335205078125,1.7789306640625,0.83251953125
1780626033935239700,0.91923974609375,0.064117431640625,1.37078857421875,0.594482421875
1780626033945269000,0.92926904296875,-0.092132568359375,1.3716278076171875,0.55572509765625
1780626033955298800,0.939298828125,-0.7424774169921875,1.7155609130859375,0.6806182861328125
1780626033965328000,0.949327880859375,-1.5797271728515625,1.292327880859375,0.1776885986328125
1780626033975358000,0.95935791015625,-1.589019775390625,0.70623779296875,-0.4795684814453125
1780626033985386800,0.96938671875,-1.472198486328125,0.531036376953125,-0.6383056640625
1780626033995416800,0.979416748046875,-1.2287750244140625,0.497589111328125,-0.6344757080078125
1780626034005447000,0.989447021484375,-0.8758392333984375,0.4947357177734375,-0.558135986328125
1780626034015476000,0.99947607421875,-0.5723419189453125,0.4870758056640625,-0.4964752197265625
1780626034025505800,1.009505859375,-0.271270751953125,0.497955322265625,-0.444183349609375
1780626034035534800,1.019534912109375,-0.061248779296875,0.5652313232421875,-0.4271087646484375
1780626034045565000,1.02956494140625,0.073455810546875,0.4881744384765625,-0.5905609130859375
1780626034055595000,1.039594970703125,0.2526092529296875,0.3447265625,-0.91778564453125
1780626034065624000,1.0496240234375,0.2419281005859375,0.2037353515625,-1.1960296630859375
1780626034075654000,1.05965380859375,0.063629150390625,0.1963958740234375,-1.4803619384765625
1780626034085683000,1.069682861328125,-0.140838623046875,0.15673828125,-1.581268310546875
1780626034095713000,1.079713134765625,-0.16668701171875,0.21856689453125,-1.52435302734375
1780626034105742000,1.0897421875,-0.159698486328125,0.3999786376953125,-1.220062255859375
1780626034115772000,1.09977197265625,0.1625823974609375,0.41412353515625,-1.03814697265625
1780626034125801700,1.1098017578125,0.5282135009765625,0.10205078125,-1.23638916015625
1780626034135830800,1.119830810546875,0.6575927734375,0.15216064453125,-1.1970977783203125
1780626034145860900,1.12986083984375,0.9686431884765625,-0.494415283203125,-1.653472900390625
1780626034155890000,1.139889892578125,0.5810546875,0.2642364501953125,-1.404296875
1780626034165919700,1.149919677734375,0.432342529296875,0.8016815185546875,-0.6885223388671875
1780626034175949800,1.15994970703125,0.6714019775390625,1.0763397216796875,-0.2317657470703125
1780626034185979000,1.169978759765625,0.4335784912109375,1.5550689697265625,0.2801513671875
1780626034196009000,1.180009033203125,-0.743316650390625,1.5512847900390625,0.1357269287109375
1780626034206038000,1.1900380859375,-2.022430419921875,1.1400299072265625,-0.308868408203125
1780626034216067800,1.20006787109375,-2.6982269287109375,0.73974609375,-0.739501953125
1780626034226097000,1.210096923828125,-2.8619232177734375,0.3645172119140625,-1.044891357421875
1780626034236127000,1.220126953125,-2.0640716552734375,0.2192535400390625,-1.26336669921875
1780626034246157000,1.230156982421875,-1.145904541015625,0.2496795654296875,-1.1526641845703125
1780626034256186000,1.24018603515625,-0.5889892578125,0.405059814453125,-0.9468231201171875
1780626034266215700,1.250215576171875,-0.57794189453125,0.4637603759765625,-0.810394287109375
1780626034276245000,1.260244873046875,-0.3236541748046875,0.55859375,-0.733917236328125
1780626034286274800,1.27027490234375,0.199615478515625,0.6474761962890625,-0.7281494140625
1780626034296305000,1.280304931640625,0.4826812744140625,0.4459228515625,-0.67022705078125
1780626034306333700,1.290333740234375,0.9568634033203125,0.313629150390625,-0.6612701416015625
1780626034316363800,1.30036376953125,1.037872314453125,0.2834930419921875,-0.71209716796875
1780626034326392800,1.310392822265625,0.9754180908203125,0.458709716796875,-0.64703369140625
1780626034336423000,1.3204228515625,0.869049072265625,0.2461700439453125,-0.6373748779296875
1780626034346452000,1.330451904296875,0.7366943359375,0.139190673828125,-0.6402740478515625
1780626034356481800,1.340481689453125,0.580047607421875,0.138275146484375,-0.60516357421875
1780626034366511900,1.350511962890625,0.47918701171875,0.2925567626953125,-0.5034942626953125
1780626034376541000,1.360541015625,0.2417144775390625,0.549468994140625,-0.3736419677734375
1780626034386571000,1.370571044921875,0.110107421875,0.82147216796875,-0.3177490234375
1780626034396600000,1.38060009765625,-0.0104522705078125,1.09625244140625,-0.331573486328125
1780626034406630000,1.3906298828125,-0.0079193115234375,1.387054443359375,-0.4869537353515625
1780626034416659700,1.40065966796875,0.1591339111328125,1.7935791015625,-0.753082275390625
1780626034426689000,1.41068896484375,-0.189788818359375,1.73211669921875,-1.004364013671875
1780626034436718800,1.42071875,-0.292022705078125,1.3294677734375,-1.199554443359375
1780626034446748000,1.430747802734375,-0.18878173828125,1.1009063720703125,-1.1840972900390625
1780626034456777700,1.44077783203125,0.0161895751953125,0.9654541015625,-0.9905853271484375
1780626034466807800,1.450807861328125,0.31689453125,0.8394927978515625,-0.7335205078125
1780626034476836900,1.4608369140625,0.5008697509765625,0.6662750244140625,-0.467041015625
1780626034486867000,1.470866943359375,0.5021514892578125,0.4852294921875,-0.2213134765625
1780626034496895700,1.480895751953125,0.39874267578125,0.39715576171875,-0.0509490966796875
1780626034506925800,1.49092578125,0.4250030517578125,0.411712646484375,-0.0216522216796875
1780626034516955000,1.500954833984375,0.4514923095703125,0.5522308349609375,-0.1304473876953125
1780626034526985000,1.51098486328125,0.3704681396484375,0.6958770751953125,-0.2928924560546875
1780626034537015000,1.52101513671875,0.389892578125,0.79498291015625,-0.437652587890625
1780626034547043800,1.5310439453125,0.460723876953125,0.8315887451171875,-0.5312347412109375
1780626034557074000,1.541073974609375,0.5762481689453125,0.8706512451171875,-0.540924072265625
1780626034567103000,1.55110302734375,0.601470947265625,0.83416748046875,-0.4952392578125
1780626034577133000,1.561133056640625,0.395294189453125,0.720306396484375,-0.5472259521484375
1780626034587163000,1.571162841796875,0.4299468994140625,0.819183349609375,-0.54315185546875
1780626034597192000,1.58119189453125,0.241943359375,0.8966522216796875,-0.4174346923828125
1780626034607221800,1.5912216796875,0.08050537109375,1.087493896484375,-0.5327606201171875
1780626034617250800,1.601250732421875,-0.1909027099609375,1.3475799560546875,-0.7217864990234375
1780626034627281000,1.611281005859375,-0.5673828125,1.4213409423828125,-0.7176361083984375
1780626034637311000,1.62131103515625,-0.49151611328125,1.000244140625,-0.4246673583984375
1780626034647339800,1.63133984375,-0.1451416015625,0.4764862060546875,0.0927276611328125
1780626034657369900,1.641369873046875,-0.7031707763671875,0.611785888671875,0.2322845458984375
1780626034667399000,1.65139892578125,-0.6503448486328125,0.6361541748046875,0.3088531494140625
1780626034677429000,1.661428955078125,-0.4644317626953125,0.701080322265625,0.1273956298828125
1780626034687459000,1.671458984375,-0.495697021484375,0.721923828125,-0.0583648681640625
1780626034697488000,1.68148779296875,-0.5324859619140625,0.749176025390625,-0.208770751953125
1780626034707518000,1.69151806640625,-0.6916656494140625,0.97674560546875,-0.5843505859375
1780626034717547000,1.701547119140625,-0.0738067626953125,1.0916290283203125,-0.679443359375
1780626034727577000,1.7115771484375,0.5705413818359375,1.19970703125,-0.678741455078125
1780626034737607000,1.72160693359375,0.6067352294921875,1.212432861328125,-0.5575103759765625
1780626034747636000,1.731635986328125,0.370819091796875,1.0006866455078125,-0.444549560546875
1780626034757665800,1.741665771484375,0.315338134765625,0.8244781494140625,-0.3777618408203125
1780626034767694800,1.75169482421875,0.1907958984375,0.789886474609375,-0.3128662109375
1780626034777725000,1.761724853515625,0.417144775390625,0.749267578125,-0.1749114990234375
1780626034787755000,1.771755126953125,0.40960693359375,0.7056427001953125,-0.049713134765625
1780626034797783800,1.78178369140625,0.2978057861328125,0.74334716796875,0.02239990234375
1780626034807814000,1.79181396484375,0.2778167724609375,0.9504852294921875,-0.0447998046875
1780626034817843000,1.801843017578125,0.327178955078125,1.277191162109375,-0.2580413818359375
1780626034827873000,1.811873046875,0.3653106689453125,1.4786224365234375,-0.5092620849609375
1780626034837902800,1.82190283203125,0.2720489501953125,1.676116943359375,-0.688323974609375
1780626034847932000,1.831931884765625,-0.030487060546875,1.6920013427734375,-0.708648681640625
1780626034857962000,1.8419619140625,-0.316131591796875,1.5853118896484375,-0.610382080078125
1780626034867991000,1.851990966796875,-0.556365966796875,1.3583831787109375,-0.3782958984375
1780626034878021000,1.862021240234375,-0.5589599609375,1.0468292236328125,-0.061126708984375
1780626034888050000,1.8720498046875,-0.2689208984375,0.866790771484375,0.206573486328125
1780626034898080000,1.882080078125,-0.26806640625,0.7694549560546875,0.3032379150390625
1780626034908109800,1.89210986328125,-0.2505035400390625,0.73284912109375,0.3029022216796875
1780626034918139000,1.902138916015625,-0.27301025390625,0.72943115234375,0.2734527587890625
1780626034928169000,1.9121689453125,-0.2565460205078125,0.6889495849609375,0.3590087890625
1780626034938197800,1.92219775390625,-0.22625732421875,0.6918792724609375,0.347320556640625
1780626034948227800,1.932227783203125,-0.132843017578125,0.70281982421875,0.2837982177734375
1780626034958258000,1.9422578125,0.08062744140625,0.760711669921875,0.225067138671875
1780626034968287000,1.952286865234375,0.0921478271484375,0.8159332275390625,0.006317138671875
1780626034978316800,1.96231689453125,0.171875,0.869354248046875,-0.0221405029296875
1780626034988345900,1.972345947265625,0.0543365478515625,0.959991455078125,-0.1153411865234375
1780626034998376000,1.9823759765625,-0.058685302734375,1.0532379150390625,-0.2446746826171875
1780626035008406000,1.992406005859375,0.073333740234375,1.07037353515625,-0.2769775390625
1780626035018435000,2.00243505859375,0.2422332763671875,1.039276123046875,-0.1671142578125
1780626035028465000,2.01246484375,0.15667724609375,1.0223236083984375,-0.12152099609375
1780626035038494000,2.022493896484375,0.1985015869140625,1.076873779296875,-0.16741943359375
1780626035048523800,2.032523681640625,0.208892822265625,1.16290283203125,-0.22314453125
1780626035058553900,2.042553955078125,0.0344696044921875,1.2364654541015625,-0.284271240234375
1780626035068583000,2.0525830078125,-0.1135711669921875,1.2515716552734375,-0.3121185302734375
1780626035078612700,2.06261279296875,-0.158477783203125,1.1967926025390625,-0.284027099609375
1780626035088641800,2.072641845703125,-0.1866912841796875,1.20684814453125,-0.253753662109375
1780626035098671900,2.082671875,-0.1743621826171875,1.194793701171875,-0.2286224365234375
1780626035108702000,2.092701904296875,-0.225616455078125,1.118682861328125,-0.2317657470703125
1780626035118730800,2.102730712890625,-0.1864471435546875,1.032012939453125,-0.2275390625
1780626035128760800,2.1127607421875,-0.11846923828125,1.0196533203125,-0.2261199951171875
1780626035138790000,2.122789794921875,-0.143768310546875,0.9558258056640625,-0.1416473388671875
1780626035148820000,2.132820068359375,-0.17303466796875,0.896209716796875,-0.0048980712890625
1780626035158850000,2.14285009765625,-0.1766815185546875,0.8907318115234375,0.0794830322265625
1780626035168878800,2.15287890625,-0.180389404296875,0.88067626953125,0.0959930419921875
1780626035178909000,2.162908935546875,-0.1689300537109375,0.8165283203125,0.0849151611328125
1780626035188938000,2.17293798828125,-0.1537017822265625,0.77325439453125,0.0687408447265625
1780626035198967800,2.1829677734375,-0.136810302734375,0.8486785888671875,0.0567626953125
1780626035208998000,2.192997802734375,-0.020233154296875,0.8916015625,0.0217132568359375
1780626035219026700,2.203026611328125,0.32135009765625,0.8498382568359375,-0.079193115234375
1780626035229056800,2.213056884765625,0.3302459716796875,0.9107666015625,-0.10955810546875
1780626035239085800,2.2230859375,0.014801025390625,0.9044189453125,-0.1190643310546875
1780626035249116000,2.233115966796875,-0.3131866455078125,0.871337890625,-0.0863800048828125
1780626035259146000,2.24314599609375,-0.29718017578125,0.79656982421875,-0.06573486328125
1780626035269174800,2.2531748046875,-0.3264007568359375,0.78564453125,-0.0310211181640625
1780626035279204900,2.263204833984375,-0.3187255859375,0.81536865234375,-0.0163116455078125
1780626035289234000,2.27323388671875,-0.2790985107421875,0.833953857421875,-0.0216217041015625
1780626035299264000,2.283263916015625,-0.214691162109375,0.8975830078125,-0.048187255859375
1780626035309292800,2.293292724609375,-0.117919921875,1.0131988525390625,-0.1367340087890625
1780626035319323000,2.303322998046875,0.02130126953125,1.1940155029296875,-0.30621337890625
1780626035329353000,2.31335302734375,0.1520538330078125,1.3744964599609375,-0.5484466552734375
1780626035339382000,2.323382080078125,0.0179290771484375,1.3838958740234375,-0.6876220703125
1780626035349411800,2.333411865234375,-0.23199462890625,1.265045166015625,-0.6266937255859375
1780626035359442000,2.34344189453125,-0.367767333984375,1.1512908935546875,-0.4135284423828125
1780626035369471000,2.353470947265625,-0.322235107421875,1.0228424072265625,-0.1404266357421875
1780626035379501000,2.3635009765625,-0.3006744384765625,0.89544677734375,0.0824737548828125
1780626035389530000,2.373530029296875,-0.318572998046875,0.8296356201171875,0.1694488525390625
1780626035399560200,2.383560302734375,-0.35089111328125,0.8534393310546875,0.195648193359375
1780626035409589000,2.393589111328125,-0.371826171875,0.935150146484375,0.217254638671875
1780626035419619000,2.403619140625,-0.2865753173828125,1.0012664794921875,0.2377166748046875
1780626035429649200,2.413649169921875,-0.1169281005859375,1.0252532958984375,0.2201385498046875
1780626035439678200,2.42367822265625,0.068572998046875,1.0151214599609375,0.1386566162109375
1780626035449708300,2.433708251953125,0.1888275146484375,1.007568359375,-0.0104217529296875
1780626035459737000,2.443737060546875,0.088043212890625,1.0465087890625,-0.127288818359375
1780626035469767200,2.45376708984375,-0.11407470703125,1.085479736328125,-0.1612548828125
1780626035479797200,2.46379736328125,-0.204437255859375,1.077911376953125,-0.151214599609375
1780626035489826300,2.473826416015625,-0.1465606689453125,1.0577392578125,-0.141448974609375
1780626035499856100,2.483856201171875,0.0239715576171875,0.9801788330078125,-0.173309326171875
1780626035509885200,2.49388525390625,0.068389892578125,0.9548492431640625,-0.2164459228515625
1780626035519915000,2.5039150390625,-0.006866455078125,1.020416259765625,-0.2137298583984375
1780626035529945000,2.513945068359375,-0.0527801513671875,0.9511566162109375,-0.2220458984375
1780626035539974100,2.52397412109375,-0.0295562744140625,0.870574951171875,-0.255706787109375
1780626035550004200,2.534004150390625,-0.0828094482421875,0.92742919921875,-0.256927490234375
1780626035560033000,2.544032958984375,-0.232757568359375,0.9826202392578125,-0.1754302978515625
1780626035570063000,2.55406298828125,-0.2646942138671875,0.949371337890625,-0.1175689697265625
1780626035580093200,2.56409326171875,-0.2105255126953125,0.8809661865234375,-0.0854644775390625
1780626035590122200,2.574122314453125,-0.118682861328125,0.789794921875,-0.1280517578125
1780626035600152300,2.58415234375,-0.0448760986328125,0.812408447265625,-0.2404632568359375
1780626035610181000,2.59418115234375,-0.046051025390625,0.902252197265625,-0.2955780029296875
1780626035620211200,2.604211181640625,-0.1327362060546875,0.97894287109375,-0.2923583984375
1780626035630241300,2.6142412109375,-0.20257568359375,1.0680084228515625,-0.2610015869140625
1780626035640270300,2.624270263671875,-0.1809234619140625,1.067047119140625,-0.2169342041015625
1780626035650300200,2.634300048828125,-0.18328857421875,1.009124755859375,-0.1733856201171875
1780626035660329200,2.6443291015625,-0.2057037353515625,0.9583282470703125,-0.1231689453125
1780626035670359000,2.654359130859375,-0.2233734130859375,0.9151458740234375,-0.083160400390625
1780626035680389000,2.66438916015625,-0.237213134765625,0.89398193359375,-0.05010986328125
1780626035690418200,2.674418212890625,-0.2772369384765625,0.926177978515625,-0.0069732666015625
1780626035700448000,2.684447998046875,-0.2631988525390625,0.959686279296875,0.0324554443359375
1780626035710477000,2.69447705078125,-0.1193084716796875,0.9970855712890625,0.040679931640625
1780626035720507100,2.704507080078125,-0.0169677734375,1.0433807373046875,0.015228271484375
1780626035730537200,2.714537109375,-0.006927490234375,1.06793212890625,-0.01580810546875
1780626035740566300,2.724566162109375,-0.04473876953125,1.035614013671875,-0.0646209716796875
1780626035750596000,2.73459619140625,-0.093719482421875,1.000244140625,-0.1240997314453125
1780626035760625200,2.744625244140625,-0.1263580322265625,0.99468994140625,-0.168182373046875
1780626035770655200,2.7546552734375,-0.1507415771484375,0.978851318359375,-0.2009124755859375
1780626035780685300,2.764685302734375,-0.153411865234375,0.9219512939453125,-0.2079010009765625
1780626035790714400,2.77471435546875,-0.139984130859375,0.896942138671875,-0.1864776611328125
1780626035800744000,2.784743896484375,-0.12451171875,0.9047088623046875,-0.1531829833984375
1780626035810773200,2.794773193359375,-0.06573486328125,0.9329986572265625,-0.1435089111328125
1780626035820803000,2.804802978515625,-0.003814697265625,1.008880615234375,-0.1741943359375
1780626035830832000,2.81483203125,-0.015594482421875,1.0972900390625,-0.2154388427734375
1780626035840862000,2.824862060546875,-0.0445404052734375,1.133148193359375,-0.2487030029296875
1780626035850892000,2.83489208984375,-0.13446044921875,1.1367340087890625,-0.253143310546875
1780626035860921000,2.844921142578125,-0.2412872314453125,1.110748291015625,-0.224639892578125
1780626035870951200,2.854951171875,-0.27001953125,1.05584716796875,-0.186767578125
1780626035880980200,2.864980224609375,-0.2963104248046875,1.033172607421875,-0.1316680908203125
1780626035891010000,2.875010009765625,-0.2916717529296875,0.9567108154296875,-0.0813751220703125
1780626035901040000,2.8850400390625,-0.2876434326171875,0.9507293701171875,-0.0488128662109375
1780626035911069200,2.895069091796875,-0.216033935546875,0.939239501953125,-0.0291900634765625
1780626035921099300,2.905099365234375,-0.2470550537109375,1.0625152587890625,-0.0372467041015625
1780626035931128300,2.91512841796875,-0.3139801025390625,1.112091064453125,-0.0277557373046875
1780626035941158100,2.925158203125,-0.2654876708984375,1.09033203125,-0.035858154296875
1780626035951188000,2.93518798828125,-0.20855712890625,1.0189666748046875,-0.0660552978515625
1780626035961217300,2.94521728515625,-0.1710205078125,1.0115966796875,-0.11395263671875
1780626035971247000,2.9552470703125,-0.1871185302734375,1.116119384765625,-0.1795196533203125
1780626035981276200,2.965276123046875,-0.1583404541015625,1.2595062255859375,-0.2349395751953125
1780626035991306000,2.975305908203125,-0.10443115234375,1.29571533203125,-0.28680419921875
1780626036001336000,2.985336181640625,-0.1275177001953125,1.3658294677734375,-0.301727294921875
1780626036011365000,2.995365234375,-0.071533203125,1.3441162109375,-0.2771148681640625
1780626036021395200,3.005395263671875,-0.032470703125,1.207977294921875,-0.2053375244140625
1780626036031424000,3.015424072265625,-0.041259765625,1.1111602783203125,-0.08465576171875
1780626036041454000,3.0254541015625,-0.02008056640625,1.018768310546875,0.0315704345703125
1780626036051484200,3.035484130859375,0.02020263671875,0.9345245361328125,0.1178741455078125
1780626036061513200,3.04551318359375,0.076873779296875,0.8916168212890625,0.1483306884765625
1780626036071543300,3.055543212890625,-0.0462799072265625,0.9067840576171875,0.181488037109375
1780626036081572000,3.065572021484375,-0.167938232421875,0.943603515625,0.19580078125
1780626036091602200,3.075602294921875,-0.14508056640625,0.8958282470703125,0.1476593017578125
1780626036101632000,3.085632080078125,-0.0422515869140625,0.508544921875,0.0324859619140625
1780626036111661300,3.095661376953125,0.207855224609375,0.143402099609375,-0.0999755859375
1780626036121691100,3.105691162109375,0.318603515625,0.0478057861328125,-0.1959381103515625
1780626036131720200,3.11572021484375,0.2924346923828125,0.2272186279296875,-0.2203826904296875
1780626036141750000,3.12575,0.2697906494140625,0.4886627197265625,-0.1591339111328125
1780626036151780000,3.135780029296875,0.2384033203125,0.7343292236328125,-0.09954833984375
1780626036161809200,3.14580908203125,0.1503448486328125,1.0146942138671875,-0.0694122314453125
1780626036171839200,3.155839111328125,0.052459716796875,1.2707672119140625,-0.1063995361328125
1780626036181868000,3.165867919921875,-0.07293701171875,1.4256439208984375,-0.1755828857421875
1780626036191898000,3.175898193359375,-0.2899017333984375,1.44952392578125,-0.2467041015625
1780626036201927200,3.18592724609375,-0.5128326416015625,1.3488006591796875,-0.3001861572265625
1780626036211957200,3.195957275390625,-0.417236328125,1.00341796875,-0.2793426513671875
1780626036221987300,3.2059873046875,-0.2247772216796875,0.860809326171875,-0.2405548095703125
1780626036232016100,3.21601611328125,-0.232177734375,1.0065460205078125,-0.163848876953125
1780626036242046200,3.226046142578125,-0.3318023681640625,1.0827789306640625,-0.0989532470703125
1780626036252075300,3.2360751953125,-0.3760528564453125,1.17181396484375,-0.0735321044921875
1780626036262105300,3.246105224609375,-0.4250946044921875,1.097686767578125,-0.00823974609375
1780626036272135200,3.25613525390625,-0.2771759033203125,0.964263916015625,-0.02423095703125
1780626036282164200,3.266164306640625,0.169647216796875,0.7783355712890625,-0.085113525390625
1780626036292194000,3.276194091796875,0.5933685302734375,0.7784881591796875,-0.1970062255859375
1780626036302223000,3.28622314453125,0.5223846435546875,0.8401336669921875,-0.2219696044921875
1780626036312253200,3.296253173828125,0.2763824462890625,0.998199462890625,-0.1728057861328125
1780626036322283300,3.306283203125,0.113006591796875,1.0760345458984375,-0.1251678466796875
1780626036332312000,3.31631201171875,0.14166259765625,1.0626220703125,-0.0565643310546875
1780626036342342100,3.326342041015625,0.2191162109375,1.17938232421875,-0.0099029541015625
1780626036352371200,3.33637109375,0.1922454833984375,1.2322845458984375,0.0449981689453125
1780626036362401300,3.3464013671875,0.0772705078125,1.2006378173828125,0.047454833984375
1780626036372431400,3.356431396484375,-0.040985107421875,1.417236328125,0.01666259765625
1780626036382460400,3.36646044921875,-0.1277313232421875,1.6743011474609375,0.0326995849609375
1780626036392490500,3.376490478515625,-0.1060943603515625,1.7860107421875,0.091888427734375
1780626036402519300,3.386519287109375,-0.0384521484375,1.6725616455078125,0.1433258056640625
1780626036412549400,3.39654931640625,0.009979248046875,1.2058258056640625,0.1483917236328125
1780626036422579200,3.4065791015625,0.0027923583984375,0.82452392578125,0.12066650390625
1780626036432608300,3.416608154296875,-0.0162811279296875,0.751434326171875,0.1351165771484375
1780626036442638300,3.426638427734375,0.026275634765625,0.6759796142578125,0.11578369140625
1780626036452667100,3.436667236328125,-0.0177764892578125,0.784149169921875,0.0272979736328125
1780626036462697200,3.446697265625,-0.1206817626953125,0.9416351318359375,-0.1136016845703125
1780626036472727300,3.456727294921875,-0.06854248046875,0.9327545166015625,-0.2567138671875
1780626036482756400,3.46675634765625,0.111083984375,0.73443603515625,-0.33966064453125
1780626036492786400,3.476786376953125,0.1361846923828125,0.578216552734375,-0.3737640380859375
1780626036502815200,3.486815185546875,0.0175018310546875,0.5364990234375,-0.3784637451171875
1780626036512845300,3.49684521484375,0.0877685546875,0.5441436767578125,-0.3049468994140625
1780626036522875400,3.50687548828125,0.1768035888671875,0.552093505859375,-0.1468963623046875
1780626036532904400,3.516904541015625,0.1605224609375,0.5419769287109375,-0.0172271728515625
1780626036542934500,3.5269345703125,0.1728057861328125,0.5524139404296875,0.09112548828125
1780626036552963300,3.53696337890625,0.1935882568359375,0.6025543212890625,0.1478118896484375
1780626036562993400,3.546993408203125,0.1429901123046875,0.638214111328125,0.1334228515625
1780626036573022500,3.5570224609375,0.081268310546875,0.6593170166015625,0.1005859375
1780626036583052300,3.56705224609375,0.06341552734375,0.5916900634765625,0.055511474609375
1780626036593082400,3.577082275390625,0.0623779296875,0.428436279296875,-0.0014495849609375
1780626036603111200,3.587111083984375,0.0409698486328125,0.3041839599609375,-0.0035400390625
1780626036613141200,3.597141357421875,0.048797607421875,0.194610595703125,0.0223388671875
1780626036623170300,3.60717041015625,0.0435333251953125,0.1403656005859375,0.043304443359375
1780626036633200400,3.617200439453125,0.1007843017578125,0.1930389404296875,0.0793304443359375
1780626036643230200,3.627230224609375,0.26947021484375,0.44866943359375,0.14263916015625
1780626036653259300,3.63725927734375,0.413116455078125,0.7398529052734375,0.1916046142578125
1780626036663289300,3.647289306640625,0.415557861328125,0.93316650390625,0.229095458984375
1780626036673318400,3.657318359375,0.2254180908203125,0.9698638916015625,0.187744140625
1780626036683348500,3.667348388671875,0.036590576171875,1.029052734375,0.1027679443359375
1780626036693378300,3.67737841796875,0.0128326416015625,1.2426910400390625,0.039703369140625
1780626036703407400,3.687407470703125,0.123626708984375,1.698272705078125,0.0377655029296875
1780626036713437400,3.6974375,-0.13543701171875,1.936492919921875,-0.049591064453125
1780626036723466500,3.707466552734375,-0.2874298095703125,2.3921051025390625,-0.1678314208984375
1780626036733496300,3.717496337890625,-0.10528564453125,2.6136016845703125,-0.3751068115234375
1780626036743526100,3.727526123046875,0.073577880859375,2.392578125,-0.5398712158203125
1780626036753555200,3.73755517578125,-0.0036468505859375,2.0549468994140625,-0.5102996826171875
1780626036763585300,3.747585205078125,-0.0545806884765625,1.5723419189453125,-0.387451171875
1780626036773614300,3.7576142578125,-0.0906524658203125,1.23883056640625,-0.2421417236328125
1780626036783644200,3.76764404296875,-0.169525146484375,1.0485992431640625,-0.12042236328125
1780626036793674200,3.77767431640625,-0.2400970458984375,0.9027099609375,-0.05645751953125
1780626036803703300,3.787703369140625,-0.25653076171875,0.8440399169921875,-0.0055084228515625
1780626036813733400,3.7977333984375,-0.2148284912109375,0.8529205322265625,0.0564727783203125
1780626036823762400,3.807762451171875,-0.12286376953125,0.869110107421875,0.111480712890625
1780626036833792300,3.817792236328125,-0.025909423828125,0.8463287353515625,0.147735595703125
1780626036843822300,3.827822265625,0.0280914306640625,0.79541015625,0.158050537109375
1780626036853851400,3.837851318359375,0.0425872802734375,0.754852294921875,0.147125244140625
1780626036863881500,3.847881591796875,0.038726806640625,0.7227325439453125,0.1163177490234375
1780626036873910500,3.85791064453125,0.048858642578125,0.682464599609375,0.0879058837890625
1780626036883940000,3.867940185546875,0.083160400390625,0.71453857421875,0.0674896240234375
1780626036893970200,3.87797021484375,0.1320648193359375,0.73162841796875,0.0463409423828125
1780626036903999200,3.887999267578125,0.184539794921875,0.7137908935546875,0.011688232421875
1780626036914029300,3.898029296875,0.24542236328125,0.7004241943359375,-0.0268707275390625
1780626036924058000,3.90805810546875,0.2284088134765625,0.734161376953125,-0.039398193359375
1780626036934088200,3.918088134765625,0.1767578125,0.6958770751953125,-0.06878662109375
1780626036944118300,3.9281181640625,0.202178955078125,0.693359375,-0.085296630859375
1780626036954147300,3.938147216796875,0.1881103515625,0.7061920166015625,-0.0915374755859375
1780626036964177400,3.948177490234375,0.2040252685546875,0.7067108154296875,-0.0791015625
1780626036974206200,3.958206298828125,0.1896209716796875,0.8028717041015625,-0.0342254638671875
1780626036984236300,3.968236328125,0.2291412353515625,0.866668701171875,0.0045013427734375
1780626036994266400,3.978266357421875,0.329742431640625,0.892974853515625,0.0292205810546875
1780626037004295400,3.98829541015625,0.3513031005859375,0.90118408203125,0.02508544921875
1780626037014325500,3.998325439453125,0.345428466796875,0.9105072021484375,0.0065155029296875
1780626037024354300,4.008354248046875,0.3611907958984375,0.9701995849609375,-0.0050811767578125
1780626037034384100,4.018384033203125,0.4269256591796875,1.0731048583984375,-0.0067138671875
1780626037044413400,4.028413330078125,0.478790283203125,1.1662750244140625,-0.0013275146484375
1780626037054443300,4.038443359375,0.4753265380859375,1.211883544921875,0.02130126953125
1780626037064473300,4.048473388671875,0.460174560546875,1.201568603515625,0.061492919921875
1780626037074502100,4.058502197265625,0.48187255859375,1.1794586181640625,0.104888916015625
1780626037084532200,4.0685322265625,0.51739501953125,1.1749725341796875,0.1602020263671875
1780626037094561300,4.078561279296875,0.5001068115234375,1.205535888671875,0.2270660400390625
1780626037104591400,4.08859130859375,0.417572021484375,1.25543212890625,0.294586181640625
1780626037114621400,4.098621337890625,0.299835205078125,1.27496337890625,0.3383026123046875
1780626037124650200,4.108650146484375,0.2448577880859375,1.2546539306640625,0.373199462890625
1780626037134680300,4.118680419921875,0.248321533203125,1.1919097900390625,0.391632080078125
1780626037144709400,4.12870947265625,0.2883453369140625,1.0806427001953125,0.392852783203125
1780626037154739500,4.138739501953125,0.371337890625,0.9812469482421875,0.402557373046875
1780626037164769500,4.14876953125,0.451812744140625,0.9781036376953125,0.40802001953125
1780626037174798300,4.15879833984375,0.3955841064453125,1.025634765625,0.3576507568359375
1780626037184828200,4.168828125,0.2239532470703125,1.0318450927734375,0.2518463134765625
1780626037194857500,4.178857421875,0.0932159423828125,0.9931488037109375,0.22027587890625
1780626037204887300,4.18888720703125,0.0970306396484375,0.9317626953125,0.2585296630859375
1780626037214917400,4.19891748046875,0.1874847412109375,0.7970733642578125,0.2700042724609375
1780626037224946200,4.2089462890625,0.1881866455078125,0.7029876708984375,0.215423583984375
1780626037234976300,4.218976318359375,0.10211181640625,0.72576904296875,0.1143798828125
1780626037245005300,4.22900537109375,-0.01409912109375,0.8111572265625,0.0299072265625
1780626037255035400,4.239035400390625,-0.10888671875,0.898162841796875,-0.0387420654296875
1780626037265065500,4.2490654296875,-0.1240386962890625,0.961395263671875,-0.0906219482421875
1780626037275094300,4.25909423828125,-0.0434112548828125,1.0271453857421875,-0.1039581298828125
1780626037285124400,4.269124267578125,0.07275390625,1.0813140869140625,-0.0915374755859375
1780626037295153400,4.2791533203125,0.110626220703125,1.09063720703125,-0.0745086669921875
1780626037305183500,4.28918359375,0.077423095703125,1.08203125,-0.0548858642578125
1780626037315213300,4.29921337890625,0.00750732421875,1.065948486328125,-0.0359344482421875
1780626037325242400,4.309242431640625,-0.098480224609375,1.0321044921875,0.0031585693359375
1780626037335272200,4.319272216796875,-0.184722900390625,0.9943084716796875,0.063446044921875
1780626037345301500,4.329301513671875,-0.2116546630859375,0.9552459716796875,0.1091766357421875
1780626037355331300,4.339331298828125,-0.2053985595703125,0.92584228515625,0.1373748779296875
1780626037365361200,4.349361083984375,-0.1742706298828125,0.8968505859375,0.14666748046875
1780626037375390200,4.35939013671875,-0.1407623291015625,0.8834075927734375,0.146881103515625
1780626037385420300,4.369420166015625,-0.1125640869140625,0.8785552978515625,0.118560791015625
1780626037395449300,4.379449462890625,-0.0831298828125,0.889923095703125,0.067535400390625
1780626037405479400,4.3894794921875,-0.064697265625,0.8948974609375,0.018798828125
1780626037415508200,4.39950830078125,-0.072998046875,0.8955841064453125,-0.0209808349609375
1780626037425538300,4.409538330078125,-0.0908355712890625,0.8834228515625,-0.037017822265625
1780626037435568400,4.419568359375,-0.1140289306640625,0.8856048583984375,-0.0325164794921875
1780626037445597400,4.429597412109375,-0.1229400634765625,0.904266357421875,-0.02117919921875
1780626037455627300,4.439627197265625,-0.1142578125,0.9270477294921875,0.0085906982421875
1780626037465656300,4.44965625,-0.1056976318359375,0.9759521484375,0.0500640869140625
1780626037475686400,4.459686279296875,-0.0886077880859375,1.0449066162109375,0.09857177734375
1780626037485716200,4.46971630859375,-0.0940093994140625,1.080322265625,0.1274566650390625
1780626037495745500,4.47974560546875,-0.123382568359375,1.0968017578125,0.129425048828125
1780626037505775000,4.489775146484375,-0.152496337890625,1.095123291015625,0.1256561279296875
1780626037515804400,4.499804443359375,-0.159881591796875,1.0809478759765625,0.12042236328125
1780626037525834200,4.509834228515625,-0.1565093994140625,1.0338897705078125,0.120269775390625
1780626037535864300,4.5198642578125,-0.1363983154296875,0.9781036376953125,0.1152191162109375
1780626037545893400,4.529893310546875,-0.1090087890625,0.950439453125,0.09417724609375
1780626037555923200,4.539923095703125,-0.087158203125,0.9379730224609375,0.0715484619140625
1780626037565952300,4.5499521484375,-0.0924530029296875,0.9569244384765625,0.0556488037109375
1780626037575982300,4.559982421875,-0.1202850341796875,1.005462646484375,0.0367584228515625
1780626037586012400,4.570012451171875,-0.146270751953125,1.0632476806640625,0.0089111328125
1780626037596041200,4.580041259765625,-0.171112060546875,1.127777099609375,-0.0123138427734375
1780626037606071300,4.5900712890625,-0.2116241455078125,1.182373046875,-0.0222930908203125
1780626037616100400,4.600100341796875,-0.2004547119140625,1.2131805419921875,-0.0333099365234375
1780626037626130400,4.61013037109375,-0.147979736328125,1.183837890625,-0.0341033935546875
1780626037636160300,4.62016015625,-0.077423095703125,1.1342620849609375,-0.0358734130859375
1780626037646189300,4.630189208984375,-0.033599853515625,1.0882415771484375,-0.0365447998046875
1780626037656219100,4.64021923828125,-0.03009033203125,1.0529937744140625,-0.042755126953125
1780626037666248400,4.65024853515625,-0.0312652587890625,1.019439697265625,-0.049041748046875
1780626037676278300,4.6602783203125,-0.0431060791015625,1.0041961669921875,-0.0521697998046875
1780626037686308400,4.670308349609375,-0.058258056640625,1.0024566650390625,-0.0541839599609375
1780626037696337200,4.680337158203125,-0.0682525634765625,0.9972686767578125,-0.0544891357421875
1780626037706367200,4.6903671875,-0.0742950439453125,1.0050506591796875,-0.0539093017578125
1780626037716396300,4.700396240234375,-0.0766448974609375,1.0078277587890625,-0.05084228515625
1780626037726426400,4.71042626953125,-0.0737762451171875,1.003173828125,-0.037109375
1780626037736456400,4.72045654296875,-0.0630035400390625,1.0139617919921875,-0.024444580078125
1780626037746485200,4.7304853515625,-0.0657958984375,1.041229248046875,-0.00970458984375
1780626037756515300,4.740515380859375,-0.08746337890625,1.0592193603515625,0.01177978515625
1780626037766544400,4.75054443359375,-0.11370849609375,1.0719146728515625,0.0308990478515625
1780626037776574500,4.760574462890625,-0.1434478759765625,1.081207275390625,0.05322265625
1780626037786603300,4.770603271484375,-0.1285247802734375,1.0711669921875,0.0635528564453125
1780626037796633300,4.78063330078125,-0.0121307373046875,1.0607757568359375,0.053192138671875
1780626037806663200,4.7906630859375,0.1831817626953125,1.1037445068359375,0.010345458984375
1780626037816692500,4.8006923828125,0.1570587158203125,1.1569976806640625,-0.0262603759765625
1780626037826722300,4.810722412109375,-0.018951416015625,1.1082763671875,-0.02911376953125
1780626037836751000,4.820751220703125,-0.1278228759765625,0.9647369384765625,-0.035736083984375
1780626037846781200,4.83078125,-0.1219635009765625,0.8509979248046875,-0.0270233154296875
1780626037856811300,4.840811279296875,-0.04486083984375,0.787200927734375,0.01416015625
1780626037866840300,4.85084033203125,0.0438690185546875,0.7734222412109375,0.0540618896484375
1780626037876870400,4.860870361328125,0.084869384765625,0.84503173828125,0.1094970703125
1780626037886899200,4.870899169921875,0.085601806640625,0.9576416015625,0.17327880859375
1780626037896929300,4.88092919921875,0.0850067138671875,1.049560546875,0.2187652587890625
1780626037906959400,4.89095947265625,0.0467529296875,1.132537841796875,0.266693115234375
1780626037916988400,4.900988525390625,0.0374908447265625,1.1654510498046875,0.3055877685546875
1780626037927018500,4.9110185546875,0.0466461181640625,1.11419677734375,0.30029296875
1780626037937047300,4.92104736328125,0.0264739990234375,0.9954681396484375,0.2492218017578125
1780626037947077400,4.931077392578125,0.0352630615234375,0.8645477294921875,0.2146148681640625
1780626037957107200,4.941107177734375,0.0596160888671875,0.7611541748046875,0.193939208984375
1780626037967136300,4.95113623046875,0.0819549560546875,0.6684417724609375,0.1746978759765625
1780626037977166300,4.961166259765625,0.116485595703125,0.60015869140625,0.1599884033203125
1780626037987195100,4.971195068359375,0.14398193359375,0.56793212890625,0.1562042236328125
1780626037997225200,4.98122509765625,0.2010345458984375,0.563568115234375,0.1684417724609375
1780626038007255300,4.99125537109375,0.2738189697265625,0.5813140869140625,0.166717529296875
1780626038017284400,5.001284423828125,0.325927734375,0.6185455322265625,0.157196044921875
1780626038027314400,5.011314453125,0.3695068359375,0.6614227294921875,0.1393280029296875
1780626038037343200,5.02134326171875,0.4051055908203125,0.6994171142578125,0.111175537109375
1780626038047373300,5.031373291015625,0.4268951416015625,0.740936279296875,0.074249267578125
1780626038057403400,5.0414033203125,0.436614990234375,0.78704833984375,0.02911376953125
1780626038067432400,5.051432373046875,0.411712646484375,0.82318115234375,-0.0139007568359375
1780626038077462500,5.061462646484375,0.37628173828125,0.828155517578125,-0.0369720458984375
1780626038087491300,5.0714912109375,0.3827362060546875,0.83245849609375,-0.0396881103515625
1780626038097521400,5.081521484375,0.3933563232421875,0.898040771484375,-0.0525054931640625
1780626038107550500,5.091550537109375,0.339080810546875,1.0390777587890625,-0.06854248046875
1780626038117580300,5.101580322265625,0.081787109375,1.2508087158203125,0.0047454833984375
1780626038127610000,5.111610107421875,-0.0646820068359375,1.4171295166015625,0.1695098876953125
1780626038137639200,5.12163916015625,0.1348114013671875,1.4173736572265625,0.313262939453125
1780626038147669200,5.131669189453125,0.2994384765625,1.404937744140625,0.3927764892578125
1780626038157698300,5.1416982421875,0.0066680908203125,1.2894134521484375,0.4520721435546875
1780626038167728400,5.151728271484375,-0.1367340087890625,1.0097503662109375,0.506927490234375
1780626038177758200,5.16175830078125,0.1822967529296875,0.7294921875,0.5614166259765625
1780626038187787300,5.171787353515625,0.4591217041015625,0.6964569091796875,0.655914306640625
1780626038197817300,5.1818173828125,0.5318756103515625,0.8339080810546875,0.70611572265625
1780626038207846400,5.191846435546875,0.2272186279296875,0.996185302734375,0.625244140625
1780626038217876500,5.20187646484375,-0.0850067138671875,1.144317626953125,0.4746856689453125
1780626038227906300,5.21190625,-0.0644378662109375,1.247314453125,0.295806884765625
1780626038237935400,5.221935302734375,-0.0780181884765625,1.2164154052734375,0.2113494873046875
1780626038247965400,5.23196533203125,-0.0768890380859375,1.1616058349609375,0.1840667724609375
1780626038257994500,5.241994384765625,0.0455169677734375,1.137298583984375,0.1645355224609375
1780626038268024300,5.2520244140625,0.1322021484375,1.0615692138671875,0.1355743408203125
1780626038278054100,5.26205419921875,0.05914306640625,0.9293975830078125,0.10662841796875
1780626038288083200,5.272083251953125,-0.0498504638671875,0.829345703125,0.0861358642578125
1780626038298113300,5.28211328125,-0.0724334716796875,0.79681396484375,0.081695556640625
1780626038308142300,5.292142333984375,-0.0584259033203125,0.8223876953125,0.105194091796875
1780626038318172200,5.302172119140625,-0.030120849609375,0.8856353759765625,0.148101806640625
1780626038328202200,5.3122021484375,-0.013458251953125,0.9496002197265625,0.1919097900390625
1780626038338231300,5.322231201171875,-0.0400238037109375,0.9821624755859375,0.2283172607421875
1780626038348261400,5.332261474609375,-0.08233642578125,0.9874725341796875,0.2638397216796875
1780626038358290400,5.34229052734375,-0.0836029052734375,0.9895782470703125,0.2947845458984375
1780626038368320300,5.3523203125,-0.0586090087890625,0.986419677734375,0.317718505859375
1780626038378350300,5.362350341796875,-0.0253143310546875,0.9793243408203125,0.3309326171875
1780626038388379400,5.37237939453125,-0.0038299560546875,0.9603271484375,0.329681396484375
1780626038398409500,5.382409423828125,-0.001922607421875,0.9434967041015625,0.314849853515625
1780626038408438300,5.392438232421875,-0.00146484375,0.9449005126953125,0.288421630859375
1780626038418468400,5.40246826171875,-0.0049285888671875,0.9477386474609375,0.2684173583984375
1780626038428498200,5.412498291015625,-0.00714111328125,0.948577880859375,0.263397216796875
1780626038438527200,5.42252734375,-0.0092315673828125,0.949920654296875,0.2550811767578125
1780626038448557300,5.432557373046875,-0.0045166015625,0.9551849365234375,0.24853515625
1780626038458586000,5.442586181640625,-0.0041351318359375,0.9619598388671875,0.2484130859375
1780626038468616200,5.4526162109375,-0.0062713623046875,0.955108642578125,0.2462005615234375
1780626038478645200,5.462645263671875,-0.013031005859375,0.9451904296875,0.2489776611328125
1780626038488675300,5.47267529296875,-0.018218994140625,0.92596435546875,0.2534027099609375
1780626038498705400,5.482705322265625,-0.0272674560546875,0.8887176513671875,0.2519378662109375
1780626038508734200,5.492734130859375,-0.042877197265625,0.855133056640625,0.250732421875
1780626038518764300,5.502764404296875,-0.070587158203125,0.8607940673828125,0.2567596435546875
1780626038528793300,5.51279345703125,-0.08819580078125,0.9134674072265625,0.267791748046875
1780626038538823400,5.522823486328125,-0.087738037109375,0.9942474365234375,0.2884521484375
1780626038548853200,5.532853271484375,-0.0868377685546875,1.0733489990234375,0.30865478515625
1780626038558882300,5.54288232421875,-0.0907745361328125,1.102569580078125,0.3168182373046875
1780626038568912400,5.552912353515625,-0.0872955322265625,1.0646209716796875,0.318603515625
1780626038578941400,5.56294140625,-0.0777740478515625,0.98858642578125,0.3049468994140625
1780626038588971300,5.57297119140625,-0.05548095703125,0.9321441650390625,0.277130126953125
1780626038599001000,5.5830009765625,-0.0250701904296875,0.8890228271484375,0.252227783203125
1780626038609030100,5.593030029296875,0.0010986328125,0.8434295654296875,0.2274017333984375
1780626038619060200,5.603060302734375,0.0118408203125,0.8265380859375,0.2156524658203125
1780626038629089300,5.61308935546875,0.0062255859375,0.869598388671875,0.2242279052734375
1780626038639119400,5.623119384765625,0.0081024169921875,0.967376708984375,0.244903564453125
1780626038649149200,5.633149169921875,0.007171630859375,1.044403076171875,0.267120361328125
1780626038659178200,5.64317822265625,-0.0147705078125,1.0728912353515625,0.269683837890625
1780626038669208300,5.653208251953125,-0.0313873291015625,1.06048583984375,0.25341796875
1780626038679237400,5.6632373046875,-0.013763427734375,0.9951171875,0.2322998046875
1780626038689267200,5.67326708984375,-0.0153656005859375,0.944427490234375,0.2270660400390625
1780626038699297300,5.68329736328125,-0.0347137451171875,0.9463653564453125,0.23223876953125
1780626038709326300,5.693326416015625,-0.0326690673828125,0.9501800537109375,0.2440643310546875
1780626038719356400,5.7033564453125,-0.0292510986328125,0.94879150390625,0.2523956298828125
1780626038729385500,5.713385498046875,-0.04083251953125,0.94110107421875,0.251800537109375
1780626038739415300,5.723415283203125,-0.056915283203125,0.92803955078125,0.243927001953125
1780626038749445000,5.733445068359375,-0.0572509765625,0.92169189453125,0.23529052734375
1780626038759474200,5.74347412109375,-0.0472869873046875,0.92767333984375,0.242767333984375
1780626038769504300,5.753504150390625,-0.0218505859375,0.9443511962890625,0.2611541748046875
1780626038779533300,5.763533203125,0.0060882568359375,0.9648284912109375,0.26519775390625
1780626038789563100,5.773563232421875,0.022705078125,1.0022735595703125,0.2553253173828125
1780626038799593200,5.78359326171875,0.0315399169921875,1.0313568115234375,0.23638916015625
1780626038809622300,5.793622314453125,0.0421905517578125,1.026763916015625,0.2248992919921875
1780626038819652400,5.80365234375,0.0523223876953125,0.98712158203125,0.225555419921875
1780626038829681200,5.81368115234375,0.0456695556640625,0.94427490234375,0.2323150634765625
1780626038839711200,5.823711181640625,0.0389251708984375,0.9200286865234375,0.2339324951171875
1780626038849740300,5.833740234375,0.03228759765625,0.922332763671875,0.2335052490234375
1780626038859770400,5.843770263671875,0.0226287841796875,0.9507598876953125,0.242095947265625
1780626038869800400,5.853800537109375,0.0186920166015625,0.9941558837890625,0.25146484375
1780626038879829200,5.863829345703125,0.0147552490234375,1.0204315185546875,0.2614288330078125
1780626038889859000,5.873859130859375,0.0075531005859375,1.0230712890625,0.2621612548828125
1780626038899888400,5.883888427734375,-0.0000762939453125,1.007415771484375,0.2479400634765625
1780626038909918200,5.893918212890625,-0.0160064697265625,0.9792633056640625,0.24053955078125
1780626038919948300,5.9039482421875,-0.0369415283203125,0.9505615234375,0.2431640625
1780626038929977000,5.91397705078125,-0.052886962890625,0.94134521484375,0.2485809326171875
1780626038940007200,5.924007080078125,-0.065582275390625,0.9259490966796875,0.2681121826171875
1780626038950036200,5.9340361328125,-0.0667572021484375,0.9098052978515625,0.279296875
1780626038960066300,5.94406640625,-0.0563812255859375,0.8985595703125,0.2807769775390625
1780626038970096400,5.954096435546875,-0.03076171875,0.900604248046875,0.259521484375
1780626038980125200,5.964125244140625,-0.01263427734375,0.904388427734375,0.2337799072265625
1780626038990155300,5.9741552734375,0.0015716552734375,0.91387939453125,0.2040252685546875
1780626039000184300,5.984184326171875,0.013336181640625,0.9427032470703125,0.174041748046875
1780626039010214400,5.99421435546875,0.0186004638671875,0.971435546875,0.1499786376953125
1780626039020244500,6.004244384765625,0.014251708984375,0.993988037109375,0.1333465576171875
1780626039030273300,6.014273193359375,0.002471923828125,1.0157470703125,0.1307220458984375
1780626039040303000,6.02430322265625,-0.0123138427734375,1.0199737548828125,0.1351470947265625
1780626039050332400,6.03433251953125,-0.0294952392578125,1.0186004638671875,0.1505126953125
1780626039060362200,6.0443623046875,-0.048126220703125,1.005706787109375,0.1789398193359375
1780626039070392300,6.054392333984375,-0.0495758056640625,0.99224853515625,0.2075653076171875
1780626039080421000,6.064421142578125,-0.0526275634765625,0.9781494140625,0.223846435546875
1780626039090451200,6.074451171875,-0.06488037109375,0.9566802978515625,0.232818603515625
1780626039100480300,6.084480224609375,-0.078094482421875,0.936676025390625,0.238616943359375
1780626039110510300,6.09451025390625,-0.0872955322265625,0.9342193603515625,0.2433929443359375
1780626039120540400,6.10454052734375,-0.078643798828125,0.948211669921875,0.258056640625
1780626039130569200,6.1145693359375,-0.0563201904296875,0.957366943359375,0.269134521484375
1780626039140599300,6.124599365234375,-0.0422515869140625,0.9742889404296875,0.275787353515625
1780626039150628400,6.13462841796875,-0.0239410400390625,0.978912353515625,0.2705841064453125
1780626039160658400,6.144658447265625,-0.011932373046875,0.9689483642578125,0.2598724365234375
1780626039170688500,6.1546884765625,-0.0192108154296875,0.9526519775390625,0.2574920654296875
1780626039180717300,6.16471728515625,-0.028228759765625,0.950439453125,0.260040283203125
1780626039190747100,6.1747470703125,-0.037567138671875,0.960693359375,0.265625
1780626039200776400,6.1847763671875,-0.0450897216796875,0.9778594970703125,0.2761077880859375
1780626039210806300,6.19480615234375,-0.0506439208984375,0.98431396484375,0.288299560546875
1780626039220835300,6.20483544921875,-0.0520172119140625,0.9837646484375,0.2906341552734375
1780626039230865200,6.214865234375,-0.0448760986328125,0.976593017578125,0.2836151123046875
1780626039240895200,6.224895263671875,-0.0394439697265625,0.96875,0.2701568603515625
1780626039250924300,6.23492431640625,-0.02545166015625,0.954620361328125,0.25665283203125
1780626039260954400,6.244954345703125,-0.0109100341796875,0.9420623779296875,0.2443389892578125
1780626039270983200,6.254983154296875,-0.018096923828125,0.936859130859375,0.2381439208984375
1780626039281013200,6.26501318359375,-0.0326995849609375,0.937286376953125,0.2427978515625
1780626039291043300,6.275043212890625,-0.03173828125,0.942413330078125,0.251434326171875
1780626039301072400,6.285072265625,-0.029022216796875,0.952423095703125,0.2572174072265625
1780626039311102500,6.2951025390625,-0.031158447265625,0.97247314453125,0.2580413818359375
1780626039321131300,6.30513134765625,-0.032745361328125,0.9888458251953125,0.260223388671875
1780626039331161300,6.315161376953125,-0.024566650390625,0.9978485107421875,0.2515869140625
1780626039341191200,6.325191162109375,-0.013916015625,1.0089874267578125,0.2352142333984375
1780626039351220500,6.335220458984375,-0.0237579345703125,1.01849365234375,0.2185516357421875
1780626039361250000,6.34525,-0.0240631103515625,1.0095672607421875,0.195556640625
1780626039371279400,6.355279296875,-0.024810791015625,0.9993133544921875,0.187286376953125
1780626039381309400,6.365309326171875,-0.0128936767578125,0.9803466796875,0.1696929931640625
1780626039391339500,6.375339599609375,-0.0008697509765625,0.9626312255859375,0.1402740478515625
1780626039401368600,6.38536865234375,-0.009552001953125,0.9619293212890625,0.1277008056640625
1780626039411398400,6.3953984375,-0.0361785888671875,0.959228515625,0.1353912353515625
1780626039421427500,6.405427490234375,-0.0627899169921875,0.9263916015625,0.1442413330078125
1780626039431457500,6.41545751953125,-0.0606231689453125,0.872711181640625,0.1546173095703125
1780626039441487600,6.425487548828125,-0.0276336669921875,0.85150146484375,0.158172607421875
1780626039451516700,6.4355166015625,-0.0111083984375,0.8680419921875,0.1672210693359375
1780626039461546500,6.44554638671875,-0.0137786865234375,0.90594482421875,0.1779632568359375
1780626039471575600,6.455575439453125,0.000640869140625,0.9583740234375,0.1871490478515625
1780626039481605600,6.465605712890625,0.024017333984375,1.0115509033203125,0.1886749267578125
1780626039491634700,6.475634765625,0.0268707275390625,1.04852294921875,0.185333251953125
1780626039501664500,6.48566455078125,0.0287628173828125,1.0337982177734375,0.17236328125
1780626039511694300,6.4956943359375,0.0242156982421875,1.0060272216796875,0.165069580078125
1780626039521723400,6.505723388671875,0.0084075927734375,0.979461669921875,0.18255615234375
1780626039531753500,6.51575341796875,0.0059814453125,0.961517333984375,0.2020111083984375
1780626039541783600,6.525783447265625,0.01397705078125,0.981231689453125,0.2214508056640625
1780626039551812400,6.535812255859375,0.0031280517578125,1.0197296142578125,0.2576446533203125
1780626039561842400,6.545842529296875,-0.0109405517578125,1.03271484375,0.2803497314453125
1780626039571871500,6.55587158203125,-0.0203704833984375,1.045501708984375,0.288360595703125
1780626039581901600,6.565901611328125,-0.055908203125,1.066131591796875,0.306854248046875
1780626039591930600,6.5759306640625,-0.067230224609375,1.0560302734375,0.3186187744140625
1780626039601960400,6.58596044921875,-0.053619384765625,1.0203399658203125,0.317047119140625
1780626039611990500,6.595990478515625,-0.0509185791015625,0.9729461669921875,0.314849853515625
1780626039622019600,6.60601953125,-0.059478759765625,0.91729736328125,0.2940673828125
1780626039632049700,6.616049560546875,-0.0597381591796875,0.8772430419921875,0.25970458984375
1780626039642078700,6.62607861328125,-0.037628173828125,0.8575897216796875,0.2296142578125
1780626039652108500,6.636108642578125,0.00042724609375,0.8663330078125,0.2131805419921875
1780626039662138400,6.646138427734375,0.0379180908203125,0.8955078125,0.20458984375
1780626039672167400,6.65616748046875,0.0413360595703125,0.9320220947265625,0.1716461181640625
1780626039682197500,6.666197509765625,0.019134521484375,0.951324462890625,0.1359710693359375
1780626039692226300,6.676226318359375,0.0135345458984375,0.956268310546875,0.1103973388671875
1780626039702256400,6.68625634765625,0.039093017578125,0.973663330078125,0.129119873046875
1780626039712286500,6.696286376953125,0.066375732421875,0.976226806640625,0.189849853515625
1780626039722315500,6.7063154296875,0.0417633056640625,0.96527099609375,0.2400054931640625
1780626039732345600,6.716345703125,-0.0066070556640625,0.9552001953125,0.2611846923828125
1780626039742374400,6.72637451171875,-0.0341644287109375,0.960235595703125,0.2653350830078125
1780626039752404500,6.736404541015625,-0.0162811279296875,0.9608001708984375,0.2585906982421875
1780626039762434600,6.7464345703125,-0.00811767578125,0.9347076416015625,0.222564697265625
1780626039772463600,6.756463623046875,-0.0146331787109375,0.91534423828125,0.1756134033203125
1780626039782493700,6.76649365234375,0.007049560546875,0.9199676513671875,0.15924072265625
1780626039792522500,6.7765224609375,0.0473175048828125,0.9439697265625,0.1688995361328125
1780626039802552600,6.786552490234375,0.0568084716796875,0.9659271240234375,0.1902008056640625
1780626039812582400,6.79658251953125,0.0325164794921875,0.972686767578125,0.193572998046875
1780626039822611500,6.806611572265625,0.00299072265625,0.96160888671875,0.1807098388671875
1780626039832641500,6.8166416015625,-0.0170135498046875,0.932891845703125,0.1669769287109375
1780626039842670300,6.82667041015625,-0.018524169921875,0.9050750732421875,0.1629638671875
1780626039852700400,6.836700439453125,-0.0071563720703125,0.9005889892578125,0.1676025390625
1780626039862729500,6.8467294921875,0.0086517333984375,0.9245758056640625,0.185272216796875
1780626039872759600,6.856759521484375,0.011749267578125,0.9651947021484375,0.2133026123046875
1780626039882789600,6.86678955078125,0.00994873046875,0.9884033203125,0.233856201171875
1780626039892818400,6.876818359375,0.0085601806640625,0.98541259765625,0.24560546875
1780626039902848500,6.8868486328125,0.01123046875,0.9696807861328125,0.2540740966796875
1780626039912877600,6.896877685546875,0.0183563232421875,0.9513397216796875,0.25634765625
1780626039922907600,6.90690771484375,0.028717041015625,0.94586181640625,0.248382568359375
1780626039932937700,6.916937744140625,0.0346221923828125,0.9493255615234375,0.234130859375
1780626039942966500,6.926966552734375,0.03619384765625,0.9655303955078125,0.221099853515625
1780626039952996600,6.93699658203125,0.0386199951171875,0.986083984375,0.216644287109375
1780626039963025700,6.947025634765625,0.0406036376953125,1.00750732421875,0.221832275390625
1780626039973055500,6.957055419921875,0.0427398681640625,1.011016845703125,0.2298431396484375
1780626039983085600,6.96708544921875,0.049652099609375,1.004241943359375,0.235870361328125
1780626039993114400,6.9771142578125,0.046173095703125,0.9820404052734375,0.2318115234375
1780626040003144400,6.98714453125,0.036163330078125,0.9464111328125,0.2169952392578125
1780626040013173500,6.997173583984375,0.021942138671875,0.9244842529296875,0.2039337158203125
1780626040023203600,7.00720361328125,0.0093841552734375,0.9211578369140625,0.194732666015625
1780626040033233700,7.017233642578125,-0.0051422119140625,0.934906005859375,0.19586181640625
1780626040043262500,7.027262451171875,-0.0109710693359375,0.959197998046875,0.2072906494140625
1780626040053292500,7.03729248046875,-0.0126190185546875,0.9866943359375,0.21942138671875
1780626040063321600,7.047321533203125,-0.01922607421875,1.018035888671875,0.2347564697265625
1780626040073351700,7.0573515625,-0.030609130859375,1.02392578125,0.2444610595703125
1780626040083381500,7.067381591796875,-0.0467376708984375,1.011749267578125,0.2540740966796875
1780626040093410600,7.07741064453125,-0.0731964111328125,0.9922027587890625,0.26409912109375
1780626040103440600,7.087440673828125,-0.092071533203125,0.966552734375,0.274200439453125
1780626040113469700,7.0974697265625,-0.092376708984375,0.937530517578125,0.285186767578125
1780626040123499500,7.10749951171875,-0.07537841796875,0.90899658203125,0.2908782958984375
1780626040133529300,7.117529296875,-0.0529327392578125,0.89501953125,0.295928955078125
1780626040143558400,7.127558349609375,-0.034515380859375,0.88555908203125,0.2982940673828125
1780626040153588500,7.13758837890625,-0.05120849609375,0.89874267578125,0.30230712890625
1780626040163617500,7.147617431640625,-0.0930633544921875,0.92132568359375,0.3142852783203125
1780626040173647600,7.157647705078125,-0.1206512451171875,0.942596435546875,0.341796875
1780626040183677400,7.167677490234375,-0.123199462890625,0.9564208984375,0.3746185302734375
1780626040193706500,7.17770654296875,-0.11138916015625,0.94268798828125,0.40521240234375
1780626040203736600,7.187736572265625,-0.090484619140625,0.901763916015625,0.4277801513671875
1780626040213765600,7.197765625,-0.0949859619140625,0.87591552734375,0.4521942138671875
1780626040223795500,7.20779541015625,-0.0828094482421875,0.880706787109375,0.4787750244140625
1780626040233825500,7.217825439453125,-0.041015625,0.8721923828125,0.48760986328125
1780626040243854600,7.2278544921875,-0.0149688720703125,0.85064697265625,0.475433349609375
1780626040253884700,7.237884765625,-0.0234527587890625,0.8388519287109375,0.45166015625
1780626040263913700,7.247913818359375,-0.0539093017578125,0.8563232421875,0.43133544921875
1780626040273943600,7.257943603515625,-0.057586669921875,0.868743896484375,0.4200439453125
1780626040283972600,7.26797265625,-0.0084686279296875,0.8527374267578125,0.4095458984375
1780626040294002400,7.27800244140625,0.0432281494140625,0.8336181640625,0.398193359375
1780626040304032500,7.288032470703125,0.082061767578125,0.8443603515625,0.3985443115234375
1780626040314061600,7.2980615234375,0.109527587890625,0.86846923828125,0.393341064453125
1780626040324091400,7.30809130859375,0.1408538818359375,0.895782470703125,0.3708038330078125
1780626040334120400,7.318120361328125,0.1870574951171875,0.93572998046875,0.3234405517578125
1780626040344150500,7.328150634765625,0.171142578125,1.0204315185546875,0.2617645263671875
1780626040354180600,7.3381806640625,0.12554931640625,1.0800933837890625,0.2086029052734375
1780626040364209400,7.34820947265625,0.1291656494140625,1.081329345703125,0.1862640380859375
1780626040374239500,7.358239501953125,0.1423492431640625,1.0383148193359375,0.2069244384765625
1780626040384268500,7.3682685546875,0.090972900390625,0.9687042236328125,0.246856689453125
1780626040394298600,7.378298583984375,0.0435028076171875,0.922149658203125,0.27496337890625
1780626040404328700,7.38832861328125,0.0713348388671875,0.9233856201171875,0.295928955078125
1780626040414357500,7.398357421875,0.1571502685546875,0.9636383056640625,0.30645751953125
1780626040424387300,7.40838720703125,0.2017822265625,1.0127410888671875,0.25994873046875
1780626040434416600,7.418416748046875,0.2135467529296875,1.0714874267578125,0.194580078125
1780626040444446500,7.428446533203125,0.1750335693359375,1.110260009765625,0.1540069580078125
1780626040454476500,7.4384765625,0.1489105224609375,1.0760650634765625,0.1552276611328125
1780626040464505300,7.44850537109375,0.1472015380859375,0.984832763671875,0.2046051025390625
1780626040474535400,7.458535400390625,0.1275787353515625,0.8935394287109375,0.2722930908203125
1780626040484564500,7.468564453125,0.11175537109375,0.8378448486328125,0.30279541015625
1780626040494594600,7.478594482421875,0.1193695068359375,0.87054443359375,0.2980194091796875
1780626040504624600,7.488624755859375,0.18597412109375,0.95306396484375,0.2702484130859375
1780626040514653400,7.4986533203125,0.2376861572265625,1.0054168701171875,0.233306884765625
1780626040524683500,7.50868359375,0.2310638427734375,1.0516357421875,0.1941680908203125
1780626040534712600,7.518712646484375,0.1688995361328125,1.0863037109375,0.1755218505859375
1780626040544742700,7.52874267578125,0.10302734375,1.074310302734375,0.207855224609375
1780626040554772700,7.538772705078125,0.0605316162109375,0.9881744384765625,0.2892913818359375
1780626040564801500,7.548801513671875,0.034942626953125,0.90625,0.372528076171875
1780626040574831400,7.558831298828125,0.0475006103515625,0.846893310546875,0.4423370361328125
1780626040584860700,7.568860595703125,0.091522216796875,0.812744140625,0.4856414794921875
1780626040594890500,7.578890380859375,0.129974365234375,0.830535888671875,0.48687744140625
1780626040604920600,7.588920654296875,0.20672607421875,0.8874053955078125,0.4262237548828125
1780626040614949400,7.598949462890625,0.2764434814453125,0.947601318359375,0.335601806640625
1780626040624979500,7.6089794921875,0.268890380859375,0.988861083984375,0.2608795166015625
1780626040635008500,7.619008544921875,0.2153472900390625,0.9912261962890625,0.2148590087890625
1780626040645038600,7.62903857421875,0.158447265625,0.9766082763671875,0.2081756591796875
1780626040655068700,7.639068603515625,0.111846923828125,0.9765472412109375,0.2279815673828125
1780626040665097500,7.649097412109375,0.0902252197265625,0.97393798828125,0.2484130859375
1780626040675127600,7.65912744140625,0.0770111083984375,0.96142578125,0.26190185546875
1780626040685156600,7.669156494140625,0.070770263671875,0.9324798583984375,0.2582855224609375
1780626040695186700,7.679186767578125,0.0922393798828125,0.9022674560546875,0.2425384521484375
1780626040705215500,7.689215576171875,0.115203857421875,0.89617919921875,0.2266387939453125
1780626040715245600,7.69924560546875,0.121490478515625,0.905609130859375,0.22637939453125
1780626040725275400,7.709275390625,0.122833251953125,0.9223480224609375,0.24053955078125
1780626040735304700,7.7193046875,0.10882568359375,0.9273223876953125,0.2712554931640625
1780626040745334500,7.72933447265625,0.1012420654296875,0.9100494384765625,0.307037353515625
1780626040755363600,7.739363525390625,0.1060028076171875,0.886383056640625,0.3317718505859375
1780626040765393400,7.749393310546875,0.1151123046875,0.8750152587890625,0.3482513427734375
1780626040775423500,7.759423583984375,0.123687744140625,0.877410888671875,0.355010986328125
1780626040785452500,7.76945263671875,0.132568359375,0.871185302734375,0.35736083984375
1780626040795482600,7.779482666015625,0.161224365234375,0.8681182861328125,0.3551788330078125
1780626040805511400,7.789511474609375,0.1829376220703125,0.8868408203125,0.3416900634765625
1780626040815541500,7.79954150390625,0.204071044921875,0.9288330078125,0.311370849609375
1780626040825571600,7.809571533203125,0.209625244140625,0.9710693359375,0.2624359130859375
1780626040835600600,7.8196005859375,0.2098388671875,0.9952239990234375,0.2144775390625
1780626040845630500,7.82963037109375,0.198089599609375,0.9862518310546875,0.1844635009765625
1780626040855659500,7.839659423828125,0.1808624267578125,0.96392822265625,0.173248291015625
1780626040865689600,7.849689697265625,0.163604736328125,0.9519500732421875,0.1723785400390625
1780626040875719400,7.859719482421875,0.1534881591796875,0.947662353515625,0.175811767578125
1780626040885748700,7.869748779296875,0.1470489501953125,0.960113525390625,0.183349609375
1780626040895778300,7.8797783203125,0.1308746337890625,0.96673583984375,0.2009735107421875
1780626040905807600,7.8898076171875,0.11651611328125,0.9670867919921875,0.222015380859375
1780626040915837400,7.89983740234375,0.1266021728515625,0.96307373046875,0.252593994140625
1780626040925867500,7.909867431640625,0.1306915283203125,0.9456329345703125,0.27587890625
1780626040935896600,7.919896484375,0.138031005859375,0.9263458251953125,0.289398193359375
1780626040945926400,7.929926513671875,0.1460113525390625,0.9234619140625,0.3019866943359375
1780626040955955500,7.93995556640625,0.1697998046875,0.928314208984375,0.30865478515625
1780626040965985500,7.949985595703125,0.187408447265625,0.9402008056640625,0.31121826171875
1780626040976015600,7.960015625,0.168487548828125,0.9662017822265625,0.314056396484375
1780626040986044400,7.97004443359375,0.1747589111328125,0.98016357421875,0.3125457763671875
1780626040996074500,7.980074462890625,0.174285888671875,0.96612548828125,0.3212738037109375
1780626041006103600,7.990103515625,0.1740264892578125,0.949310302734375,0.338531494140625
1780626041016133600,8.000133544921875,0.189453125,0.935150146484375,0.3520355224609375
1780626041026163500,8.01016357421875,0.20367431640625,0.926849365234375,0.351715087890625
1780626041036192500,8.020192626953126,0.2130126953125,0.9132843017578125,0.3379364013671875
1780626041046222300,8.030222412109374,0.238433837890625,0.9036712646484375,0.30426025390625
1780626041056251600,8.040251708984375,0.2774658203125,0.9310455322265625,0.245452880859375
1780626041066281500,8.050281494140625,0.2777099609375,0.970367431640625,0.19073486328125
1780626041076311600,8.0603115234375,0.293243408203125,0.9996337890625,0.1495819091796875
1780626041086340400,8.07034033203125,0.3014984130859375,1.017486572265625,0.12908935546875
1780626041096370400,8.080370361328125,0.3018951416015625,1.0161590576171875,0.140625
1780626041106399500,8.0903994140625,0.290313720703125,1.003631591796875,0.16424560546875
1780626041116429600,8.1004296875,0.2904510498046875,0.985198974609375,0.1858673095703125
1780626041126458400,8.110458251953125,0.286651611328125,0.960205078125,0.202423095703125
1780626041136488400,8.120488525390625,0.2632293701171875,0.93292236328125,0.2100067138671875
1780626041146518500,8.1305185546875,0.2254791259765625,0.9186859130859375,0.2098236083984375
1780626041156547600,8.140547607421874,0.2096099853515625,0.927734375,0.2085723876953125
1780626041166577700,8.15057763671875,0.1905059814453125,0.9405670166015625,0.20477294921875
1780626041176606500,8.1606064453125,0.1702117919921875,0.95111083984375,0.2059783935546875
1780626041186636500,8.170636474609376,0.155517578125,0.9619293212890625,0.217254638671875
1780626041196666400,8.180666259765625,0.147186279296875,0.9593505859375,0.236541748046875
1780626041206695700,8.19069580078125,0.1259002685546875,0.948516845703125,0.273681640625
1780626041216725500,8.2007255859375,0.12396240234375,0.91571044921875,0.31646728515625
1780626041226754300,8.21075439453125,0.1255035400390625,0.876922607421875,0.3509521484375
1780626041236784400,8.220784423828125,0.115631103515625,0.8553924560546875,0.3700408935546875
1780626041246814500,8.230814453125,0.128692626953125,0.85382080078125,0.372283935546875
1780626041256843500,8.240843505859376,0.1537628173828125,0.86309814453125,0.3307647705078125
1780626041266873600,8.25087353515625,0.171600341796875,0.8666839599609375,0.279693603515625
1780626041276902400,8.26090234375,0.1588592529296875,0.8595123291015625,0.2650604248046875
1780626041286932500,8.270932373046875,0.135528564453125,0.8794403076171875,0.2536163330078125
1780626041296962600,8.280962646484374,0.133697509765625,0.9119415283203125,0.2420806884765625
1780626041306991600,8.29099169921875,0.153961181640625,0.93804931640625,0.230987548828125
1780626041317021700,8.301021728515625,0.1628875732421875,0.9542236328125,0.2243804931640625
1780626041327050500,8.311050537109375,0.17156982421875,0.95452880859375,0.22259521484375
1780626041337080600,8.32108056640625,0.1780853271484375,0.954986572265625,0.223602294921875
1780626041347110400,8.3311103515625,0.1908721923828125,0.9474639892578125,0.2347259521484375
1780626041357139700,8.3411396484375,0.205291748046875,0.9373626708984375,0.2527008056640625
1780626041367169500,8.35116943359375,0.2213592529296875,0.925567626953125,0.2721099853515625
1780626041377197600,8.361197509765624,0.2383575439453125,0.9361572265625,0.2796478271484375
1780626041387227400,8.371227294921875,0.237884521484375,0.9561309814453125,0.2745361328125
1780626041397257200,8.38125732421875,0.2556915283203125,0.967987060546875,0.2469482421875
1780626041407286500,8.39128662109375,0.236175537109375,0.9696502685546875,0.2044525146484375
1780626041417316400,8.40131640625,0.2366790771484375,1.0031890869140625,0.19720458984375
1780626041427345400,8.411345458984375,0.2404022216796875,0.996551513671875,0.212066650390625
1780626041437375200,8.421375244140625,0.2120819091796875,0.9752044677734375,0.244232177734375
1780626041447405300,8.4314052734375,0.18634033203125,0.95599365234375,0.2690887451171875
1780626041457434400,8.441434326171875,0.175567626953125,0.9245147705078125,0.2810211181640625
1780626041467464400,8.45146435546875,0.1689300537109375,0.8839263916015625,0.28173828125
1780626041477493200,8.4614931640625,0.18157958984375,0.8515472412109375,0.2697296142578125
1780626041487523300,8.4715234375,0.162933349609375,0.85333251953125,0.2389373779296875
1780626041497553400,8.481553466796875,0.167510986328125,0.87237548828125,0.213409423828125
1780626041507582500,8.49158251953125,0.2015533447265625,0.8826751708984375,0.181488037109375
1780626041517612500,8.501612548828126,0.20770263671875,0.89129638671875,0.15374755859375
1780626041527641300,8.511641357421874,0.2032012939453125,0.9091644287109375,0.1302490234375
1780626041537671400,8.52167138671875,0.213165283203125,0.93731689453125,0.117950439453125
1780626041547701200,8.531701171875,0.2161712646484375,0.962432861328125,0.12841796875
1780626041557730600,8.54173046875,0.2045440673828125,0.952117919921875,0.1645965576171875
1780626041567760400,8.551760498046875,0.2057647705078125,0.916168212890625,0.213470458984375
1780626041577789200,8.5617890625,0.21136474609375,0.8846893310546875,0.2545623779296875
1780626041587819300,8.5718193359375,0.2196044921875,0.8826141357421875,0.2767486572265625
1780626041597848300,8.581848388671874,0.2042694091796875,0.882781982421875,0.285736083984375
1780626041607878400,8.59187841796875,0.170989990234375,0.861175537109375,0.2801971435546875
1780626041617908500,8.601908447265625,0.1753387451171875,0.8404083251953125,0.264373779296875
1780626041627937300,8.611937255859376,0.1944580078125,0.840087890625,0.2442474365234375
1780626041637967400,8.62196728515625,0.20947265625,0.8858184814453125,0.2228546142578125
1780626041647996400,8.631996337890625,0.2195892333984375,0.957305908203125,0.20123291015625
1780626041658026500,8.642026611328125,0.2256317138671875,1.005096435546875,0.19000244140625
1780626041668056600,8.652056640625,0.2425079345703125,1.01385498046875,0.2244415283203125
1780626041678085400,8.66208544921875,0.24871826171875,0.9681549072265625,0.2733154296875
1780626041688115500,8.672115478515625,0.274810791015625,0.89935302734375,0.2997283935546875
1780626041698144500,8.68214453125,0.3008270263671875,0.87152099609375,0.2871551513671875
1780626041708174600,8.692174560546874,0.2896575927734375,0.863800048828125,0.240478515625
1780626041718204400,8.702204345703125,0.277069091796875,0.8787078857421875,0.169464111328125
1780626041728233200,8.712233154296875,0.2686767578125,0.9145660400390625,0.1089019775390625
1780626041738263300,8.72226318359375,0.25994873046875,0.956878662109375,0.0871429443359375
1780626041748292400,8.732292236328124,0.221343994140625,0.99920654296875,0.118682861328125
1780626041758322400,8.742322509765625,0.2053680419921875,1.027862548828125,0.199981689453125
1780626041768352500,8.7523525390625,0.205413818359375,1.031097412109375,0.291259765625
1780626041778381300,8.76238134765625,0.2333831787109375,1.0323944091796875,0.3645172119140625
1780626041788411400,8.772411376953125,0.2426910400390625,1.0232391357421875,0.384185791015625
1780626041798440400,8.7824404296875,0.26055908203125,0.9903564453125,0.347198486328125
1780626041808470500,8.792470458984376,0.2945098876953125,0.9537506103515625,0.25933837890625
1780626041818500400,8.802500244140624,0.2977447509765625,0.92047119140625,0.156951904296875
1780626041828529400,8.812529296875,0.294403076171875,0.9117584228515625,0.0660858154296875
1780626041838559500,8.8225595703125,0.2864990234375,0.9434967041015625,0.0192413330078125
1780626041848588500,8.832588623046876,0.26605224609375,1.0151519775390625,0.026458740234375
1780626041858618600,8.84261865234375,0.261322021484375,1.0860595703125,0.0791473388671875
1780626041868648200,8.852648193359375,0.277587890625,1.122772216796875,0.13726806640625
1780626041878677200,8.86267724609375,0.2949676513671875,1.1280364990234375,0.183837890625
1780626041888707300,8.872707275390624,0.2858123779296875,1.1165008544921875,0.18890380859375
1780626041898736400,8.882736328125,0.2895965576171875,1.0902557373046875,0.165435791015625
1780626041908766500,8.892766357421875,0.284210205078125,1.0569305419921875,0.136322021484375
1780626041918796300,8.90279638671875,0.2562713623046875,1.029449462890625,0.111328125
1780626041928825300,8.912825439453124,0.235443115234375,1.011138916015625,0.103424072265625
1780626041938855400,8.92285546875,0.2325592041015625,1.0259246826171875,0.1219635009765625
1780626041948884500,8.932884521484375,0.2320556640625,1.06671142578125,0.1644134521484375
1780626041958914300,8.942914306640626,0.2393798828125,1.1066436767578125,0.2137908935546875
1780626041968943400,8.952943359375,0.247283935546875,1.1081390380859375,0.240966796875
1780626041978973400,8.962973388671875,0.245391845703125,1.0606536865234375,0.2248992919921875
1780626041989003500,8.97300341796875,0.2185821533203125,0.9943084716796875,0.158905029296875
1780626041999032600,8.983032470703124,0.1953887939453125,0.9351654052734375,0.1006927490234375
1780626042009062400,8.9930625,0.17138671875,0.894989013671875,0.0829620361328125
1780626042019091500,9.003091552734375,0.13031005859375,0.871917724609375,0.08001708984375
1780626042029121300,9.013121337890626,0.122772216796875,0.8707122802734375,0.083099365234375
1780626042039151400,9.0231513671875,0.14837646484375,0.9151763916015625,0.108795166015625
1780626042049180400,9.033180419921875,0.1662139892578125,0.9788360595703125,0.12982177734375
1780626042059210200,9.043210205078125,0.1702423095703125,1.0404052734375,0.1480255126953125
1780626042069239300,9.0532392578125,0.2052001953125,1.0938262939453125,0.171600341796875
1780626042079269400,9.063269287109375,0.2152862548828125,1.1195068359375,0.1760101318359375
1780626042089299500,9.073299560546875,0.1930389404296875,1.11822509765625,0.1670989990234375
1780626042099328500,9.08332861328125,0.1808624267578125,1.0906982421875,0.15447998046875
1780626042109358300,9.0933583984375,0.173675537109375,1.0384521484375,0.1369171142578125
1780626042119387400,9.103387451171875,0.15814208984375,0.993896484375,0.1203765869140625
1780626042129417500,9.11341748046875,0.14971923828125,0.977386474609375,0.110260009765625
1780626042139447600,9.123447509765626,0.151275634765625,0.976470947265625,0.110107421875
1780626042149476400,9.133476318359374,0.1457366943359375,0.9837188720703125,0.115325927734375
1780626042159506400,9.14350634765625,0.1266326904296875,1.0001373291015625,0.1203155517578125
1780626042169535500,9.153535400390625,0.1132659912109375,1.003387451171875,0.1200408935546875
1780626042179565300,9.1635654296875,0.10174560546875,0.9894256591796875,0.1181488037109375
1780626042189595400,9.173595458984375,0.10284423828125,0.961761474609375,0.11724853515625
1780626042199624200,9.183624267578125,0.1123809814453125,0.922607421875,0.114959716796875
1780626042209654300,9.193654296875,0.1040496826171875,0.90008544921875,0.1240234375
1780626042219683300,9.203683349609374,0.0924530029296875,0.8953094482421875,0.1469879150390625
1780626042229713400,9.21371337890625,0.0591278076171875,0.8989105224609375,0.1746826171875
1780626042239742500,9.223742431640625,0.00738525390625,0.90582275390625,0.203765869140625
1780626042249772300,9.233772216796876,-0.020111083984375,0.92047119140625,0.2198333740234375
1780626042259802400,9.24380224609375,-0.002655029296875,0.935272216796875,0.21942138671875
1780626042269831400,9.25383154296875,0.0257720947265625,0.947418212890625,0.247039794921875
1780626042279861500,9.263861572265625,0.06378173828125,0.9364471435546875,0.317840576171875
1780626042289890300,9.273890380859376,0.1243896484375,0.9340667724609375,0.3914642333984375
1780626042299920400,9.28392041015625,0.2287750244140625,0.9515838623046875,0.451629638671875
1780626042309950500,9.293950439453125,0.3276824951171875,0.992095947265625,0.51214599609375
1780626042319979500,9.3039794921875,0.376922607421875,1.06109619140625,0.5456085205078125
1780626042330009300,9.31400927734375,0.35601806640625,1.1280517578125,0.550811767578125
1780626042340038400,9.324038330078125,0.2962799072265625,1.1246795654296875,0.5177459716796875
1780626042350068200,9.334068115234375,0.3313751220703125,1.0743865966796875,0.442047119140625
1780626042360098300,9.344098388671876,0.4072265625,0.9738006591796875,0.3483123779296875
1780626042370127400,9.35412744140625,0.4237518310546875,0.8566131591796875,0.2579345703125
1780626042380157400,9.364157470703125,0.4161529541015625,0.7507781982421875,0.178253173828125
1780626042390186500,9.3741865234375,0.4202117919921875,0.6649169921875,0.1203460693359375
1780626042400216600,9.384216552734374,0.435882568359375,0.604827880859375,0.0693817138671875
1780626042410246700,9.39424658203125,0.44696044921875,0.5735015869140625,0.0229644775390625
1780626042420275500,9.404275390625,0.463958740234375,0.5707550048828125,-0.0112457275390625
1780626042430305500,9.414305419921876,0.484100341796875,0.5970916748046875,-0.0284881591796875
1780626042440334600,9.42433447265625,0.502227783203125,0.65704345703125,-0.0313720703125
1780626042450364700,9.43436474609375,0.501678466796875,0.7282562255859375,-0.0103759765625
1780626042460394500,9.44439453125,0.47491455078125,0.7838134765625,0.0240020751953125
1780626042470423600,9.454423583984376,0.4445953369140625,0.8329315185546875,0.0448760986328125
1780626042480453400,9.464453369140625,0.4100494384765625,0.87994384765625,0.049163818359375
1780626042490482700,9.474482666015625,0.383270263671875,0.928314208984375,0.053863525390625
1780626042500512500,9.484512451171875,0.3603973388671875,0.972900390625,0.06182861328125
1780626042510542600,9.49454248046875,0.3543701171875,0.975982666015625,0.0862579345703125
1780626042520571400,9.5045712890625,0.361175537109375,0.9319000244140625,0.1157684326171875
1780626042530601500,9.5146015625,0.3538818359375,0.885467529296875,0.14288330078125
1780626042540630500,9.524630615234376,0.35382080078125,0.86944580078125,0.1735992431640625
1780626042550660600,9.53466064453125,0.38616943359375,0.8726806640625,0.208160400390625
1780626042560689400,9.544689453125,0.4322509765625,0.882171630859375,0.23736572265625
1780626042570719500,9.554719482421875,0.481292724609375,0.8878631591796875,0.25897216796875
1780626042580749600,9.56474951171875,0.50152587890625,0.9075775146484375,0.2789306640625
1780626042590778600,9.574778564453124,0.4676513671875,0.9153594970703125,0.2699127197265625
1780626042600808700,9.58480859375,0.4099578857421875,0.8935394287109375,0.2581787109375
1780626042610837500,9.59483740234375,0.3287811279296875,0.8762054443359375,0.24285888671875
1780626042620867600,9.60486767578125,0.2397003173828125,0.8647003173828125,0.22467041015625
1780626042630897400,9.6148974609375,0.1828155517578125,0.8578948974609375,0.2100982666015625
1780626042640926700,9.6249267578125,0.140869140625,0.85888671875,0.1960906982421875
1780626042650956500,9.63495654296875,0.096343994140625,0.8433380126953125,0.182159423828125
1780626042660985300,9.6449853515625,0.0556793212890625,0.8188323974609375,0.1878509521484375
1780626042671015400,9.655015380859375,-0.017333984375,0.831878662109375,0.2000732421875
1780626042681045500,9.66504541015625,-0.0388031005859375,0.91705322265625,0.236114501953125
1780626042691074600,9.675074462890626,-0.0877227783203125,1.1050567626953125,0.28857421875
1780626042701104600,9.685104736328125,-0.1352691650390625,1.2966766357421875,0.3157196044921875
1780626042711133400,9.695133544921875,-0.1564178466796875,1.4987335205078125,0.3930511474609375
1780626042721163500,9.70516357421875,-0.09906005859375,1.5681304931640625,0.4627685546875
1780626042731193600,9.715193603515624,0.0099639892578125,1.5032958984375,0.5035247802734375
1780626042741222700,9.72522265625,0.086639404296875,1.369415283203125,0.497314453125
1780626042751252500,9.73525244140625,0.181396484375,1.2094879150390625,0.4353790283203125
1780626042761281500,9.745281494140626,0.2706298828125,1.1256866455078125,0.343719482421875
1780626042771311600,9.7553115234375,0.2689971923828125,1.0549163818359375,0.2307586669921875
1780626042781340700,9.765340576171875,0.185546875,1.0065460205078125,0.1480865478515625
1780626042791370800,9.775370849609375,0.0866546630859375,0.9505615234375,0.11468505859375
1780626042801400300,9.785400390625,-0.02886962890625,0.870941162109375,0.116485595703125
1780626042811429400,9.795429443359374,-0.139801025390625,0.7908477783203125,0.126251220703125
1780626042821459500,9.80545947265625,-0.2365875244140625,0.739959716796875,0.13525390625
1780626042831488500,9.815488525390625,-0.3234100341796875,0.7153167724609375,0.1263427734375
1780626042841518600,9.8255185546875,-0.4166107177734375,0.7458648681640625,0.114410400390625
1780626042851548400,9.83554833984375,-0.5138397216796875,0.783477783203125,0.0983123779296875
1780626042861577500,9.845577392578125,-0.5240936279296875,0.8093109130859375,0.0896453857421875
1780626042871607600,9.855607666015626,-0.370452880859375,0.86614990234375,0.0897674560546875
1780626042881636600,9.86563671875,-0.1145782470703125,0.9643707275390625,0.1264190673828125
1780626042891666400,9.87566650390625,-0.0099945068359375,1.0203399658203125,0.161773681640625
1780626042901696500,9.885696533203125,-0.160400390625,0.988616943359375,0.162872314453125
1780626042911725600,9.8957255859375,-0.3595733642578125,0.932159423828125,0.127227783203125
1780626042921755600,9.905755615234375,-0.3558197021484375,0.8866729736328125,0.078460693359375
1780626042931784700,9.91578466796875,-0.2178192138671875,0.88714599609375,0.0225372314453125
1780626042941814500,9.925814453125,-0.1480712890625,0.9323577880859375,-0.0284271240234375
1780626042951844400,9.93584423828125,-0.1942138671875,1.01861572265625,-0.0690155029296875
1780626042961873400,9.945873291015625,-0.291534423828125,1.086029052734375,-0.103118896484375
1780626042971903500,9.955903564453125,-0.2789459228515625,1.1151580810546875,-0.111846923828125
1780626042981932500,9.9659326171875,-0.18023681640625,1.1280059814453125,-0.08380126953125
1780626042991962400,9.97596240234375,-0.11041259765625,1.1250457763671875,-0.0316162109375
1780626043001992400,9.985992431640625,-0.1347503662109375,1.0757293701171875,0.0451202392578125
1780626043012021500,9.996021484375,-0.1435546875,1.0382537841796875,0.115386962890625
1780626043022051600,10.006051513671874,-0.10247802734375,1.0096893310546875,0.1515655517578125
1780626043032080400,10.016080322265625,-0.0275115966796875,0.962127685546875,0.1769866943359375
1780626043042110500,10.0261103515625,-0.015869140625,0.9047698974609375,0.184234619140625
1780626043052140500,10.036140625,-0.0519561767578125,0.8379974365234375,0.1566162109375
1780626043062169600,10.046169677734374,-0.0513763427734375,0.8140869140625,0.12158203125
1780626043072199700,10.05619970703125,-0.04534912109375,0.8148040771484375,0.0992889404296875
1780626043082228500,10.066228515625,-0.0829010009765625,0.7775115966796875,0.0782928466796875
1780626043092258600,10.076258544921876,-0.144866943359375,0.71868896484375,0.048065185546875
1780626043102287600,10.08628759765625,-0.2170867919921875,0.6891632080078125,-0.00396728515625
1780626043112317400,10.0963173828125,-0.2259368896484375,0.69927978515625,-0.091217041015625
1780626043122347500,10.106347412109375,-0.188446044921875,0.773040771484375,-0.1808319091796875
1780626043132376300,10.116376220703126,-0.2047882080078125,0.824737548828125,-0.251617431640625
1780626043142406400,10.126406494140625,-0.275970458984375,0.8302459716796875,-0.3208770751953125
1780626043152435500,10.136435546875,-0.313323974609375,0.8421478271484375,-0.349822998046875
1780626043162465500,10.146465576171876,-0.27130126953125,0.875335693359375,-0.3573455810546875
1780626043172495600,10.15649560546875,-0.2151336669921875,0.91729736328125,-0.33612060546875
1780626043182524400,10.1665244140625,-0.1878509521484375,0.9236602783203125,-0.3259429931640625
1780626043192554500,10.176554443359375,-0.2114410400390625,0.89947509765625,-0.325927734375
1780626043202583600,10.18658349609375,-0.21331787109375,0.850433349609375,-0.3111114501953125
1780626043212613600,10.196613525390624,-0.166900634765625,0.771575927734375,-0.2952728271484375
1780626043222643700,10.206643798828125,-0.1195526123046875,0.6903076171875,-0.276275634765625
1780626043232672500,10.216672607421875,-0.1039886474609375,0.6474151611328125,-0.247314453125
1780626043242702600,10.22670263671875,-0.1459197998046875,0.6476287841796875,-0.2281341552734375
1780626043252731600,10.236731689453125,-0.23565673828125,0.7062835693359375,-0.2037200927734375
1780626043262761500,10.246761474609375,-0.276519775390625,0.7814483642578125,-0.186981201171875
1780626043272791600,10.25679150390625,-0.252532958984375,0.877197265625,-0.176910400390625
1780626043282820400,10.2668203125,-0.1688232421875,0.926422119140625,-0.1554107666015625
1780626043292850400,10.276850341796875,-0.06695556640625,0.8450927734375,-0.10992431640625
1780626043302879500,10.28687939453125,-0.0860595703125,0.811004638671875,-0.0425262451171875
1780626043312909600,10.29690966796875,-0.12322998046875,0.93499755859375,0.0233306884765625
1780626043322939600,10.306939697265625,-0.0644378662109375,1.1028900146484375,0.0597381591796875
1780626043332968400,10.316968505859375,-0.0067596435546875,1.26263427734375,0.085479736328125
1780626043342998500,10.32699853515625,-0.049774169921875,1.38226318359375,0.123443603515625
1780626043353027600,10.337027587890624,-0.1779022216796875,1.4639739990234375,0.1713409423828125
1780626043363057700,10.3470576171875,-0.3163604736328125,1.453155517578125,0.2406768798828125
1780626043373087500,10.35708740234375,-0.368865966796875,1.316436767578125,0.3094635009765625
1780626043383117300,10.367117431640626,-0.273101806640625,1.1117095947265625,0.3358306884765625
1780626043393147100,10.377147216796875,-0.2200469970703125,0.91497802734375,0.3031158447265625
1780626043403176200,10.38717626953125,-0.2143402099609375,0.7493896484375,0.2112579345703125
1780626043413206300,10.397206298828126,-0.082916259765625,0.683929443359375,0.1085205078125
1780626043423236400,10.407236328125,0.018280029296875,0.7396240234375,0.013458251953125
1780626043433265200,10.41726513671875,-0.00244140625,0.854888916015625,-0.087982177734375
1780626043443295200,10.427295166015625,-0.0837554931640625,1.016815185546875,-0.18548583984375
1780626043453324300,10.43732421875,-0.2087249755859375,1.141510009765625,-0.2576141357421875
1780626043463354400,10.447354248046874,-0.312225341796875,1.2064971923828125,-0.3151702880859375
1780626043473383200,10.457383056640625,-0.302459716796875,1.2508392333984375,-0.3367767333984375
1780626043483413200,10.467413330078125,-0.23419189453125,1.249359130859375,-0.3127288818359375
1780626043493443300,10.477443359375,-0.2554473876953125,1.167327880859375,-0.244171142578125
1780626043503472400,10.487472412109375,-0.2526397705078125,1.0511932373046875,-0.16290283203125
1780626043513502500,10.49750244140625,-0.1881866455078125,0.9763946533203125,-0.0977630615234375
1780626043523531300,10.50753125,-0.17242431640625,0.9795989990234375,-0.029022216796875
1780626043533561300,10.517561279296874,-0.15185546875,0.9904632568359375,0.0537261962890625
1780626043543591200,10.527591064453125,-0.126495361328125,0.991607666015625,0.1126708984375
1780626043553620200,10.5376201171875,-0.1461029052734375,0.9976806640625,0.1436920166015625
1780626043563650300,10.547650390625,-0.171844482421875,1.0013275146484375,0.153472900390625
1780626043573679000,10.55767919921875,-0.1135406494140625,1.0011444091796875,0.1218719482421875
1780626043583709200,10.567709228515625,-0.029571533203125,1.0287933349609375,0.029388427734375
1780626043593739300,10.5777392578125,-0.0613555908203125,1.0474395751953125,-0.072296142578125
1780626043603768300,10.587768310546876,-0.1163482666015625,1.0423431396484375,-0.13519287109375
1780626043613798400,10.59779833984375,-0.0544281005859375,1.0091400146484375,-0.1455230712890625
1780626043623827200,10.6078271484375,-0.0333404541015625,0.9329071044921875,-0.1261138916015625
1780626043633857300,10.617857177734376,-0.1136016845703125,0.8846893310546875,-0.0849761962890625
1780626043643887400,10.627887451171874,-0.2044525146484375,0.9064178466796875,-0.0234222412109375
1780626043653916400,10.63791650390625,-0.2329864501953125,0.990753173828125,0.022918701171875
1780626043663946500,10.647946533203125,-0.2077484130859375,1.09600830078125,0.021453857421875
1780626043673975300,10.657975341796876,-0.196197509765625,1.22369384765625,-0.0498809814453125
1780626043684005400,10.66800537109375,-0.2435455322265625,1.3267822265625,-0.1502685546875
1780626043694035200,10.67803515625,-0.228240966796875,1.351318359375,-0.196075439453125
1780626043704064300,10.688064208984375,-0.171112060546875,1.352264404296875,-0.1438140869140625
1780626043714094000,10.698093994140624,-0.167938232421875,1.3180084228515625,-0.0210723876953125
1780626043724123100,10.708123046875,-0.244781494140625,1.309814453125,0.082733154296875
1780626043734153200,10.7181533203125,-0.2769622802734375,1.3821868896484375,0.14752197265625
1780626043744183300,10.728183349609376,-0.277618408203125,1.4705810546875,0.21990966796875
1780626043754212400,10.73821240234375,-0.281524658203125,1.479339599609375,0.292999267578125
1780626043764242200,10.7482421875,-0.23931884765625,1.4492645263671875,0.3227691650390625
1780626043774271200,10.758271240234375,-0.18060302734375,1.472747802734375,0.2856903076171875
1780626043784301300,10.76830126953125,-0.1648406982421875,1.4870147705078125,0.2032318115234375
1780626043794331400,10.778331298828125,-0.2270660400390625,1.413055419921875,0.15435791015625
1780626043804360400,10.7883603515625,-0.222808837890625,1.270904541015625,0.1531524658203125
1780626043814390300,10.798390380859376,-0.1899566650390625,1.1192626953125,0.160614013671875
1780626043824419300,10.80841943359375,-0.153717041015625,0.9943084716796875,0.1622467041015625
1780626043834449400,10.818449462890625,-0.1258392333984375,0.9133148193359375,0.1533203125
1780626043844479200,10.828479248046875,-0.1569976806640625,0.8534393310546875,0.1390533447265625
1780626043854508300,10.83850830078125,-0.175537109375,0.755584716796875,0.1094970703125
1780626043864538000,10.8485380859375,-0.1602020263671875,0.638824462890625,0.074066162109375
1780626043874567200,10.858567138671875,-0.11761474609375,0.530120849609375,0.04046630859375
1780626043884597200,10.86859716796875,-0.0412445068359375,0.51275634765625,0.0154571533203125
1780626043894627300,10.87862744140625,0.0341339111328125,0.56781005859375,0.0068359375
1780626043904656100,10.88865625,0.0946502685546875,0.616302490234375,0.016754150390625
1780626043914686200,10.898686279296875,0.0924530029296875,0.656341552734375,0.01226806640625
1780626043924715300,10.90871533203125,0.037506103515625,0.7671051025390625,0.028228759765625
1780626043934745300,10.918745361328124,-0.0138397216796875,0.84991455078125,0.0583648681640625
1780626043944775400,10.928775390625,-0.0426788330078125,0.9124908447265625,0.10205078125
1780626043954804200,10.93880419921875,-0.048858642578125,0.938568115234375,0.1662139892578125
1780626043964834300,10.948834228515626,-0.05523681640625,0.907623291015625,0.2449798583984375
1780626043974863400,10.95886328125,-0.139739990234375,0.8251953125,0.2714996337890625
1780626043984893400,10.9688935546875,-0.2479248046875,0.833953857421875,0.296539306640625
1780626043994923300,10.97892333984375,-0.214324951171875,0.8944549560546875,0.3462066650390625
1780626044004952300,10.988952392578126,-0.0286102294921875,0.939483642578125,0.3969573974609375
1780626044014982100,10.998982177734375,0.221221923828125,0.9517059326171875,0.4115142822265625
1780626044025011200,11.00901123046875,0.4049224853515625,0.987640380859375,0.3406829833984375
1780626044035041300,11.019041259765626,0.47705078125,1.010498046875,0.235015869140625
1780626044045071400,11.0290712890625,0.4653167724609375,1.0283966064453125,0.07171630859375
1780626044055100200,11.03910009765625,0.5213165283203125,0.9434051513671875,-0.14599609375
1780626044065130200,11.049130126953125,0.6319122314453125,0.750640869140625,-0.314605712890625
1780626044075159300,11.0591591796875,0.8637542724609375,0.4228668212890625,-0.28070068359375
1780626044085189400,11.069189453125,1.2023468017578125,0.0298919677734375,0.0164337158203125
1780626044095219500,11.079219482421875,1.366943359375,-0.0396575927734375,0.375762939453125
1780626044105248300,11.089248291015625,1.0962677001953125,0.338775634765625,0.4154815673828125
1780626044115278300,11.0992783203125,0.722320556640625,0.6734466552734375,0.3093109130859375
1780626044125307400,11.109307373046875,0.38037109375,0.6360931396484375,0.163848876953125
1780626044135337500,11.11933740234375,0.089569091796875,0.3056488037109375,-0.0178375244140625
1780626044145367300,11.1293671875,-0.0067901611328125,-0.0965576171875,-0.1780242919921875
1780626044155396000,11.13939599609375,-0.0223388671875,-0.3062591552734375,-0.3050689697265625
1780626044165426200,11.14942626953125,0.1064300537109375,-0.2167510986328125,-0.3474884033203125
1780626044175455200,11.159455322265625,0.3630523681640625,-0.01202392578125,-0.2863006591796875
1780626044185485300,11.1694853515625,0.5830230712890625,0.168243408203125,-0.13323974609375
1780626044195515100,11.17951513671875,0.7071685791015625,0.4471893310546875,0.0340576171875
1780626044205544200,11.189544189453125,0.6285858154296875,0.6323089599609375,0.1316680908203125
1780626044215574300,11.19957421875,0.4708404541015625,0.5207672119140625,0.07415771484375
1780626044225603300,11.209603271484376,0.3984375,0.260528564453125,-0.08795166015625
1780626044235633400,11.21963330078125,0.439361572265625,0.0529327392578125,-0.24078369140625
1780626044245663200,11.229663330078125,0.4984588623046875,0.0024261474609375,-0.3421783447265625
1780626044255692300,11.2396923828125,0.5736236572265625,0.1319580078125,-0.3289031982421875
1780626044265722400,11.249722412109374,0.669647216796875,0.3568878173828125,-0.2508087158203125
1780626044275751400,11.25975146484375,0.67218017578125,0.532867431640625,-0.1586761474609375
1780626044285781500,11.269781494140625,0.6144866943359375,0.6120147705078125,-0.1006317138671875
1780626044295810300,11.279810302734376,0.545318603515625,0.618438720703125,-0.1030120849609375
1780626044305840000,11.289840087890624,0.514892578125,0.53802490234375,-0.116607666015625
1780626044315870200,11.2998701171875,0.5174407958984375,0.3854217529296875,-0.1833343505859375
1780626044325899300,11.309899169921875,0.5791473388671875,0.33056640625,-0.31829833984375
1780626044335929000,11.31992919921875,0.677276611328125,0.3987884521484375,-0.4709320068359375
1780626044345958100,11.329958251953125,0.748321533203125,0.5677947998046875,-0.5967559814453125
1780626044355988200,11.33998828125,0.73944091796875,0.7337188720703125,-0.625091552734375
1780626044366018300,11.350018310546876,0.692230224609375,0.7276611328125,-0.5512542724609375
1780626044376046800,11.360046875,0.647308349609375,0.619171142578125,-0.4521026611328125
1780626044386077000,11.370076904296875,0.61004638671875,0.6657562255859375,-0.358367919921875
1780626044396106800,11.380106689453125,0.619781494140625,0.93017578125,-0.2831573486328125
1780626044406135800,11.3901357421875,0.7044677734375,1.4210968017578125,-0.39959716796875
1780626044416166000,11.400165771484374,0.8073577880859375,2.029388427734375,-0.6101226806640625
1780626044426195000,11.41019482421875,0.6944732666015625,1.890289306640625,-0.7367401123046875
1780626044436224800,11.420224853515625,0.432403564453125,0.702606201171875,-0.6546783447265625
1780626044446253800,11.43025390625,0.3517913818359375,0.1167755126953125,-0.4669189453125
1780626044456284000,11.440283935546875,0.5382843017578125,0.33251953125,-0.3801116943359375
1780626044466313700,11.450313720703125,0.8097076416015625,0.882415771484375,-0.3466644287109375
1780626044476343000,11.460343017578126,0.743377685546875,1.186676025390625,-0.436065673828125
1780626044486372600,11.47037255859375,0.491668701171875,1.237274169921875,-0.505126953125
1780626044496401700,11.480401611328125,0.4173431396484375,1.2931976318359375,-0.50152587890625
1780626044506431700,11.490431640625,0.35455322265625,1.3629913330078125,-0.4974517822265625
1780626044516461800,11.5004619140625,0.263214111328125,1.2421722412109375,-0.526458740234375
1780626044526491000,11.510490966796874,0.1978912353515625,1.0394287109375,-0.579315185546875
1780626044536520700,11.520520751953125,0.2145538330078125,0.984344482421875,-0.6376190185546875
1780626044546549800,11.5305498046875,0.3105621337890625,0.8877410888671875,-0.63043212890625
1780626044556579800,11.540579833984374,0.4380950927734375,0.8370208740234375,-0.523223876953125
1780626044566610000,11.55060986328125,0.556182861328125,0.71575927734375,-0.494781494140625
1780626044576638700,11.560638671875,0.613128662109375,0.445709228515625,-0.5525054931640625
1780626044586668800,11.570668701171876,0.5338592529296875,0.183746337890625,-0.635772705078125
1780626044596697900,11.58069775390625,0.3907470703125,0.182861328125,-0.649078369140625
1780626044606728000,11.59072802734375,0.37261962890625,0.3887786865234375,-0.5859832763671875
1780626044616757800,11.6007578125,0.499908447265625,0.5570526123046875,-0.5286712646484375
1780626044626786800,11.610786865234376,0.57574462890625,0.644287109375,-0.5157318115234375
1780626044636816600,11.620816650390625,0.6036529541015625,0.5772705078125,-0.5387115478515625
1780626044646845700,11.630845703125,0.6375274658203125,0.5512542724609375,-0.5979156494140625
1780626044656875800,11.640875732421875,0.6124114990234375,0.6484832763671875,-0.745208740234375
1780626044666905900,11.65090576171875,0.5307464599609375,0.529449462890625,-0.8706817626953125
1780626044676934700,11.6609345703125,0.467803955078125,0.3742828369140625,-0.9198150634765625
1780626044686964700,11.67096484375,0.4447174072265625,0.335479736328125,-0.9651336669921875
1780626044696993800,11.680993896484376,0.4257659912109375,0.3960418701171875,-1.04974365234375
1780626044707024000,11.69102392578125,0.4928741455078125,0.6108856201171875,-0.9988250732421875
1780626044717054000,11.701053955078125,0.5216522216796875,0.7494354248046875,-0.8392333984375
1780626044727082800,11.711082763671875,0.490447998046875,0.75933837890625,-0.66839599609375
1780626044737112800,11.72111279296875,0.4362335205078125,0.727935791015625,-0.5757293701171875
1780626044747142000,11.731141845703124,0.3437347412109375,0.648162841796875,-0.6166839599609375
1780626044757172000,11.741171875,0.3136749267578125,0.7190704345703125,-0.684814453125
1780626044767201800,11.751201904296876,0.34686279296875,0.7477264404296875,-0.8671417236328125
1780626044777230800,11.76123095703125,0.334747314453125,0.71380615234375,-0.9700469970703125
1780626044787260700,11.7712607421875,0.321319580078125,0.6434173583984375,-0.9622344970703125
1780626044797289700,11.781289794921875,0.3658599853515625,0.600311279296875,-0.872589111328125
1780626044807319800,11.79131982421875,0.424591064453125,0.6590118408203125,-0.6974945068359375
1780626044817350000,11.801349853515624,0.4638671875,0.6511383056640625,-0.514739990234375
1780626044827378700,11.811378662109375,0.4173126220703125,0.6142425537109375,-0.41729736328125
1780626044837408800,11.82140869140625,0.2922210693359375,0.552764892578125,-0.4334564208984375
1780626044847437800,11.831437744140626,0.16998291015625,0.4583282470703125,-0.5182342529296875
1780626044857468000,11.841468017578125,0.2528533935546875,0.521392822265625,-0.6538543701171875
1780626044867498000,11.851498046875,0.4301910400390625,0.6352996826171875,-0.7347564697265625
1780626044877526800,11.86152685546875,0.526336669921875,0.639251708984375,-0.76348876953125
1780626044887556900,11.871556884765624,0.5341949462890625,0.5601348876953125,-0.758056640625
1780626044897586000,11.8815859375,0.486114501953125,0.46820068359375,-0.7672882080078125
1780626044907616000,11.891615966796875,0.4375457763671875,0.495086669921875,-0.802886962890625
1780626044917645800,11.901645751953126,0.374603271484375,0.5936737060546875,-0.8491058349609375
1780626044927675000,11.9116748046875,0.3393402099609375,0.5865936279296875,-0.81512451171875
1780626044937704700,11.92170458984375,0.3372039794921875,0.4651641845703125,-0.7025604248046875
1780626044947733800,11.931733642578125,0.346893310546875,0.3186492919921875,-0.5739288330078125
1780626044957763800,11.941763916015624,0.339019775390625,0.323394775390625,-0.5031280517578125
1780626044967793700,11.951793701171875,0.3311309814453125,0.476776123046875,-0.59466552734375
1780626044977822700,11.96182275390625,0.3640289306640625,0.540557861328125,-0.600555419921875
1780626044987852800,11.971852783203126,0.389190673828125,0.32598876953125,-0.524261474609375
1780626044997883000,11.9818828125,0.411865234375,0.243743896484375,-0.5001068115234375
1780626045007912000,11.991911865234375,0.4957275390625,0.4183807373046875,-0.542449951171875
1780626045017941800,12.001941650390625,0.6019439697265625,0.6543121337890625,-0.6839752197265625
1780626045027970800,12.011970703125,0.73712158203125,0.9461517333984375,-0.912384033203125
1780626045038001000,12.0220009765625,0.8758697509765625,1.152618408203125,-1.2263031005859375
1780626045048030000,12.032030029296875,1.001312255859375,0.9292144775390625,-1.4860076904296875
1780626045058060000,12.04206005859375,1.0334930419921875,0.583526611328125,-1.527435302734375
1780626045068089600,12.052089599609374,0.913818359375,0.3728790283203125,-1.3624420166015625
1780626045078119000,12.062118896484375,0.772796630859375,0.3225555419921875,-1.1295013427734375
1780626045088148700,12.072148681640625,0.65765380859375,0.387542724609375,-0.85247802734375
1780626045098177800,12.082177734375,0.5090179443359375,0.5407867431640625,-0.585296630859375
1780626045108207600,12.09220751953125,0.2943115234375,0.693389892578125,-0.46661376953125
1780626045118237700,12.10223779296875,0.1236724853515625,0.8010711669921875,-0.473236083984375
1780626045128266800,12.112266845703125,0.009979248046875,0.84515380859375,-0.5167388916015625
1780626045138296800,12.122296875,-0.01800537109375,0.805450439453125,-0.5810546875
1780626045148326000,12.132325927734374,0.0028076171875,0.7558135986328125,-0.6459503173828125
1780626045158355700,12.142355712890625,0.0355072021484375,0.7213287353515625,-0.705322265625
1780626045168385800,12.1523857421875,0.0939483642578125,0.693267822265625,-0.758819580078125
1780626045178414800,12.162414794921874,0.13433837890625,0.67938232421875,-0.7888641357421875
1780626045188445000,12.17244482421875,0.1657562255859375,0.6683197021484375,-0.7851409912109375
1780626045198475000,12.18247509765625,0.1848602294921875,0.6545257568359375,-0.7642059326171875
1780626045208503800,12.19250390625,0.186187744140625,0.635986328125,-0.7246246337890625
1780626045218533600,12.20253369140625,0.1791839599609375,0.6143646240234375,-0.6757354736328125
1780626045228563000,12.21256298828125,0.18646240234375,0.5529937744140625,-0.63739013671875
1780626045238592800,12.2225927734375,0.227386474609375,0.482666015625,-0.6279296875
1780626045248622800,12.232622802734374,0.25433349609375,0.4452056884765625,-0.6303558349609375
1780626045258651600,12.242651611328125,0.2756805419921875,0.42431640625,-0.6508331298828125
1780626045268681700,12.252681640625,0.308868408203125,0.416229248046875,-0.6801605224609375
1780626045278710800,12.262710693359375,0.3255767822265625,0.404632568359375,-0.7138671875
1780626045288740900,12.272740966796874,0.3521881103515625,0.40985107421875,-0.7635955810546875
1780626045298771000,12.28277099609375,0.387603759765625,0.4592742919921875,-0.80108642578125
1780626045308799700,12.2927998046875,0.406402587890625,0.5176544189453125,-0.815673828125
1780626045318829800,12.302829833984376,0.41815185546875,0.561859130859375,-0.822967529296875
1780626045328859000,12.31285888671875,0.4342498779296875,0.61480712890625,-0.809356689453125
1780626045338889000,12.322888916015625,0.46978759765625,0.656280517578125,-0.78607177734375
1780626045348919000,12.3329189453125,0.4774169921875,0.6637115478515625,-0.7691802978515625
1780626045358947800,12.34294775390625,0.4512176513671875,0.661224365234375,-0.76556396484375
1780626045368977700,12.352977783203125,0.442291259765625,0.651275634765625,-0.7490081787109375
1780626045379007000,12.363007080078125,0.42864990234375,0.6387176513671875,-0.71826171875
1780626045389036800,12.373036865234376,0.428497314453125,0.634552001953125,-0.6931304931640625
1780626045399067000,12.38306689453125,0.4388275146484375,0.6551055908203125,-0.6752777099609375
1780626045409096000,12.393095947265625,0.4510650634765625,0.6899566650390625,-0.6632232666015625
1780626045419126000,12.4031259765625,0.4558258056640625,0.7131805419921875,-0.664581298828125
1780626045429154800,12.41315478515625,0.4334564208984375,0.6948699951171875,-0.688873291015625
1780626045439185000,12.423184814453125,0.38616943359375,0.653076171875,-0.7178955078125
1780626045449215000,12.433215087890625,0.3597869873046875,0.608734130859375,-0.7534027099609375
1780626045459244000,12.443244140625,0.351409912109375,0.5793304443359375,-0.7833251953125
1780626045469274000,12.453274169921874,0.3611907958984375,0.576751708984375,-0.80859375
1780626045479303000,12.463302978515625,0.393524169921875,0.5725555419921875,-0.837310791015625
1780626045489333000,12.4733330078125,0.42626953125,0.59234619140625,-0.8544769287109375
1780626045499363000,12.483363037109376,0.4163055419921875,0.6201019287109375,-0.86566162109375
1780626045509392100,12.49339208984375,0.34869384765625,0.6533203125,-0.8834075927734375
1780626045519422000,12.503421875,0.286468505859375,0.6799774169921875,-0.88385009765625
1780626045529451000,12.513450927734375,0.264495849609375,0.6522674560546875,-0.8880767822265625
1780626045539480800,12.523480712890626,0.25634765625,0.576751708984375,-0.882537841796875
1780626045549511000,12.533510986328125,0.273223876953125,0.4923248291015625,-0.862396240234375
1780626045559540000,12.5435400390625,0.313201904296875,0.39508056640625,-0.8594818115234375
1780626045569569800,12.55356982421875,0.3412017822265625,0.3058013916015625,-0.883026123046875
1780626045579598800,12.563598876953124,0.3648681640625,0.259124755859375,-0.896270751953125
1780626045589629000,12.57362890625,0.388671875,0.24652099609375,-0.8833465576171875
1780626045599659000,12.583658935546875,0.4132232666015625,0.2628936767578125,-0.8686676025390625
1780626045609688000,12.59368798828125,0.4263763427734375,0.3043365478515625,-0.86810302734375
1780626045619718000,12.6037177734375,0.42742919921875,0.37359619140625,-0.8918304443359375
1780626045629747000,12.613746826171875,0.45166015625,0.437164306640625,-0.9112091064453125
1780626045639777000,12.623777099609375,0.472900390625,0.5034637451171875,-0.8932647705078125
1780626045649807000,12.63380712890625,0.4597930908203125,0.5593109130859375,-0.8787078857421875
1780626045659836200,12.643836181640625,0.4441070556640625,0.6070098876953125,-0.8716278076171875
1780626045669865700,12.65386572265625,0.420440673828125,0.655303955078125,-0.8488311767578125
1780626045679895000,12.66389501953125,0.3799896240234375,0.6522216796875,-0.8121185302734375
1780626045689924900,12.6739248046875,0.3095550537109375,0.5990447998046875,-0.7709808349609375
1780626045699955000,12.683954833984375,0.251922607421875,0.5413970947265625,-0.7365264892578125
1780626045709983700,12.693983642578125,0.295684814453125,0.5124969482421875,-0.7140350341796875
1780626045720013800,12.704013916015626,0.349090576171875,0.527008056640625,-0.6638641357421875
1780626045730043000,12.71404296875,0.3800048828125,0.552886962890625,-0.6027984619140625
1780626045740073000,12.724072998046875,0.3658599853515625,0.55621337890625,-0.59539794921875
1780626045750103000,12.73410302734375,0.32440185546875,0.5275421142578125,-0.6649017333984375
1780626045760131800,12.7441318359375,0.2913818359375,0.51177978515625,-0.7257232666015625
1780626045770162000,12.754161865234375,0.2838134765625,0.48291015625,-0.7707672119140625
1780626045780191000,12.76419091796875,0.29913330078125,0.4405364990234375,-0.8424530029296875
1780626045790221000,12.774220947265626,0.3302764892578125,0.4196624755859375,-0.8697357177734375
1780626045800251000,12.7842509765625,0.35858154296875,0.4221649169921875,-0.86883544921875
1780626045810280000,12.794280029296875,0.3977203369140625,0.4384002685546875,-0.84820556640625
1780626045820309800,12.804309814453125,0.4570465087890625,0.47119140625,-0.82232666015625
1780626045830339000,12.814339111328126,0.4768829345703125,0.5467681884765625,-0.7881927490234375
1780626045840369000,12.824368896484375,0.47332763671875,0.58544921875,-0.7807464599609375
1780626045850399000,12.83439892578125,0.4152069091796875,0.5933074951171875,-0.767242431640625
1780626045860427800,12.844427734375,0.3469696044921875,0.601898193359375,-0.725555419921875
1780626045870457900,12.854457763671874,0.286285400390625,0.6136474609375,-0.6666107177734375
1780626045880487000,12.86448681640625,0.27117919921875,0.5884246826171875,-0.6313934326171875
1780626045890517000,12.87451708984375,0.28314208984375,0.5204315185546875,-0.6448974609375
1780626045900547000,12.884547119140626,0.3341217041015625,0.4608917236328125,-0.7036285400390625
1780626045910575900,12.894575927734374,0.41424560546875,0.41412353515625,-0.75146484375
1780626045920606000,12.90460595703125,0.5083160400390625,0.378143310546875,-0.851226806640625
1780626045930635000,12.914635009765625,0.5233306884765625,0.34478759765625,-0.936492919921875
1780626045940665000,12.9246650390625,0.4784698486328125,0.3316802978515625,-0.9555206298828125
1780626045950695000,12.93469482421875,0.4083251953125,0.3661651611328125,-0.9110565185546875
1780626045960724000,12.944723876953125,0.3306732177734375,0.4327545166015625,-0.8316497802734375
1780626045970753800,12.95475390625,0.2684478759765625,0.4518280029296875,-0.789947509765625
1780626045980783000,12.964783203125,0.2492523193359375,0.4154510498046875,-0.7662811279296875
1780626045990813000,12.97481298828125,0.2840118408203125,0.3737945556640625,-0.751556396484375
1780626046000843000,12.984843017578125,0.373016357421875,0.3323211669921875,-0.7839202880859375
1780626046010871800,12.994871826171876,0.418853759765625,0.32745361328125,-0.86285400390625
1780626046020902000,13.00490185546875,0.39642333984375,0.33807373046875,-0.957611083984375
1780626046030931000,13.014930908203125,0.353363037109375,0.352691650390625,-1.006011962890625
1780626046040961000,13.0249609375,0.3343963623046875,0.3736724853515625,-1.001220703125
1780626046050991000,13.0349912109375,0.316131591796875,0.408843994140625,-0.94708251953125
1780626046061020000,13.04502001953125,0.3457794189453125,0.4268951416015625,-0.8645477294921875
1780626046071050000,13.055050048828125,0.389801025390625,0.40264892578125,-0.8276519775390625
1780626046081080000,13.065080078125,0.4245147705078125,0.387115478515625,-0.83160400390625
1780626046091109000,13.075109130859374,0.4230804443359375,0.38623046875,-0.8449554443359375
1780626046101139000,13.085138916015625,0.3970794677734375,0.391326904296875,-0.8436737060546875
1780626046111168000,13.09516796875,0.3882904052734375,0.41741943359375,-0.82879638671875
