time,seconds_elapsed,z,y,x
1780626033086488000,0.070488037109375,-0.013273668475449085,-1.0408191680908203,0.9474653601646423
1780626033096518000,0.080517822265625,0.15114173293113708,-0.7904189825057983,0.6904521584510803
1780626033106547000,0.090546875,0.2994350790977478,-0.5532053709030151,0.31829747557640076
1780626033116577000,0.100576904296875,0.7140855193138123,0.14817041158676147,-0.3371557593345642
1780626033126606000,0.110606201171875,1.0748916864395142,1.231688380241394,-0.8227831721305847
1780626033136636000,0.120635986328125,1.1574846506118774,2.038600206375122,-0.9542087316513062
1780626033146665000,0.1306650390625,0.8909454345703125,2.0864884853363037,-0.7514929175376892
1780626033156694800,0.14069482421875,0.47073689103126526,1.62335205078125,-0.4105474352836609
1780626033166724900,0.150724853515625,0.05775278061628342,1.1633280515670776,-0.017678163945674896
1780626033176754000,0.16075390625,-0.24464578926563263,0.733623206615448,0.3346060514450073
1780626033186783700,0.17078369140625,-0.39785584807395935,0.2368972897529602,0.6155604720115662
1780626033196812800,0.180812744140625,-0.3195670247077942,-0.1923355907201767,0.8182553052902222
1780626033206843000,0.1908427734375,-0.09923598170280457,-0.489703893661499,1.0357434749603271
1780626033216872000,0.200871826171875,0.13681338727474213,-0.6166577339172363,1.2612777948379517
1780626033226902000,0.210902099609375,0.3364519476890564,-0.6450046896934509,1.4510879516601562
1780626033236931800,0.220931884765625,0.44965556263923645,-0.5945904850959778,1.5889278650283813
1780626033246961000,0.2309609375,0.4321218430995941,-0.5681820511817932,1.6131106615066528
1780626033256991000,0.240990966796875,0.27964237332344055,-0.6792991757392883,1.4418928623199463
1780626033267020000,0.25102001953125,-0.059791598469018936,-0.6967684626579285,0.948483407497406
1780626033277049900,0.2610498046875,-0.3472628593444824,-0.8641318082809448,0.4072989821434021
1780626033287079000,0.271078857421875,-0.5618622303009033,-0.8246437907218933,-0.08359642326831818
1780626033297109000,0.28110888671875,-0.7413816452026367,-0.5064018964767456,-0.5044876933097839
1780626033307138000,0.291137939453125,-0.8493198156356812,-0.10231806337833405,-0.830169677734375
1780626033317167900,0.30116796875,-0.8559277057647705,0.26679179072380066,-0.9501472115516663
1780626033327197700,0.31119775390625,-0.6802244186401367,0.5485361218452454,-0.912944495677948
1780626033337226800,0.321226806640625,-0.30223941802978516,0.602745771408081,-0.7826222777366638
1780626033347256800,0.3312568359375,0.0954725369811058,0.5993435382843018,-0.6084685921669006
1780626033357286000,0.341285888671875,0.4517131447792053,0.5317143201828003,-0.43210580945014954
1780626033367316000,0.35131591796875,0.7634457349777222,0.4727815091609955,-0.28528305888175964
1780626033377344800,0.3613447265625,1.0262011289596558,0.1776314079761505,-0.11967016011476517
1780626033387374800,0.371374755859375,1.100304126739502,-0.18411749601364136,0.012275617569684982
1780626033397405000,0.381405029296875,0.9751538038253784,-0.48675718903541565,0.07238179445266724
1780626033407434000,0.39143408203125,0.8379240036010742,-0.8360531330108643,0.11313135921955109
1780626033417464000,0.401464111328125,0.839839518070221,-1.0096102952957153,0.21059571206569672
1780626033427492900,0.411492919921875,0.9971399307250977,-1.1336978673934937,0.3617740273475647
1780626033437523000,0.42152294921875,1.108055830001831,-1.301666259765625,0.5551827549934387
1780626033447552000,0.431552001953125,1.1411434412002563,-1.4677265882492065,0.7540364861488342
1780626033457582000,0.44158203125,1.1425397396087646,-1.6428486108779907,0.8032580614089966
1780626033467612000,0.45161181640625,1.1270750761032104,-1.786968469619751,0.5235435962677002
1780626033477641000,0.461640869140625,1.2353050708770752,-1.7869256734848022,-0.1584741175174713
1780626033487670800,0.4716708984375,1.6037638187408447,-1.464642882347107,-0.907065212726593
1780626033497700000,0.4817001953125,2.011646270751953,-1.3358659744262695,-1.4059239625930786
1780626033507730000,0.49172998046875,2.276228427886963,-1.7917059659957886,-1.4623677730560303
1780626033517758700,0.5017587890625,2.4878926277160645,-2.7593588829040527,-0.9134454131126404
1780626033527788800,0.511788818359375,2.910630702972412,-4.225856781005859,0.20925217866897583
1780626033537819000,0.52181884765625,3.5512328147888184,-5.993038654327393,1.5577136278152466
1780626033547848000,0.531847900390625,4.137379169464111,-7.387171268463135,2.3997082710266113
1780626033557878000,0.5418779296875,4.619500637054443,-7.638363361358643,2.241636037826538
1780626033567906800,0.55190673828125,5.2928595542907715,-6.739571571350098,1.875569462776184
1780626033577937000,0.56193701171875,5.927335262298584,-4.907106399536133,1.2609684467315674
1780626033587966000,0.571966064453125,6.32130241394043,-3.242149591445923,0.5136767029762268
1780626033597996000,0.58199609375,6.723145008087158,-2.301628589630127,0.1341136246919632
1780626033608025900,0.59202587890625,7.215101718902588,-2.265655517578125,0.19640682637691498
1780626033618055000,0.602054931640625,7.652828693389893,-2.934130907058716,0.6286831498146057
1780626033628085000,0.6120849609375,7.882913589477539,-4.064988136291504,1.3917027711868286
1780626033638114000,0.622114013671875,8.03164291381836,-5.464461326599121,2.323364019393921
1780626033648144100,0.63214404296875,8.242955207824707,-7.021275043487549,3.0978593826293945
1780626033658173000,0.6421728515625,8.765655517578125,-7.68541955947876,4.070772171020508
1780626033668202800,0.65220263671875,9.341901779174805,-7.594748497009277,4.919021129608154
1780626033678232800,0.66223291015625,9.703651428222656,-7.241363048553467,5.5616326332092285
1780626033688262000,0.672261962890625,9.930083274841309,-6.580727577209473,6.328470706939697
1780626033698292000,0.6822919921875,9.944706916809082,-5.80117130279541,7.091313362121582
1780626033708320800,0.69232080078125,9.74148941040039,-5.077060699462891,7.602302074432373
1780626033718350800,0.702350830078125,9.17977523803711,-3.2712297439575195,7.699903964996338
1780626033728380000,0.7123798828125,8.204987525939941,-0.9733564257621765,7.115740776062012
1780626033738410000,0.722409912109375,6.8542160987854,1.5134490728378296,6.268814563751221
1780626033748439800,0.732439697265625,5.227074146270752,3.8535261154174805,5.537856101989746
1780626033758468900,0.74246875,3.192866563796997,4.94601583480835,5.111251354217529
1780626033768499000,0.7524990234375,1.1025103330612183,4.909640312194824,5.000227928161621
1780626033778528000,0.762528076171875,-0.4043051600456238,4.650333881378174,4.895511627197266
1780626033788558000,0.77255810546875,-1.3471198081970215,4.573005199432373,4.210893630981445
1780626033798587000,0.7825869140625,-1.8173269033432007,4.440273284912109,3.058584451675415
1780626033808617000,0.792616943359375,-2.074479103088379,4.0147857666015625,1.8917992115020752
1780626033818646800,0.802646728515625,-2.5414164066314697,2.9710745811462402,1.146748661994934
1780626033828676000,0.812676025390625,-3.087797164916992,1.5627844333648682,0.652277946472168
1780626033838706000,0.822705810546875,-3.67388653755188,0.14739643037319183,0.04568130150437355
1780626033848735000,0.83273486328125,-4.307733058929443,-0.7614903450012207,-0.7440059185028076
1780626033858764800,0.842764892578125,-4.862800121307373,-0.8694512248039246,-1.8268609046936035
1780626033868795000,0.852794921875,-5.111528396606445,-0.31983572244644165,-3.0415637493133545
1780626033878824000,0.862823974609375,-4.982800483703613,0.33518296480178833,-3.6355113983154297
1780626033888853800,0.872853759765625,-4.770517349243164,0.009721496142446995,-3.379703998565674
1780626033898882800,0.8828828125,-4.175193786621094,-1.5197246074676514,-2.369124174118042
1780626033908913000,0.892912841796875,-3.2888479232788086,-2.736525297164917,-1.801146149635315
1780626033918942000,0.90294189453125,-2.142786741256714,-3.471005916595459,-1.727226972579956
1780626033928972000,0.912971923828125,-1.4675827026367188,-4.108160972595215,-1.6475989818572998
1780626033939001900,0.923001953125,-1.0996562242507935,-5.3626179695129395,-1.0413938760757446
1780626033949031000,0.933031005859375,-0.33987241983413696,-6.696619987487793,0.020445741713047028
1780626033959061000,0.94306103515625,0.16778889298439026,-5.910219669342041,0.14052176475524902
1780626033969090000,0.953090087890625,0.23581640422344208,-4.012875080108643,-0.7903278470039368
1780626033979120000,0.9631201171875,0.029297593981027603,-2.354053258895874,-1.54334557056427
1780626033989149000,0.97314892578125,-0.17052577435970306,-1.1098275184631348,-1.85313880443573
1780626033999179000,0.983178955078125,-0.2600470185279846,-0.36930838227272034,-2.0577311515808105
1780626034009208800,0.993208740234375,-0.2482372224330902,0.1574949473142624,-2.2471604347229004
1780626034019238000,1.00323779296875,-0.15476998686790466,0.4271021783351898,-2.4223504066467285
1780626034029267700,1.013267822265625,0.02086442895233631,0.5241698622703552,-2.5683341026306152
1780626034039296800,1.023296875,0.2310146689414978,0.602674126625061,-2.6968390941619873
1780626034049326800,1.033326904296875,0.3809860646724701,0.44447436928749084,-2.6776621341705322
1780626034059357000,1.04335693359375,0.41739344596862793,-0.03224264457821846,-2.430379867553711
1780626034069386000,1.053385986328125,0.3783927857875824,-0.5138015747070312,-1.8112701177597046
1780626034079415800,1.063415771484375,0.2641426920890808,-0.920804500579834,-0.9370158910751343
1780626034089444900,1.07344482421875,0.12551821768283844,-0.9133825302124023,-0.33111584186553955
1780626034099475000,1.083474853515625,0.026262622326612473,-1.0969483852386475,0.6079012155532837
1780626034109504000,1.09350390625,0.06770087778568268,-1.218626856803894,0.8287515640258789
1780626034119534000,1.1035341796875,0.020393114537000656,-0.3288609981536865,-0.7067549824714661
1780626034129564000,1.11356396484375,-0.07742638885974884,1.1133334636688232,-2.980699300765991
1780626034139593000,1.123593017578125,-0.6749237775802612,4.1353440284729,-7.027231216430664
1780626034149623000,1.133623046875,-1.3152662515640259,6.1389360427856445,-8.993163108825684
1780626034159652000,1.143652099609375,-1.4404562711715698,6.897981643676758,-9.119392395019531
1780626034169681700,1.153681640625,-1.2364277839660645,4.871405601501465,-7.028265953063965
1780626034179711700,1.163711669921875,-0.8766592741012573,-0.07750143855810165,-2.4600203037261963
1780626034189740800,1.17374072265625,-0.6909940838813782,-5.2126383781433105,2.4962759017944336
1780626034199771000,1.18377099609375,-0.2920472323894501,-6.673220157623291,5.001467227935791
1780626034209800000,1.193800048828125,0.22691017389297485,-5.191765308380127,4.0229692459106445
1780626034219829800,1.203829833984375,0.6403679847717285,-1.2833733558654785,1.565423846244812
1780626034229858800,1.21385888671875,0.7507331371307373,2.0268616676330566,-0.575814425945282
1780626034239889000,1.223888916015625,0.6561542749404907,3.3788347244262695,-1.5590234994888306
1780626034249919000,1.2339189453125,0.8063278198242188,3.01206374168396,-1.8003383874893188
1780626034259948000,1.243947998046875,1.310516595840454,2.7180209159851074,-1.6146575212478638
1780626034269977900,1.253977783203125,1.883073329925537,2.6978678703308105,-1.2392956018447876
1780626034280007000,1.2640068359375,2.4362876415252686,2.1351118087768555,-0.9016847014427185
1780626034290037000,1.274037109375,2.5935935974121094,1.5348540544509888,-0.6984947919845581
1780626034300067000,1.284067138671875,2.427205801010132,0.2071443349123001,-0.7643266320228577
1780626034310096000,1.294095947265625,2.4613723754882812,-1.5548900365829468,-0.8668662905693054
1780626034320125700,1.304125732421875,2.8011560440063477,-3.5643858909606934,-0.9170838594436646
1780626034330155000,1.314155029296875,2.7724833488464355,-5.169369220733643,-0.9593761563301086
1780626034340184800,1.324184814453125,2.462254047393799,-6.433797359466553,-1.0401921272277832
1780626034350214000,1.3342138671875,2.0363473892211914,-7.123396873474121,-1.245223879814148
1780626034360243700,1.34424365234375,1.6222423315048218,-7.456157207489014,-1.540223240852356
1780626034370273800,1.354273681640625,1.38055419921875,-7.167226791381836,-1.8970820903778076
1780626034380302800,1.364302734375,1.4114694595336914,-6.4248175621032715,-2.26088547706604
1780626034390333000,1.3743330078125,1.7954366207122803,-5.346909999847412,-2.3664181232452393
1780626034400362000,1.384362060546875,2.532214641571045,-4.089334964752197,-1.8857334852218628
1780626034410391800,1.394391845703125,3.714339256286621,-3.393631935119629,-0.7260268926620483
1780626034420422000,1.404421875,4.612233638763428,-2.159247398376465,0.3831592798233032
1780626034430451000,1.414450927734375,4.463944911956787,-0.5695755481719971,0.7113658785820007
1780626034440481000,1.42448095703125,3.485619068145752,0.9204134941101074,0.6048544049263
1780626034450509800,1.434509765625,2.3598737716674805,1.9375988245010376,0.42655137181282043
1780626034460540000,1.444539794921875,1.4742778539657593,2.2532098293304443,0.3068540096282959
1780626034470569700,1.45456982421875,0.8236897587776184,2.0484540462493896,0.2468235343694687
1780626034480599000,1.46459912109375,0.23164665699005127,1.6850457191467285,0.20857149362564087
1780626034490628900,1.47462890625,-0.3144197463989258,1.4855152368545532,0.21731248497962952
1780626034500658000,1.484657958984375,-0.6878700852394104,1.3773019313812256,0.2862497568130493
1780626034510687700,1.494687744140625,-0.6824046969413757,1.0651042461395264,0.2857851982116699
1780626034520716800,1.504716796875,-0.2797310948371887,0.832665205001831,0.18782256543636322
1780626034530747000,1.514746826171875,0.4223141074180603,0.4907984137535095,0.08414624631404877
1780626034540777000,1.52477685546875,1.176531195640564,-0.0092335045337677,0.23176339268684387
1780626034550805800,1.5348056640625,1.7098243236541748,-0.6687124967575073,0.7487546801567078
1780626034560835800,1.5448359375,1.9425859451293945,-1.5697102546691895,1.3988115787506104
1780626034570865000,1.554864990234375,1.9943530559539795,-2.0919151306152344,1.9311691522598267
1780626034580895000,1.56489501953125,2.1994192600250244,-2.575591802597046,2.630831480026245
1780626034590925000,1.574925048828125,2.3208165168762207,-2.679020404815674,3.283205270767212
1780626034600953900,1.584953857421875,2.3320412635803223,-2.35719633102417,3.9177017211914062
1780626034610984000,1.59498388671875,2.5239200592041016,-1.814020037651062,4.168737888336182
1780626034621013000,1.605012939453125,2.783609628677368,-0.6476687788963318,3.9412193298339844
1780626034631043000,1.61504296875,2.6332473754882812,0.44806674122810364,3.0736100673675537
1780626034641073000,1.625072998046875,1.5863746404647827,0.2880057096481323,1.953042984008789
1780626034651102000,1.63510205078125,0.5885255932807922,0.38739052414894104,-0.02365584298968315
1780626034661131800,1.6451318359375,-0.2905561625957489,1.0377280712127686,-1.2894328832626343
1780626034671160800,1.655160888671875,-0.9148941040039062,1.9630796909332275,-1.5746657848358154
1780626034681191000,1.66519091796875,-1.2446576356887817,3.0580432415008545,-1.5084409713745117
1780626034691221000,1.675220947265625,-1.403550386428833,4.0790252685546875,-1.5587801933288574
1780626034701249800,1.685249755859375,-0.9155085682868958,5.119866371154785,-2.396744966506958
1780626034711279900,1.69527978515625,-0.30170443654060364,5.730531692504883,-2.4372479915618896
1780626034721309000,1.705308837890625,0.3736577033996582,5.101465702056885,-1.6385631561279297
1780626034731339000,1.715339111328125,0.9227895140647888,3.943725347518921,-0.41350433230400085
1780626034741369000,1.725369140625,1.1493191719055176,3.4635086059570312,0.6344079971313477
1780626034751398000,1.73539794921875,1.0660375356674194,3.3076272010803223,1.4187726974487305
1780626034761428000,1.745427978515625,0.9125421643257141,3.440892219543457,1.665816068649292
1780626034771457000,1.75545703125,0.7201628088951111,3.178145170211792,1.4929674863815308
1780626034781487000,1.765487060546875,0.4370056986808777,2.61198353767395,1.245028018951416
1780626034791516700,1.7755166015625,0.19763529300689697,2.1605262756347656,1.0282937288284302
1780626034801546000,1.7855458984375,0.09676060080528259,1.7613623142242432,0.7659176588058472
1780626034811575800,1.795575927734375,0.30099624395370483,1.2553184032440186,0.5042027235031128
1780626034821604900,1.80560498046875,0.8556153774261475,0.5756680965423584,0.309309720993042
1780626034831635000,1.815635009765625,1.5949724912643433,-0.16697758436203003,0.17027033865451813
1780626034841664800,1.825664794921875,2.2072572708129883,-0.4866463840007782,0.02090189792215824
1780626034851693800,1.83569384765625,2.456556797027588,-0.23968711495399475,-0.18481135368347168
1780626034861724000,1.845723876953125,2.2150118350982666,0.4229225516319275,-0.4471505582332611
1780626034871753000,1.8557529296875,1.4110653400421143,1.2199103832244873,-0.7378620505332947
1780626034881783000,1.865782958984375,0.2665502429008484,1.193915843963623,-0.8480356931686401
1780626034891811800,1.875811767578125,-0.737594485282898,0.9455764889717102,-0.8041670322418213
1780626034901842000,1.885842041015625,-1.1444001197814941,0.6312720775604248,-0.6460239887237549
1780626034911872000,1.8958720703125,-0.9917774796485901,0.5303339958190918,-0.36745283007621765
1780626034921901000,1.905901123046875,-0.7650370597839355,0.5913780331611633,-0.06758897751569748
1780626034931931000,1.915930908203125,-0.5382513403892517,0.817644476890564,0.15286456048488617
1780626034941960000,1.9259599609375,-0.39377009868621826,1.0468132495880127,0.2418394386768341
1780626034951990000,1.935989990234375,-0.31172382831573486,1.0239924192428589,0.2634941041469574
1780626034962019800,1.946019775390625,0.01172664761543274,0.8772335648536682,0.17728464305400848
1780626034972049000,1.956048828125,0.3249385356903076,0.6141963005065918,0.12975193560123444
1780626034982078700,1.96607861328125,0.6767266392707825,0.5012646913528442,0.07224683463573456
1780626034992107800,1.976107666015625,0.9528440237045288,0.781869113445282,-0.013340342789888382
1780626035002137900,1.986137939453125,1.092087984085083,1.0151880979537964,-0.04828101396560669
1780626035012168000,1.99616796875,0.9013102054595947,0.7453442811965942,0.03478705510497093
1780626035022197000,2.006197021484375,0.48541679978370667,0.4286849796772003,0.03189476951956749
1780626035032226800,2.016226806640625,0.18778908252716064,0.06611183285713196,-0.027277475222945213
1780626035042256000,2.026255859375,0.1540772020816803,-0.44394955039024353,-0.024828165769577026
1780626035052286000,2.036285888671875,0.25879356265068054,-0.6464338302612305,0.12215735018253326
1780626035062316000,2.04631591796875,0.4107593894004822,-0.46586135029792786,0.30347228050231934
1780626035072344800,2.0563447265625,0.3954119384288788,-0.2305341511964798,0.48717600107192993
1780626035082375000,2.066375,0.2771574854850769,-0.023337826132774353,0.5648090243339539
1780626035092404000,2.076404052734375,0.1202375590801239,0.012039195746183395,0.5793514251708984
1780626035102433800,2.086433837890625,0.0008480485994368792,0.0342816524207592,0.5021122694015503
1780626035112464000,2.0964638671875,-0.08680447936058044,-0.029393712058663368,0.3848978579044342
1780626035122492700,2.10649267578125,-0.10206359624862671,-0.2525801956653595,0.2821640074253082
1780626035132522800,2.116522705078125,-0.13588440418243408,-0.4445837140083313,0.177906334400177
1780626035142551800,2.1265517578125,-0.23084846138954163,-0.5340811610221863,0.08025221526622772
1780626035152582000,2.136581787109375,-0.3069559335708618,-0.596993625164032,-0.02807418815791607
1780626035162612000,2.146612060546875,-0.3268582820892334,-0.6021960973739624,-0.08777746558189392
1780626035172640800,2.156640869140625,-0.33274585008621216,-0.5085594058036804,-0.09897138178348541
1780626035182670800,2.1666708984375,-0.33059296011924744,-0.34234169125556946,-0.09088229387998581
1780626035192700000,2.176699951171875,-0.29919224977493286,-0.15118452906608582,-0.05143219605088234
1780626035202730000,2.18672998046875,-0.2822659909725189,-0.04989359900355339,0.017389478161931038
1780626035212760000,2.196760009765625,-0.3856768310070038,-0.5465390086174011,0.15279066562652588
1780626035222788900,2.206788818359375,-0.3027091920375824,-1.2575483322143555,0.4093506336212158
1780626035232819000,2.21681884765625,-0.16010385751724243,-1.516098976135254,0.6070288419723511
1780626035242848000,2.226847900390625,-0.039635755121707916,-0.845304012298584,0.5664185285568237
1780626035252877800,2.2368779296875,0.015001856721937656,-0.13762226700782776,0.48905694484710693
1780626035262908000,2.246907958984375,0.005947108380496502,0.5257341861724854,0.43750083446502686
1780626035272936700,2.256936767578125,-0.006948698312044144,1.0503032207489014,0.4284469187259674
1780626035282966800,2.266966796875,-0.02565021440386772,1.3830934762954712,0.43728142976760864
1780626035292995800,2.276995849609375,-0.0349443294107914,1.4827163219451904,0.4029538631439209
1780626035303026000,2.28702587890625,-0.011960718780755997,1.318237066268921,0.3095482587814331
1780626035313054700,2.2970546875,0.08527697622776031,0.8484273552894592,0.1401679962873459
1780626035323084800,2.307084716796875,0.37322819232940674,-0.0038136811926960945,-0.053014934062957764
1780626035333115000,2.317114990234375,0.6957674026489258,-0.7007128596305847,-0.19704695045948029
1780626035343144000,2.32714404296875,0.8001372218132019,-0.7965192794799805,-0.2956281006336212
1780626035353174000,2.337174072265625,0.6482977271080017,-0.4337102472782135,-0.370445191860199
1780626035363204000,2.3472041015625,0.30136561393737793,-0.13980354368686676,-0.42404478788375854
1780626035373233200,2.357233154296875,-0.16799183189868927,0.0013833129778504372,-0.4257614016532898
1780626035383263200,2.36726318359375,-0.5457442402839661,0.1522979885339737,-0.3249754309654236
1780626035393292300,2.377292236328125,-0.6802167296409607,0.37432244420051575,-0.08616358041763306
1780626035403322000,2.387322021484375,-0.5511932373046875,0.713931143283844,0.2414291948080063
1780626035413351200,2.39735107421875,-0.29494738578796387,0.9701097011566162,0.5306471586227417
1780626035423381000,2.407381103515625,-0.05116845294833183,0.9176349639892578,0.6305253505706787
1780626035433411000,2.4174111328125,0.05605893209576607,0.49120503664016724,0.47206512093544006
1780626035443440000,2.427440185546875,0.03279968351125717,-0.2063301056623459,0.09698764234781265
1780626035453470200,2.43747021484375,-0.039800774306058884,-0.719799280166626,-0.272861123085022
1780626035463499000,2.4474990234375,-0.05471660569310188,-0.6856021285057068,-0.4319642186164856
1780626035473529000,2.457529052734375,-0.03381231427192688,-0.3032841682434082,-0.3841666877269745
1780626035483559200,2.46755908203125,0.02288159169256687,0.047237642109394073,-0.23609492182731628
1780626035493588200,2.477588134765625,0.06535718590021133,0.04607637971639633,-0.10523979365825653
1780626035503618300,2.487618408203125,0.056530676782131195,-0.18381327390670776,-0.037426918745040894
1780626035513647000,2.497647216796875,0.1052011102437973,-0.29102298617362976,0.094225212931633
1780626035523677200,2.50767724609375,0.1363660991191864,-0.28314658999443054,0.23655349016189575
1780626035533707300,2.517707275390625,0.0802045613527298,-0.27591076493263245,0.3078082203865051
1780626035543736300,2.527736328125,-0.007501055486500263,-0.33447980880737305,0.32359063625335693
1780626035553766100,2.53776611328125,0.005935751833021641,-0.16611003875732422,0.3849960267543793
1780626035563795200,2.547795166015625,0.06720390170812607,0.04527224972844124,0.41178956627845764
1780626035573825000,2.557824951171875,0.08606750518083572,0.10326726734638214,0.3679935038089752
1780626035583855000,2.567855224609375,-0.024783112108707428,-0.020815260708332062,0.21058791875839233
1780626035593884200,2.57788427734375,-0.16896110773086548,-0.2590695917606354,-0.0010510007850825787
1780626035603914200,2.587914306640625,-0.2243732362985611,-0.4707981050014496,-0.13463756442070007
1780626035613943000,2.597943115234375,-0.17791755497455597,-0.5017530918121338,-0.18778450787067413
1780626035623973000,2.60797314453125,-0.04213014617562294,-0.29522210359573364,-0.14913415908813477
1780626035634003200,2.618003173828125,0.07155780494213104,-0.1379144936800003,-0.0800030305981636
1780626035644032300,2.6280322265625,0.08825130015611649,-0.031593117862939835,-0.04330386966466904
1780626035654062000,2.63806201171875,0.010094491764903069,0.055998168885707855,-0.04021349176764488
1780626035664091100,2.648091064453125,-0.11477021127939224,0.14632061123847961,-0.06620754301548004
1780626035674121200,2.658121337890625,-0.2191365659236908,0.22380319237709045,-0.09294874221086502
1780626035684151300,2.6681513671875,-0.24037155508995056,0.34444093704223633,-0.07856101542711258
1780626035694180400,2.678180419921875,-0.20515073835849762,0.5102533102035522,-0.011820221319794655
1780626035704210000,2.6882099609375,-0.13128530979156494,0.4254564344882965,0.016744043678045273
1780626035714239200,2.6982392578125,-0.040225062519311905,0.08230475336313248,-0.033548593521118164
1780626035724269000,2.70826904296875,0.03918846324086189,-0.2967822551727295,-0.10073062777519226
1780626035734299100,2.718299072265625,0.05475543811917305,-0.5403706431388855,-0.13186459243297577
1780626035744328200,2.728328125,0.006329846568405628,-0.5494711995124817,-0.12874895334243774
1780626035754358000,2.73835791015625,-0.06433526426553726,-0.3793208599090576,-0.09588433802127838
1780626035764387000,2.748386962890625,-0.12954355776309967,-0.09945324808359146,-0.026874376460909843
1780626035774417200,2.758417236328125,-0.18769051134586334,0.17799876630306244,0.0721692144870758
1780626035784447200,2.768447265625,-0.21468643844127655,0.375639945268631,0.1644999384880066
1780626035794476000,2.77847607421875,-0.21328918635845184,0.46894848346710205,0.20915332436561584
1780626035804506000,2.788506103515625,-0.20429915189743042,0.4082302749156952,0.1959749460220337
1780626035814535200,2.79853515625,-0.18045082688331604,0.1361093521118164,0.12151600420475006
1780626035824565200,2.808565185546875,-0.12315021455287933,-0.15617124736309052,0.022958951070904732
1780626035834594300,2.81859423828125,-0.07040497660636902,-0.390132337808609,-0.08601786941289902
1780626035844624100,2.8286240234375,-0.04319758713245392,-0.46241265535354614,-0.18185198307037354
1780626035854654000,2.838654052734375,-0.009053951129317284,-0.3032333552837372,-0.18874242901802063
1780626035864683300,2.848683349609375,0.033540915697813034,-0.07635734975337982,-0.10125572234392166
1780626035874713000,2.858713134765625,0.12129199504852295,0.15828509628772736,0.06334806978702545
1780626035884742100,2.8687421875,0.1625555455684662,0.34222298860549927,0.23007287085056305
1780626035894772000,2.87877197265625,0.18544691801071167,0.5304223895072937,0.3231905698776245
1780626035904802000,2.888802001953125,0.12222587317228317,0.559767484664917,0.2870674729347229
1780626035914831000,2.8988310546875,0.084347203373909,0.5678917765617371,0.18690797686576843
1780626035924861200,2.908861083984375,0.09884557127952576,0.731590211391449,0.05093442648649216
1780626035934890000,2.918889892578125,0.06892415881156921,0.7899344563484192,-0.14264249801635742
1780626035944920000,2.928920166015625,0.0012116904836148024,0.7547791600227356,-0.37959936261177063
1780626035954950100,2.9389501953125,-0.08601504564285278,0.6280450224876404,-0.618161678314209
1780626035964979200,2.948979248046875,-0.08518227934837341,0.520485520362854,-0.8524186611175537
1780626035975009300,2.95900927734375,0.0983971655368805,0.43124163150787354,-1.0361354351043701
1780626035985038000,2.9690380859375,0.3720497488975525,0.1958775818347931,-1.152157187461853
1780626035995068200,2.979068115234375,0.7363508343696594,0.01694100722670555,-1.211634874343872
1780626036005098000,2.989097900390625,1.0918045043945312,-0.19718672335147858,-1.1932886838912964
1780626036015127300,2.999127197265625,1.290740966796875,-0.40676939487457275,-1.1206505298614502
1780626036025157000,3.0091572265625,1.3013999462127686,-0.48307642340660095,-0.9970932006835938
1780626036035186200,3.019186279296875,1.1490824222564697,-0.5340295433998108,-0.8380692005157471
1780626036045216000,3.029216064453125,0.8748226761817932,-0.6074507832527161,-0.693271815776825
1780626036055246000,3.03924609375,0.6289060115814209,-0.7900911569595337,-0.5166586637496948
1780626036065275100,3.049275146484375,0.4760722219944,-0.8397048115730286,-0.40279415249824524
1780626036075305200,3.05930517578125,0.337514728307724,-0.5753611922264099,-0.4197208285331726
1780626036085334000,3.069333984375,0.3537767827510834,-0.37661346793174744,-0.4599478840827942
1780626036095364000,3.079364013671875,0.24645072221755981,-0.2521277666091919,-0.5399933457374573
1780626036105394200,3.089394287109375,-0.017588654533028603,-0.4813511073589325,-0.5226072072982788
1780626036115423200,3.09942333984375,-0.372335821390152,-0.7328834533691406,-0.32621729373931885
1780626036125453300,3.109453369140625,-0.7018434405326843,-0.6853595972061157,0.03662697225809097
1780626036135482000,3.119482177734375,-0.8613368272781372,-0.42092257738113403,0.48904114961624146
1780626036145512200,3.12951220703125,-0.817188560962677,-0.18843874335289001,0.8378156423568726
1780626036155542000,3.1395419921875,-0.6015888452529907,0.07989799231290817,1.0032509565353394
1780626036165571300,3.1495712890625,-0.22226819396018982,0.39417895674705505,1.0487416982650757
1780626036175601200,3.15960107421875,0.24791952967643738,0.732873797416687,0.968065083026886
1780626036185630200,3.169630126953125,0.6433297395706177,1.182154893875122,0.7344957590103149
1780626036195660000,3.179659912109375,0.8866243958473206,1.881725549697876,0.2726978063583374
1780626036205689000,3.189689208984375,0.8110670447349548,2.3149144649505615,-0.2730241119861603
1780626036215719200,3.19971923828125,0.5346601605415344,2.0020911693573,-0.6018577218055725
1780626036225749200,3.209749267578125,0.35511791706085205,1.4170138835906982,-0.72354656457901
1780626036235778000,3.219778076171875,0.2146550565958023,1.0321269035339355,-0.8051149249076843
1780626036245808000,3.22980810546875,0.13131116330623627,0.8507711887359619,-0.9003309011459351
1780626036255837200,3.239837158203125,-0.032950494438409805,0.8788157105445862,-1.1760975122451782
1780626036265867300,3.2498671875,-0.25069427490234375,0.8548903465270996,-1.5634065866470337
1780626036275897300,3.2598974609375,-0.5279868841171265,0.33089613914489746,-1.8721977472305298
1780626036285926100,3.269926025390625,-0.5816794633865356,-0.8199812769889832,-1.7213367223739624
1780626036295956200,3.279956298828125,-0.5162692666053772,-1.5619113445281982,-1.1558666229248047
1780626036305985300,3.2899853515625,-0.40624508261680603,-1.4745482206344604,-0.43089616298675537
1780626036316015400,3.300015380859375,-0.2059321105480194,-0.841657280921936,0.20748470723628998
1780626036326045000,3.310044921875,-0.01650026999413967,-0.3055932819843292,0.6085205078125
1780626036336074200,3.32007421875,0.2226497381925583,-0.1554032266139984,0.8230538368225098
1780626036346104000,3.33010400390625,0.4089197516441345,-0.24628625810146332,0.8649531006813049
1780626036356133000,3.340133056640625,0.413577675819397,-0.3000204563140869,0.7239483594894409
1780626036366163200,3.3501630859375,0.5348889231681824,-0.24676494300365448,0.5288966298103333
1780626036376193300,3.360193359375,0.8598951101303101,-0.11307433247566223,0.37500879168510437
1780626036386222300,3.370222412109375,1.170181393623352,-0.08186367899179459,0.3279491662979126
1780626036396252400,3.38025244140625,1.4638510942459106,-0.33678174018859863,0.349926233291626
1780626036406281200,3.39028125,1.481391191482544,-0.8020133376121521,0.361209511756897
1780626036416311300,3.400311279296875,1.2220826148986816,-1.3493236303329468,0.34056857228279114
1780626036426341400,3.41034130859375,0.924677848815918,-1.8089020252227783,0.34373727440834045
1780626036436370400,3.420370361328125,0.5486317873001099,-2.3198435306549072,0.3139072060585022
1780626036446400500,3.430400390625,0.3376745581626892,-2.743987560272217,0.19816862046718597
1780626036456429300,3.44042919921875,0.4875929355621338,-2.8659207820892334,0.04013971984386444
1780626036466459400,3.45045947265625,0.876644492149353,-2.792078733444214,-0.059979960322380066
1780626036476489200,3.4604892578125,1.111085057258606,-2.8278310298919678,-0.034886959940195084
1780626036486518300,3.470518310546875,1.0923124551773071,-2.843135118484497,0.019544590264558792
1780626036496548400,3.48054833984375,0.9470782279968262,-2.340146064758301,-0.0552547350525856
1780626036506577200,3.4905771484375,0.7848443388938904,-1.6469106674194336,-0.18590088188648224
1780626036516607200,3.500607177734375,0.5594227910041809,-1.0737394094467163,-0.33061251044273376
1780626036526637300,3.51063720703125,0.3313801884651184,-0.5270268321037292,-0.539509654045105
1780626036536666400,3.520666259765625,0.12871494889259338,-0.1033511757850647,-0.7042011022567749
1780626036546696400,3.530696533203125,-0.028780927881598473,0.017079366371035576,-0.7154923677444458
1780626036556725200,3.540725341796875,-0.11924582719802856,-0.0003161756321787834,-0.6075373888015747
1780626036566755300,3.55075537109375,-0.14237643778324127,0.009429129771888256,-0.4300670325756073
1780626036576784400,3.560784423828125,-0.14851854741573334,0.07229135185480118,-0.19620797038078308
1780626036586814500,3.570814453125,-0.18877674639225006,0.16747406125068665,0.08243031054735184
1780626036596844500,3.580844482421875,-0.28263765573501587,0.34670278429985046,0.33894193172454834
1780626036606873300,3.590873291015625,-0.47785454988479614,0.5728866457939148,0.5709443092346191
1780626036616903400,3.6009033203125,-0.7522231340408325,0.8334333300590515,0.7781640291213989
1780626036626932500,3.610932373046875,-0.9937404990196228,1.021485686302185,0.8724780678749084
1780626036636962300,3.62096240234375,-1.0502103567123413,0.9200602769851685,0.6997060179710388
1780626036646992100,3.6309921875,-0.9737846255302429,0.4777398407459259,0.15624377131462097
1780626036657021200,3.641021240234375,-0.9140379428863525,-0.14442525804042816,-0.6777291893959045
1780626036667051300,3.65105126953125,-1.0624196529388428,-0.5127362012863159,-1.4492443799972534
1780626036677080300,3.661080322265625,-1.4245810508728027,-0.7023788094520569,-1.831207513809204
1780626036687110400,3.6711103515625,-1.893497109413147,-0.9749845266342163,-1.7797006368637085
1780626036697140200,3.68114013671875,-2.066957950592041,-1.6639162302017212,-1.6002544164657593
1780626036707169300,3.691169189453125,-1.9342142343521118,-2.1320881843566895,-1.1838997602462769
1780626036717199400,3.701199462890625,-1.3864866495132446,-1.985451340675354,-0.6322904229164124
1780626036727228400,3.711228515625,-0.6587466597557068,-1.8663897514343262,-0.3046451210975647
1780626036737258500,3.721258544921875,-0.2969650328159332,-2.144669771194458,-0.366006463766098
1780626036747288300,3.731288330078125,-0.1764330267906189,-2.2277755737304688,-0.5738350749015808
1780626036757317400,3.7413173828125,-0.1357322633266449,-2.200540781021118,-0.6273079514503479
1780626036767347500,3.751347412109375,0.020020848140120506,-2.1844632625579834,-0.5654613375663757
1780626036777376500,3.76137646484375,0.34589147567749023,-2.0206403732299805,-0.4931320250034332
1780626036787406000,3.771406005859375,0.6397692561149597,-1.6449617147445679,-0.42448607087135315
1780626036797436200,3.781436279296875,0.8196612596511841,-1.1485956907272339,-0.38555464148521423
1780626036807465200,3.79146533203125,0.9240289330482483,-0.7098588347434998,-0.40761467814445496
1780626036817495300,3.801495361328125,0.9753993153572083,-0.4802914559841156,-0.4714909791946411
1780626036827524400,3.8115244140625,0.9804567694664001,-0.48598119616508484,-0.5270405411720276
1780626036837554200,3.82155419921875,0.9032709002494812,-0.6252557039260864,-0.5787780284881592
1780626036847584300,3.831584228515625,0.7645553946495056,-0.7723215818405151,-0.6141165494918823
1780626036857613300,3.84161328125,0.6335940957069397,-0.8375298380851746,-0.6196877360343933
1780626036867643400,3.851643310546875,0.5378580093383789,-0.8086614012718201,-0.6309379935264587
1780626036877672400,3.86167236328125,0.4524165391921997,-0.7571901679039001,-0.6375963091850281
1780626036887702300,3.871702392578125,0.35867780447006226,-0.7652496695518494,-0.6277633905410767
1780626036897732400,3.881732421875,0.22529195249080658,-0.8635890483856201,-0.6118205189704895
1780626036907761400,3.891761474609375,0.036073558032512665,-1.0239089727401733,-0.6383469104766846
1780626036917791500,3.90179150390625,-0.033787548542022705,-1.2012217044830322,-0.6101608276367188
1780626036927820300,3.9118203125,-0.08414995670318604,-1.1531661748886108,-0.5527021884918213
1780626036937850000,3.92185009765625,-0.17189951241016388,-1.098792314529419,-0.45702576637268066
1780626036947880200,3.931880126953125,-0.1970224380493164,-1.0236589908599854,-0.3087148368358612
1780626036957909200,3.9419091796875,-0.1739712804555893,-0.9844225645065308,-0.1299106925725937
1780626036967939300,3.951939208984375,0.01853690668940544,-0.9726905226707458,0.10151321440935135
1780626036977968000,3.961968017578125,0.2518484592437744,-0.9335926175117493,0.28382056951522827
1780626036987998200,3.971998291015625,0.33730584383010864,-1.006983995437622,0.22788938879966736
1780626036998028300,3.9820283203125,0.2728462815284729,-1.0798672437667847,0.09601656347513199
1780626037008057300,3.992057373046875,0.09407732635736465,-1.0616140365600586,-0.011658499017357826
1780626037018087400,4.00208740234375,-0.11949838697910309,-0.9199780225753784,-0.1287059336900711
1780626037028116200,4.0121162109375,-0.2889573872089386,-0.7445831298828125,-0.29590603709220886
1780626037038146300,4.022146240234375,-0.37229087948799133,-0.6720367670059204,-0.4127122759819031
1780626037048175400,4.03217529296875,-0.38564106822013855,-0.6968345046043396,-0.32563647627830505
1780626037058205400,4.042205322265625,-0.36958733201026917,-0.7784958481788635,-0.011964298784732819
1780626037068235500,4.052235595703125,-0.3262800872325897,-0.9656697511672974,0.3592851758003235
1780626037078264300,4.062264404296875,-0.2456136792898178,-1.2337206602096558,0.5691855549812317
1780626037088294100,4.072294189453125,-0.13929496705532074,-1.4650182723999023,0.5161934494972229
1780626037098323500,4.082323486328125,0.017616599798202515,-1.488882303237915,0.26393359899520874
1780626037108353300,4.092353271484375,0.18395684659481049,-1.1537245512008667,-0.05563746392726898
1780626037118383400,4.10238330078125,0.29936861991882324,-0.5669409036636353,-0.3877793848514557
1780626037128412200,4.112412109375,0.3273439407348633,0.0458827018737793,-0.6849815845489502
1780626037138442200,4.122442138671875,0.23723189532756805,0.46210387349128723,-0.7983694076538086
1780626037148471300,4.13247119140625,0.11938077211380005,0.46985551714897156,-0.6736149191856384
1780626037158501400,4.14250146484375,0.09878601133823395,0.03070240095257759,-0.41677889227867126
1780626037168531500,4.152531494140625,0.1785293072462082,-0.5156351923942566,-0.1923540234565735
1780626037178560300,4.162560302734375,0.24923187494277954,-0.6619879603385925,-0.10167855024337769
1780626037188590300,4.17259033203125,0.26879414916038513,-0.3410565257072449,-0.16943709552288055
1780626037198619400,4.182619384765625,0.31284376978874207,0.035584159195423126,-0.219805046916008
1780626037208649500,4.1926494140625,0.34982600808143616,0.1587979644536972,-0.2844330370426178
1780626037218679600,4.202679443359375,0.3110567331314087,0.18104055523872375,-0.30399200320243835
1780626037228708400,4.212708251953125,0.2577821910381317,0.27928292751312256,-0.11385375261306763
1780626037238738200,4.22273828125,0.17168273031711578,0.5173953771591187,0.2970224618911743
1780626037248767500,4.232767578125,0.0242487583309412,0.9175788164138794,0.8131651282310486
1780626037258797300,4.24279736328125,-0.18039466440677643,1.3195993900299072,1.3187130689620972
1780626037268827100,4.2528271484375,-0.3179834187030792,1.495351791381836,1.7278236150741577
1780626037278856200,4.262856201171875,-0.30601319670677185,1.3085695505142212,1.961187720298767
1780626037288886300,4.27288623046875,-0.17914152145385742,0.9411638379096985,1.965765118598938
1780626037298915300,4.282915283203125,-0.04158934950828552,0.6014503240585327,1.8107157945632935
1780626037308945400,4.2929453125,0.07770348340272903,0.40284237265586853,1.60245680809021
1780626037318975200,4.302975341796875,0.14728131890296936,0.40367797017097473,1.4278147220611572
1780626037329004300,4.31300439453125,0.15987756848335266,0.5870540738105774,1.3249528408050537
1780626037339034400,4.323034423828125,0.1389685571193695,0.7619646191596985,1.2777886390686035
1780626037349063400,4.3330634765625,0.09564505517482758,0.8711782097816467,1.252510666847229
1780626037359093500,4.343093505859375,0.01115954015403986,0.8844536542892456,1.1903940439224243
1780626037369123300,4.353123291015625,-0.10291030257940292,0.8147259950637817,1.0667922496795654
1780626037379152400,4.36315234375,-0.2107173502445221,0.6908584237098694,0.9021556973457336
1780626037389182200,4.37318212890625,-0.2658524215221405,0.5481929779052734,0.7751184105873108
1780626037399211500,4.38321142578125,-0.27790215611457825,0.4161638617515564,0.6895646452903748
1780626037409241000,4.393240966796875,-0.26971080899238586,0.3775126039981842,0.6294488310813904
1780626037419270400,4.4032705078125,-0.2740090787410736,0.42402344942092896,0.5912059545516968
1780626037429300200,4.41330029296875,-0.30238696932792664,0.5364563465118408,0.6179710626602173
1780626037439330300,4.423330322265625,-0.32181471586227417,0.6588253974914551,0.6948671936988831
1780626037449359400,4.433359375,-0.3057473301887512,0.7456191778182983,0.790216863155365
1780626037459389200,4.44338916015625,-0.2626325786113739,0.7756814956665039,0.8599838614463806
1780626037469418200,4.453418212890625,-0.17788203060626984,0.7400659918785095,0.8498311042785645
1780626037479448300,4.4634482421875,-0.09671760350465775,0.6968576312065125,0.7387592196464539
1780626037489478400,4.473478515625,-0.05904204025864601,0.6954209208488464,0.5871186256408691
1780626037499507500,4.483507568359375,-0.05825188010931015,0.7649954557418823,0.41406992077827454
1780626037509537300,4.493537353515625,-0.06416569650173187,0.8366600871086121,0.2547074258327484
1780626037519566300,4.50356640625,-0.053828805685043335,0.8752461075782776,0.14272907376289368
1780626037529596400,4.513596435546875,-0.040238477289676666,0.8491121530532837,0.09399927407503128
1780626037539626200,4.523626220703125,-0.04241853952407837,0.7436786890029907,0.1101635992527008
1780626037549655300,4.5336552734375,-0.0721340924501419,0.572494387626648,0.14033402502536774
1780626037559685000,4.54368505859375,-0.11154711246490479,0.37145331501960754,0.16316068172454834
1780626037569714400,4.55371435546875,-0.11057372391223907,0.2166440188884735,0.19103093445301056
1780626037579744300,4.563744140625,-0.09250497072935104,0.1335744708776474,0.20908355712890625
1780626037589774300,4.5737744140625,-0.05320470407605171,0.12111381441354752,0.20229223370552063
1780626037599803100,4.58380322265625,-0.0018272704910486937,0.20377056300640106,0.14933514595031738
1780626037609833200,4.593833251953125,0.07486670464277267,0.31815388798713684,0.022979073226451874
1780626037619862300,4.6038623046875,0.10191641002893448,0.3528730571269989,-0.1770671010017395
1780626037629892400,4.613892333984375,0.09461409598588943,0.27390483021736145,-0.4048542380332947
1780626037639922400,4.62392236328125,0.09223216027021408,0.11983989924192429,-0.6022675037384033
1780626037649951200,4.633951171875,0.10056732594966888,-0.024294905364513397,-0.7364268898963928
1780626037659981300,4.643981201171875,0.11807609349489212,-0.1553807109594345,-0.7923060059547424
1780626037670010400,4.65401025390625,0.13679039478302002,-0.24415798485279083,-0.7821686863899231
1780626037680040400,4.66404052734375,0.15978987514972687,-0.26308509707450867,-0.7421171069145203
1780626037690070300,4.6740703125,0.1776847243309021,-0.23189951479434967,-0.6979504227638245
1780626037700099300,4.684099365234375,0.18121996521949768,-0.16399556398391724,-0.6451981067657471
1780626037710129200,4.694129150390625,0.17399294674396515,-0.08714499324560165,-0.5920462012290955
1780626037720158500,4.704158447265625,0.1492103636264801,-0.018466386944055557,-0.5586518049240112
1780626037730188300,4.714188232421875,0.09529849886894226,0.0251949243247509,-0.5660831332206726
1780626037740218400,4.72421826171875,0.06511902809143066,0.03415459394454956,-0.6069234609603882
1780626037750247200,4.7342470703125,0.06897155940532684,0.0402899868786335,-0.6451547741889954
1780626037760277200,4.74427734375,0.0719093307852745,0.030725017189979553,-0.6546545028686523
1780626037770306300,4.754306396484375,0.07030344009399414,0.019547464326024055,-0.6331348419189453
1780626037780336400,4.76433642578125,0.06475875526666641,0.00842353980988264,-0.6366370320320129
1780626037790365200,4.774365234375,0.042871564626693726,-0.05748676508665085,-0.8137622475624084
1780626037800395300,4.784395263671875,0.04866602271795273,-0.2712074816226959,-1.3446078300476074
1780626037810425300,4.79442529296875,0.041311703622341156,-0.3723101317882538,-1.9247689247131348
1780626037820454400,4.804454345703125,0.03917565569281578,-0.19768649339675903,-2.052905559539795
1780626037830484500,4.814484375,-0.02364136278629303,0.16960324347019196,-1.801977515220642
1780626037840513300,4.82451318359375,-0.1274750828742981,0.5384243726730347,-1.4684243202209473
1780626037850543400,4.83454345703125,-0.18336604535579681,0.6531621813774109,-1.1472468376159668
1780626037860573200,4.8445732421875,-0.18869847059249878,0.45707571506500244,-0.8988476395606995
1780626037870602500,4.8546025390625,-0.13706164062023163,0.14401794970035553,-0.8105718493461609
1780626037880632300,4.86463232421875,-0.003405482042580843,-0.09824620187282562,-0.8505200743675232
1780626037890661000,4.8746611328125,0.11986265331506729,-0.2841081917285919,-0.9575972557067871
1780626037900691200,4.884691162109375,0.2218131422996521,-0.3468390703201294,-1.0635324716567993
1780626037910721300,4.89472119140625,0.290931761264801,-0.3612174689769745,-1.1162588596343994
1780626037920750300,4.904750244140625,0.2880081534385681,-0.47451287508010864,-1.047629952430725
1780626037930780400,4.914780517578125,0.17269769310951233,-0.5647802948951721,-0.9308885931968689
1780626037940809200,4.924809326171875,0.021811774000525475,-0.5746821761131287,-0.871924877166748
1780626037950839300,4.93483935546875,-0.05716986209154129,-0.5827600955963135,-0.8429630398750305
1780626037960869400,4.944869384765625,-0.04339897260069847,-0.5932099223136902,-0.8180440664291382
1780626037970898400,4.9548984375,0.03566299378871918,-0.6520570516586304,-0.7684155702590942
1780626037980928500,4.964928466796875,0.13594405353069305,-0.733148455619812,-0.6684205532073975
1780626037990957300,4.974957275390625,0.2043904960155487,-0.8303319811820984,-0.5111707448959351
1780626038000987400,4.9849873046875,0.2298887073993683,-0.9635809659957886,-0.2948381006717682
1780626038011017200,4.995017333984375,0.22103236615657806,-1.0707398653030396,-0.055537909269332886
1780626038021046500,5.005046630859375,0.2025010585784912,-1.158080816268921,0.19558833539485931
1780626038031076400,5.015076416015625,0.1567288190126419,-1.219657063484192,0.46232980489730835
1780626038041105200,5.025105224609375,0.08828450739383698,-1.243349552154541,0.7152392864227295
1780626038051135200,5.03513525390625,0.010852305218577385,-1.2621698379516602,0.933365523815155
1780626038061165300,5.045165283203125,-0.050941407680511475,-1.2546019554138184,1.091333031654358
1780626038071194400,5.0551943359375,-0.08268655091524124,-1.179582118988037,1.1762701272964478
1780626038081224200,5.06522412109375,-0.05796583369374275,-1.1323529481887817,1.2097009420394897
1780626038091253200,5.075253173828125,-0.0434606596827507,-1.1605491638183594,1.1593341827392578
1780626038101283300,5.085283447265625,-0.10818637162446976,-1.1316094398498535,0.9563165903091431
1780626038111312400,5.0953125,-0.10330239683389664,-0.7007076144218445,0.8697183132171631
1780626038121342500,5.105342529296875,0.22753764688968658,-0.06554804742336273,1.1311910152435303
1780626038131372300,5.115372314453125,0.768552839756012,0.12077835202217102,1.2557165622711182
1780626038141401300,5.1254013671875,1.2168339490890503,-0.17064443230628967,0.869963526725769
1780626038151431400,5.135431396484375,1.339225172996521,0.11488130688667297,0.2752082943916321
1780626038161460500,5.14546044921875,1.2819679975509644,1.161044716835022,-0.2043904811143875
1780626038171490300,5.155490234375,1.240910291671753,1.6707003116607666,-0.6785780787467957
1780626038181520100,5.16552001953125,1.3582978248596191,1.1296744346618652,-0.8633750677108765
1780626038191549200,5.175549072265625,1.4631805419921875,0.15085190534591675,-0.862356424331665
1780626038201579300,5.185579345703125,1.2496373653411865,-0.20000696182250977,-0.7605993747711182
1780626038211608300,5.1956083984375,0.7156932950019836,0.2282588928937912,-0.20155541598796844
1780626038221638100,5.20563818359375,0.3664018213748932,0.40771201252937317,0.5770708918571472
1780626038231668200,5.215668212890625,0.1710687279701233,0.336654394865036,1.3054457902908325
1780626038241697300,5.225697265625,0.0478365458548069,0.3949752151966095,1.6753052473068237
1780626038251727400,5.235727294921875,-0.009739132598042488,0.39513394236564636,1.5444236993789673
1780626038261756400,5.24575634765625,-0.03746462240815163,0.15119919180870056,1.0967735052108765
1780626038271786200,5.2557861328125,-0.028752092272043228,-0.12915737926959991,0.658542811870575
1780626038281816300,5.26581640625,0.031805429607629776,-0.20404121279716492,0.3955092430114746
1780626038291845400,5.275845458984375,0.11114472895860672,-0.15756213665008545,0.2239236682653427
1780626038301875500,5.28587548828125,0.1766020953655243,-0.0964595302939415,0.1436394304037094
1780626038311904500,5.295904541015625,0.23181289434432983,-0.0982518345117569,0.1781768947839737
1780626038321934300,5.305934326171875,0.2945447564125061,-0.14303484559059143,0.28549739718437195
1780626038331964200,5.315964111328125,0.3483520746231079,-0.1358804702758789,0.43668344616889954
1780626038341993200,5.3259931640625,0.37235888838768005,-0.03539807349443436,0.6203973293304443
1780626038352023300,5.336023193359375,0.3713260889053345,0.0679168626666069,0.7745962142944336
1780626038362052000,5.346052001953125,0.3520774245262146,0.11520686000585556,0.8378394842147827
1780626038372082200,5.356082275390625,0.30964207649230957,0.10581761598587036,0.7768797278404236
1780626038382112300,5.3661123046875,0.24208752810955048,0.07213843613862991,0.5901798009872437
1780626038392141300,5.376141357421875,0.16348940134048462,0.04006225988268852,0.34297773241996765
1780626038402171400,5.38617138671875,0.11171701550483704,0.017922382801771164,0.12510305643081665
1780626038412200200,5.3962001953125,0.10337785631418228,0.009532625786960125,-0.016353143379092216
1780626038422230300,5.406230224609375,0.12105116993188858,0.033620525151491165,-0.07223326712846756
1780626038432260400,5.41626025390625,0.14045782387256622,0.08848478645086288,-0.06855179369449615
1780626038442289400,5.426289306640625,0.13457995653152466,0.14619149267673492,-0.02796122618019581
1780626038452319500,5.436319580078125,0.11131494492292404,0.18803243339061737,0.04900795966386795
1780626038462348300,5.446348388671875,0.073446124792099,0.2055637538433075,0.14047369360923767
1780626038472378400,5.45637841796875,0.03285209834575653,0.19822435081005096,0.23627345263957977
1780626038482407400,5.466407470703125,0.004913529846817255,0.1539652943611145,0.3336889445781708
1780626038492437200,5.476437255859375,-0.019584622234106064,0.08085672557353973,0.42488864064216614
1780626038502467000,5.486467041015625,-0.04154437035322189,-0.011877445504069328,0.49789294600486755
1780626038512496000,5.49649609375,-0.04294972121715546,-0.08214681595563889,0.5524102449417114
1780626038522526200,5.506526123046875,-0.010363184846937656,-0.11015152931213379,0.5734764933586121
1780626038532555300,5.51655517578125,0.03808765858411789,-0.12467554211616516,0.5261046290397644
1780626038542585300,5.52658544921875,0.0750986710190773,-0.12081955373287201,0.4165209233760834
1780626038552615200,5.536615234375,0.08274007588624954,-0.08786080032587051,0.2724369764328003
1780626038562644200,5.546644287109375,0.04772529751062393,-0.058316588401794434,0.12945324182510376
1780626038572674300,5.55667431640625,-0.007691356353461742,-0.04746074229478836,0.014560484327375889
1780626038582703400,5.566703369140625,-0.040164392441511154,-0.06075223907828331,-0.05085691809654236
1780626038592733400,5.5767333984375,-0.03970126807689667,-0.08509725332260132,-0.07315769791603088
1780626038602763300,5.58676318359375,-0.034274909645318985,-0.12166167795658112,-0.0758659690618515
1780626038612792300,5.596792236328125,-0.022077633067965508,-0.14832763373851776,-0.0698632076382637
1780626038622822400,5.606822509765625,0.017544174566864967,-0.1345294713973999,-0.043011121451854706
1780626038632851500,5.6168515625,0.08931278437376022,-0.08983739465475082,-0.005414995830506086
1780626038642881300,5.62688134765625,0.11907494068145752,-0.02228550985455513,0.00988806039094925
1780626038652911000,5.6369111328125,0.05760545656085014,0.07256989181041718,0.030150189995765686
1780626038662940200,5.646940185546875,-0.040625620633363724,0.16580066084861755,0.09107721596956253
1780626038672970200,5.65697021484375,-0.10270816832780838,0.1646411269903183,0.13106325268745422
1780626038682999300,5.666999267578125,-0.14926369488239288,0.10319916158914566,0.1254309117794037
1780626038693029000,5.677029052734375,-0.164839968085289,0.053042471408843994,0.11532716453075409
1780626038703059200,5.68705908203125,-0.1514434665441513,0.005159901455044746,0.09466157108545303
1780626038713088300,5.697088134765625,-0.12802550196647644,-0.05356040596961975,0.051945000886917114
1780626038723118300,5.707118408203125,-0.10005655884742737,-0.10491100698709488,0.007841607555747032
1780626038733147400,5.7171474609375,-0.07819745689630508,-0.1198526918888092,-0.015767836943268776
1780626038743177200,5.72717724609375,-0.042698051780462265,-0.125753715634346,-0.011634345166385174
1780626038753207300,5.737207275390625,0.0034774320665746927,-0.13098523020744324,-0.0017050155438482761
1780626038763236400,5.747236328125,0.03833629935979843,-0.15029384195804596,-0.011808967217803001
1780626038773266400,5.757266357421875,0.03321876749396324,-0.1848507523536682,-0.05782466381788254
1780626038783295500,5.76729541015625,-0.0005627282662317157,-0.21161530911922455,-0.10772081464529037
1780626038793325300,5.7773251953125,-0.031695615500211716,-0.2137969732284546,-0.12629157304763794
1780626038803355100,5.787355224609375,-0.04724900797009468,-0.20100131630897522,-0.1241619661450386
1780626038813384200,5.79738427734375,-0.05099048092961311,-0.18416215479373932,-0.10796382278203964
1780626038823414300,5.807414306640625,-0.05781480669975281,-0.1620241403579712,-0.08242808282375336
1780626038833443000,5.817443115234375,-0.07435926049947739,-0.1303880214691162,-0.041408032178878784
1780626038843473200,5.82747314453125,-0.08358471840620041,-0.11085347086191177,0.0038558514788746834
1780626038853502200,5.837502197265625,-0.07967919111251831,-0.10080722719430923,0.055343277752399445
1780626038863532300,5.8475322265625,-0.06514540314674377,-0.10558513551950455,0.0944945216178894
1780626038873562400,5.857562255859375,-0.07658394426107407,-0.12793198227882385,0.11289190500974655
1780626038883591200,5.867591064453125,-0.12133001536130905,-0.14095717668533325,0.10134653747081757
1780626038893621200,5.877621337890625,-0.17474210262298584,-0.14746807515621185,0.07403555512428284
1780626038903650300,5.887650390625,-0.21084490418434143,-0.15151119232177734,0.061601728200912476
1780626038913680400,5.897680419921875,-0.2268369197845459,-0.13138727843761444,0.07735832035541534
1780626038923710500,5.90771044921875,-0.20285266637802124,-0.09368963539600372,0.11613550782203674
1780626038933739300,5.9177392578125,-0.1742682307958603,-0.04455246403813362,0.14222761988639832
1780626038943769300,5.927769287109375,-0.15577071905136108,0.0033282418735325336,0.14245371520519257
1780626038953798400,5.93779833984375,-0.16122274100780487,0.023071054369211197,0.13341495394706726
1780626038963828200,5.947828125,-0.14768603444099426,-0.0053217727690935135,0.12396152317523956
1780626038973858300,5.9578583984375,-0.120303675532341,-0.06543571501970291,0.10207299888134003
1780626038983887000,5.96788720703125,-0.10646289587020874,-0.12092119455337524,0.06346069276332855
1780626038993917200,5.977917236328125,-0.10046705603599548,-0.1515323668718338,0.016065215691924095
1780626039003946200,5.9879462890625,-0.10180877894163132,-0.16638317704200745,-0.021015064790844917
1780626039013976300,5.997976318359375,-0.11201827228069305,-0.16916564106941223,-0.033759620040655136
1780626039024006400,6.00800634765625,-0.1216593012213707,-0.1699610948562622,-0.0111428527161479
1780626039034035200,6.01803515625,-0.1328103244304657,-0.1697843372821808,0.040332090109586716
1780626039044065300,6.028065185546875,-0.13415788114070892,-0.19001877307891846,0.10060634464025497
1780626039054094300,6.03809423828125,-0.1357230246067047,-0.21723946928977966,0.1432504802942276
1780626039064124400,6.04812451171875,-0.13994193077087402,-0.264207124710083,0.13842104375362396
1780626039074154500,6.058154541015625,-0.1480427384376526,-0.3366251289844513,0.0728825181722641
1780626039084183300,6.068183349609375,-0.15408937633037567,-0.3970726728439331,-0.025410020723938942
1780626039094213000,6.078213134765625,-0.16171319782733917,-0.4287531077861786,-0.11744434386491776
1780626039104242400,6.088242431640625,-0.14665500819683075,-0.4266849458217621,-0.16873468458652496
1780626039114272300,6.098272216796875,-0.12298297137022018,-0.4071029722690582,-0.17986084520816803
1780626039124302300,6.10830224609375,-0.1082468256354332,-0.39688053727149963,-0.17589904367923737
1780626039134331100,6.1183310546875,-0.0934927687048912,-0.3880831301212311,-0.16365714371204376
1780626039144361200,6.128361328125,-0.076014444231987,-0.39114630222320557,-0.15003027021884918
1780626039154390300,6.138390380859375,-0.056556586176157,-0.4103783071041107,-0.14659985899925232
1780626039164420400,6.14842041015625,-0.05822430178523064,-0.4216710031032562,-0.14832060039043427
1780626039174450200,6.1584501953125,-0.06771980226039886,-0.4141377806663513,-0.14053817093372345
1780626039184479200,6.168479248046875,-0.07305411994457245,-0.391262024641037,-0.12764500081539154
1780626039194509300,6.17850927734375,-0.06818506121635437,-0.34149420261383057,-0.10648725181818008
1780626039204538400,6.188538330078125,-0.06848975270986557,-0.2671578526496887,-0.08439821749925613
1780626039214568400,6.198568359375,-0.07407626509666443,-0.18679246306419373,-0.06709831953048706
1780626039224597200,6.20859716796875,-0.08556307852268219,-0.1278563141822815,-0.05957469344139099
1780626039234627300,6.21862744140625,-0.08399736136198044,-0.09197269380092621,-0.06657610088586807
1780626039244657200,6.2286572265625,-0.07399186491966248,-0.09113246202468872,-0.07815073430538177
1780626039254686500,6.2386865234375,-0.05631034076213837,-0.14019694924354553,-0.08891869336366653
1780626039264716300,6.24871630859375,-0.03460748866200447,-0.1945207715034485,-0.09030158817768097
1780626039274745300,6.258745361328125,-0.02113494463264942,-0.18983949720859528,-0.08516859263181686
1780626039284775200,6.268775146484375,-0.009336608462035656,-0.1434062272310257,-0.08559416979551315
1780626039294805200,6.27880517578125,-0.0003654838656075299,-0.08877813071012497,-0.08465193957090378
1780626039304834300,6.288834228515625,0.01570821739733219,-0.02112470380961895,-0.07667650282382965
1780626039314864000,6.298864013671875,0.026914533227682114,0.06087242811918259,-0.06357082724571228
1780626039324893200,6.30889306640625,0.00835946574807167,0.12162241339683533,-0.048788849264383316
1780626039334923300,6.31892333984375,-0.044693946838378906,0.12721917033195496,-0.015395920723676682
1780626039344953300,6.328953369140625,-0.07623403519392014,0.12993478775024414,0.030364377424120903
1780626039354982400,6.338982421875,-0.09263377636671066,0.1127675250172615,0.08286060392856598
1780626039365012200,6.34901220703125,-0.07026465237140656,0.09931717067956924,0.1069265604019165
1780626039375041500,6.35904150390625,-0.04429803043603897,0.05720513314008713,0.11559781432151794
1780626039385071600,6.369071533203125,-0.0407245047390461,-0.07624207437038422,0.14749765396118164
1780626039395101400,6.379101318359375,-0.012954924255609512,-0.24596187472343445,0.16570568084716797
1780626039405130800,6.389130859375,0.058994852006435394,-0.35473060607910156,0.12622615694999695
1780626039415160300,6.399160400390625,0.14003297686576843,-0.34926339983940125,0.01692521944642067
1780626039425189400,6.409189453125,0.18105700612068176,-0.2884658873081207,-0.1362890750169754
1780626039435219500,6.419219482421875,0.17882861196994781,-0.31627148389816284,-0.25128206610679626
1780626039445249500,6.42924951171875,0.1861848086118698,-0.3910636901855469,-0.3250737190246582
1780626039455278600,6.439278564453125,0.17551031708717346,-0.4142531752586365,-0.3632237911224365
1780626039465308400,6.449308349609375,0.1415470391511917,-0.4099588096141815,-0.37418922781944275
1780626039475337500,6.45933740234375,0.09072965383529663,-0.4487732946872711,-0.3573785722255707
1780626039485367600,6.469367431640625,0.05856099724769592,-0.47761037945747375,-0.334440678358078
1780626039495396600,6.479396728515625,0.021086862310767174,-0.47512590885162354,-0.3141987919807434
1780626039505426400,6.489426513671875,-0.007983893156051636,-0.4829093813896179,-0.2595367133617401
1780626039515456500,6.49945654296875,-0.0062221866101026535,-0.47509440779685974,-0.17927220463752747
1780626039525485600,6.509485595703125,0.005494922399520874,-0.45864138007164,-0.10779056698083878
1780626039535515600,6.519515625,-0.00995346624404192,-0.5385650396347046,-0.019446253776550293
1780626039545545500,6.52954541015625,-0.004091316368430853,-0.6278834939002991,0.008424792438745499
1780626039555574500,6.539574462890625,0.013988884165883064,-0.64200758934021,-0.050274740904569626
1780626039565604400,6.549604248046875,-0.004639394581317902,-0.6679044365882874,-0.0980241522192955
1780626039575633400,6.55963330078125,0.0010933256708085537,-0.6393944621086121,-0.12237609922885895
1780626039585663500,6.56966357421875,0.020020142197608948,-0.5661342144012451,-0.14025653898715973
1780626039595692500,6.579692626953125,0.023118996992707253,-0.5281655192375183,-0.17096571624279022
1780626039605722400,6.589722412109375,0.019412603229284286,-0.5156044960021973,-0.2435113787651062
1780626039615752400,6.59975244140625,0.02112075500190258,-0.4760616421699524,-0.3445378541946411
1780626039625781500,6.609781494140625,0.023175625130534172,-0.4330177903175354,-0.4038705825805664
1780626039635811600,6.6198115234375,0.04277707263827324,-0.39758071303367615,-0.3918667435646057
1780626039645840400,6.62984033203125,0.0732891783118248,-0.4091481566429138,-0.34640762209892273
1780626039655870500,6.639870361328125,0.09883768111467361,-0.45173025131225586,-0.3420981168746948
1780626039665900500,6.649900634765625,0.10790281742811203,-0.47851845622062683,-0.33726659417152405
1780626039675929600,6.6599296875,0.11323579400777817,-0.44048452377319336,-0.2644323408603668
1780626039685959700,6.669959716796875,0.1255267858505249,-0.3490437865257263,-0.14535844326019287
1780626039695988500,6.679988525390625,0.16059610247612,-0.27235299348831177,-0.048753876239061356
1780626039706018600,6.6900185546875,0.20919077098369598,-0.28268012404441833,-0.027139024809002876
1780626039716048400,6.70004833984375,0.2204815149307251,-0.2963639795780182,-0.08391229063272476
1780626039726077400,6.710077392578125,0.20964577794075012,-0.23610393702983856,-0.1554410606622696
1780626039736107500,6.720107421875,0.19698014855384827,-0.1208222508430481,-0.19461578130722046
1780626039746136300,6.73013623046875,0.18924394249916077,-0.044985804706811905,-0.20262044668197632
1780626039756166400,6.74016650390625,0.16498787701129913,-0.037680525332689285,-0.17438825964927673
1780626039766196500,6.750196533203125,0.14833301305770874,-0.05339450761675835,-0.09597493708133698
1780626039776225500,6.7602255859375,0.15187235176563263,-0.08189992606639862,-0.032213807106018066
1780626039786255600,6.770255615234375,0.17027725279331207,-0.15594981610774994,-0.04157913848757744
1780626039796284400,6.780284423828125,0.18481145799160004,-0.2326488494873047,-0.11025220900774002
1780626039806314500,6.790314453125,0.16687346994876862,-0.26094499230384827,-0.1540730595588684
1780626039816344600,6.800344482421875,0.13261669874191284,-0.22184205055236816,-0.12778152525424957
1780626039826373600,6.81037353515625,0.10127442330121994,-0.14065143465995789,-0.052322663366794586
1780626039836403700,6.82040380859375,0.0833369642496109,-0.06209905073046684,0.043013300746679306
1780626039846432500,6.8304326171875,0.08463232219219208,-0.020246675238013268,0.12213395535945892
1780626039856462600,6.840462646484375,0.0957128256559372,-0.037654273211956024,0.16128243505954742
1780626039866491600,6.85049169921875,0.10213823616504669,-0.08830306679010391,0.15008385479450226
1780626039876521500,6.860521484375,0.10731995105743408,-0.14409124851226807,0.11210904270410538
1780626039886551600,6.870551513671875,0.10773594677448273,-0.1899157017469406,0.06214935705065727
1780626039896580400,6.880580322265625,0.12560255825519562,-0.21190010011196136,0.008192379027605057
1780626039906610400,6.8906103515625,0.13981525599956512,-0.1981225609779358,-0.04670530557632446
1780626039916639500,6.900639404296875,0.14387230575084686,-0.167993426322937,-0.09810378402471542
1780626039926669600,6.910669677734375,0.14120852947235107,-0.14602093398571014,-0.1295749694108963
1780626039936699600,6.92069970703125,0.13249966502189636,-0.14445509016513824,-0.11844195425510406
1780626039946728400,6.930728515625,0.12923596799373627,-0.1538264900445938,-0.07742659747600555
1780626039956758500,6.940758544921875,0.13742651045322418,-0.16655080020427704,-0.04746364429593086
1780626039966787600,6.95078759765625,0.145913228392601,-0.1861758679151535,-0.023759255185723305
1780626039976817700,6.960817626953125,0.1626993864774704,-0.22177620232105255,-0.011853326112031937
1780626039986847700,6.97084765625,0.1755751669406891,-0.24247044324874878,-0.027045132592320442
1780626039996876500,6.98087646484375,0.15983568131923676,-0.24530185759067535,-0.03448432683944702
1780626040006906600,6.99090673828125,0.12080173194408417,-0.23956941068172455,-0.010677795857191086
1780626040016935700,7.000935791015625,0.08209801465272903,-0.23933452367782593,0.04452154040336609
1780626040026965500,7.010965576171875,0.060985539108514786,-0.23515628278255463,0.11401726305484772
1780626040036995300,7.020995361328125,0.056164782494306564,-0.24612224102020264,0.16823863983154297
1780626040047024400,7.0310244140625,0.05091595649719238,-0.2813390791416168,0.18389563262462616
1780626040057054500,7.041054443359375,0.05372532829642296,-0.34411218762397766,0.15630820393562317
1780626040067083500,7.05108349609375,0.058699142187833786,-0.4157460927963257,0.10248889029026031
1780626040077113600,7.061113525390625,0.06778238713741302,-0.4757303297519684,0.046771302819252014
1780626040087143400,7.071143310546875,0.0821332260966301,-0.5001043081283569,-0.0016677537932991982
1780626040097172500,7.08117236328125,0.10213687270879745,-0.47734683752059937,-0.032351236790418625
1780626040107202600,7.09120263671875,0.12502939999103546,-0.4507543742656708,-0.055942051112651825
1780626040117231600,7.101231689453125,0.1536671668291092,-0.4504965841770172,-0.0912742093205452
1780626040127261700,7.11126171875,0.17640969157218933,-0.4797531068325043,-0.15990808606147766
1780626040137291500,7.12129150390625,0.1820475161075592,-0.5408315062522888,-0.2652978301048279
1780626040147320600,7.131320556640625,0.17550066113471985,-0.5768089890480042,-0.3531688153743744
1780626040157350700,7.1413505859375,0.16856126487255096,-0.5318295359611511,-0.39082032442092896
1780626040167379700,7.151379638671875,0.1813478320837021,-0.43088802695274353,-0.3733287751674652
1780626040177409500,7.161409423828125,0.21855725347995758,-0.33584246039390564,-0.3348061442375183
1780626040187439400,7.171439453125,0.2839309275150299,-0.26281917095184326,-0.32097142934799194
1780626040197468400,7.181468505859375,0.3340478837490082,-0.24490036070346832,-0.33522120118141174
1780626040207498500,7.19149853515625,0.37038686871528625,-0.21936750411987305,-0.3604847192764282
1780626040217527600,7.201527587890625,0.4174390733242035,-0.17034457623958588,-0.3965093195438385
1780626040227557400,7.211557373046875,0.44969606399536133,-0.11373938620090485,-0.48484212160110474
1780626040237587500,7.22158740234375,0.4158230423927307,-0.05609020218253136,-0.5932416915893555
1780626040247616500,7.231616455078125,0.33647283911705017,0.06611879914999008,-0.6604316234588623
1780626040257646600,7.241646484375,0.2705675959587097,0.28252753615379333,-0.6457762718200684
1780626040267675600,7.251675537109375,0.24460723996162415,0.5381296873092651,-0.5350884795188904
1780626040277705500,7.26170556640625,0.24714258313179016,0.6684445142745972,-0.377498060464859
1780626040287734500,7.271734619140625,0.23995277285575867,0.6987307071685791,-0.2773631513118744
1780626040297764600,7.2817646484375,0.22920185327529907,0.6904120445251465,-0.25766855478286743
1780626040307794700,7.291794677734375,0.1980949342250824,0.7053385972976685,-0.3210838735103607
1780626040317823500,7.301823486328125,0.13692158460617065,0.7475239038467407,-0.4319249093532562
1780626040327853600,7.311853515625,0.00631374679505825,0.720917284488678,-0.5334939956665039
1780626040337882600,7.321882568359375,-0.1198686882853508,0.6889606714248657,-0.5467587113380432
1780626040347912400,7.331912353515625,-0.17166461050510406,0.6933692097663879,-0.4157892167568207
1780626040357942500,7.341942626953125,-0.15093934535980225,0.683495283126831,-0.20043720304965973
1780626040367971300,7.351971435546875,-0.07587818056344986,0.5408838391304016,-0.01878114603459835
1780626040378001400,7.36200146484375,-0.020607471466064453,0.4719513952732086,0.05474633350968361
1780626040388030500,7.372030517578125,-0.04881886765360832,0.5505383014678955,0.04500116780400276
1780626040398060500,7.382060546875,-0.11310411244630814,0.660778284072876,-0.006799711380153894
1780626040408090600,7.392090576171875,-0.14634785056114197,0.6211215257644653,-0.1308448612689972
1780626040418119400,7.402119384765625,-0.15707026422023773,0.479086309671402,-0.2668168246746063
1780626040428149500,7.4121494140625,-0.15407679975032806,0.34187933802604675,-0.3771800100803375
1780626040438178600,7.422178466796875,-0.13581949472427368,0.2644830346107483,-0.3906165659427643
1780626040448208600,7.432208740234375,-0.0863366350531578,0.23626071214675903,-0.3028552830219269
1780626040458238700,7.44223876953125,-0.023376576602458954,0.17516539990901947,-0.21522212028503418
1780626040468267500,7.452267578125,0.020554225891828537,0.19056151807308197,-0.19424377381801605
1780626040478297600,7.462297607421875,-0.007563695311546326,0.30568355321884155,-0.21452027559280396
1780626040488326700,7.47232666015625,-0.0822942927479744,0.5014017224311829,-0.17613351345062256
1780626040498356500,7.4823564453125,-0.10941752046346664,0.5877153277397156,-0.1123015284538269
1780626040508386600,7.492386474609375,-0.09333563596010208,0.5179083347320557,-0.04368986561894417
1780626040518415400,7.502415283203125,-0.054253481328487396,0.34755873680114746,0.011230108328163624
1780626040528445400,7.512445556640625,0.011465221643447876,0.2203778326511383,0.06539162993431091
1780626040538474500,7.522474609375,0.09571158140897751,0.19477565586566925,0.10782822966575623
1780626040548504600,7.532504638671875,0.17926374077796936,0.21913079917430878,0.12300532311201096
1780626040558534700,7.54253466796875,0.24490666389465332,0.28097817301750183,0.06792475283145905
1780626040568563500,7.5525634765625,0.2771415114402771,0.376226007938385,-0.018640682101249695
1780626040578593500,7.562593505859375,0.23564356565475464,0.4803202748298645,-0.10649456083774567
1780626040588622600,7.57262255859375,0.14706896245479584,0.6187796592712402,-0.12358646094799042
1780626040598652700,7.582652587890625,0.07328448444604874,0.728943943977356,-0.07255576550960541
1780626040608682800,7.592682861328125,0.04103614017367363,0.7234808802604675,0.013588730245828629
1780626040618711600,7.602711669921875,0.04932043328881264,0.669123113155365,0.12571872770786285
1780626040628741400,7.612741455078125,0.08784758299589157,0.6064608693122864,0.2371646910905838
1780626040638770700,7.622770751953125,0.12424246966838837,0.5550187230110168,0.2947651445865631
1780626040648800500,7.632800537109375,0.1353750079870224,0.5338724255561829,0.2762649655342102
1780626040658830600,7.64283056640625,0.12252978980541229,0.5305986404418945,0.22040699422359467
1780626040668859400,7.652859375,0.0865158662199974,0.5087697505950928,0.1507745385169983
1780626040678889500,7.662889404296875,0.041369691491127014,0.49283263087272644,0.10439290851354599
1780626040688918500,7.67291845703125,-0.0008637363789603114,0.46823713183403015,0.08571474999189377
1780626040698948600,7.682948486328125,-0.028781654313206673,0.4327712953090668,0.06834454834461212
1780626040708977400,7.692977294921875,-0.02986018732190132,0.4096599519252777,0.08226708322763443
1780626040719007500,7.703007568359375,-0.02040410041809082,0.39691483974456787,0.07927954941987991
1780626040729037600,7.71303759765625,-0.0028982365038245916,0.39577123522758484,0.0813121572136879
1780626040739066600,7.723066650390625,-0.006831322330981493,0.3815176784992218,0.10471589863300323
1780626040749096700,7.7330966796875,-0.029570190235972404,0.34474846720695496,0.10290255397558212
1780626040759125500,7.74312548828125,-0.057375453412532806,0.31337350606918335,0.0615663006901741
1780626040769155600,7.753155517578125,-0.09262019395828247,0.3239053189754486,-0.013543160632252693
1780626040779185400,7.763185302734375,-0.13412980735301971,0.36860939860343933,-0.0403398834168911
1780626040789214700,7.773214599609375,-0.1676517277956009,0.3831106126308441,-0.020941583439707756
1780626040799244500,7.78324462890625,-0.18436786532402039,0.38226401805877686,0.031066488474607468
1780626040809273600,7.793273681640625,-0.1970028579235077,0.3560601472854614,0.07224105298519135
1780626040819303400,7.803303466796875,-0.20826099812984467,0.3346113860607147,0.09628285467624664
1780626040829333500,7.81333349609375,-0.21584461629390717,0.3025245666503906,0.10857734084129333
1780626040839362600,7.823362548828125,-0.21328163146972656,0.23383638262748718,0.1212877631187439
1780626040849392400,7.833392333984375,-0.21606597304344177,0.16591431200504303,0.1087392121553421
1780626040859421400,7.84342138671875,-0.20585514605045319,0.10519105941057205,0.08661633729934692
1780626040869451500,7.853451416015625,-0.1893283724784851,0.04005865752696991,0.04914645850658417
1780626040879481600,7.863481689453125,-0.1633220613002777,-0.013691922649741173,-0.025360265746712685
1780626040889510700,7.8735107421875,-0.14115668833255768,-0.05201265215873718,-0.09072314947843552
1780626040899540500,7.88354052734375,-0.12530608475208282,-0.05042407661676407,-0.12706811726093292
1780626040909569500,7.893569580078125,-0.09616425633430481,-0.07926865667104721,-0.14214061200618744
1780626040919599600,7.903599609375,-0.0623524934053421,-0.12788280844688416,-0.16192708909511566
1780626040929629400,7.91362939453125,-0.04212714359164238,-0.1725071668624878,-0.20759034156799316
1780626040939658800,7.92365869140625,-0.037463776767253876,-0.19943666458129883,-0.2603144943714142
1780626040949688300,7.933688232421875,-0.03988698869943619,-0.21012260019779205,-0.3212505578994751
1780626040959717600,7.943717529296875,-0.04760775715112686,-0.23150698840618134,-0.39242541790008545
1780626040969747500,7.95374755859375,-0.04289447143673897,-0.19081655144691467,-0.3786117136478424
1780626040979777500,7.963777587890625,-0.02011246047914028,-0.13158012926578522,-0.27670904994010925
1780626040989806300,7.973806396484375,-0.00016816228162497282,-0.07502094656229019,-0.15553027391433716
1780626040999836400,7.98383642578125,0.023524915799498558,-0.011900306679308414,-0.07183990627527237
1780626041009865500,7.993865478515625,0.02959572523832321,0.052293919026851654,-0.0834900513291359
1780626041019895600,8.0038955078125,0.0036831668112426996,0.10705463588237762,-0.15428300201892853
1780626041029925600,8.013925537109374,-0.03741172328591347,0.14575235545635223,-0.20264007151126862
1780626041039954400,8.023954345703125,-0.08860864490270615,0.17627105116844177,-0.19968943297863007
1780626041049984500,8.033984619140625,-0.09339914470911026,0.1412355750799179,-0.2247106432914734
1780626041060013600,8.044013671875,-0.07059066742658615,0.12178927659988403,-0.22047372162342072
1780626041070043600,8.054043701171874,-0.03850703313946724,0.10002858191728592,-0.18561747670173645
1780626041080073500,8.064073486328125,0.008188564330339432,0.07292479276657104,-0.13788136839866638
1780626041090102500,8.0741025390625,0.0483049713075161,0.047411687672138214,-0.11023961007595062
1780626041100132400,8.08413232421875,0.056115757673978806,0.050556350499391556,-0.11353100836277008
1780626041110161700,8.09416162109375,0.04877140372991562,0.03312370553612709,-0.11893061548471451
1780626041120191500,8.10419140625,0.04095848649740219,-0.029309846460819244,-0.12705165147781372
1780626041130220300,8.11422021484375,0.03304193541407585,-0.10278622806072235,-0.11591885983943939
1780626041140250400,8.12425048828125,0.009764483198523521,-0.13205119967460632,-0.07548685371875763
1780626041150280400,8.134280517578125,-0.008641155436635017,-0.143618643283844,-0.03202193230390549
1780626041160309500,8.1443095703125,-0.015901464968919754,-0.14916573464870453,0.009730575606226921
1780626041170339600,8.154339599609376,-0.005255145952105522,-0.13187269866466522,0.04246809333562851
1780626041180368400,8.164368408203124,0.023846812546253204,-0.10015285760164261,0.0626913383603096
1780626041190398500,8.1743984375,0.053944431245326996,-0.0686379224061966,0.04537271335721016
1780626041200428500,8.184428466796875,0.0716581791639328,-0.005391036160290241,0.023740921169519424
1780626041210457600,8.19445751953125,0.08389504253864288,0.04984637349843979,0.01412147842347622
1780626041220487700,8.20448779296875,0.09802471101284027,0.07387128472328186,-0.016811668872833252
1780626041230516500,8.2145166015625,0.09052050113677979,0.1216898113489151,-0.049471959471702576
1780626041240546600,8.224546630859376,0.05385753884911537,0.17077244818210602,-0.058911822736263275
1780626041250576400,8.234576416015624,0.018082231283187866,0.20488567650318146,-0.037659261375665665
1780626041260605700,8.244605712890625,0.021159779280424118,0.19737209379673004,-0.008462230674922466
1780626041270635500,8.254635498046875,0.031918685883283615,0.1650964468717575,0.01934037171304226
1780626041280664300,8.264664306640626,0.021152323111891747,0.17486172914505005,0.011131176725029945
1780626041290694400,8.2746943359375,-0.007572961505502462,0.21884290874004364,0.0006212331354618073
1780626041300724500,8.284724365234375,-0.03604733943939209,0.23256532847881317,-0.026169484481215477
1780626041310753500,8.29475341796875,-0.058457039296627045,0.2431873381137848,-0.049386657774448395
1780626041320783600,8.30478369140625,-0.07384158670902252,0.22846750915050507,-0.039929237216711044
1780626041330812400,8.3148125,-0.08817585557699203,0.2157023847103119,-0.020931392908096313
1780626041340842500,8.324842529296875,-0.10969555377960205,0.20109805464744568,-0.0015320018865168095
1780626041350872600,8.33487255859375,-0.12895819544792175,0.17235241830348969,-0.007298810873180628
1780626041360901600,8.344901611328124,-0.1455153375864029,0.14129170775413513,-0.025927089154720306
1780626041370931700,8.354931640625,-0.17533235251903534,0.11875981837511063,-0.08078355342149734
1780626041380959500,8.36495947265625,-0.21635569632053375,0.13054057955741882,-0.10866178572177887
1780626041390989300,8.3749892578125,-0.2290627360343933,0.09829986095428467,-0.09242292493581772
1780626041401019400,8.385019287109374,-0.2270009070634842,0.06015300750732422,-0.05618209391832352
1780626041411048400,8.39504833984375,-0.1444551944732666,0.0574643574655056,-0.007538970559835434
1780626041421078500,8.40507861328125,-0.08503768593072891,0.017957694828510284,0.02352573722600937
1780626041431107300,8.415107421875,-0.05824210122227669,0.0005735461600124836,0.031242305412888527
1780626041441137400,8.425137451171874,-0.05204962193965912,-0.0004354659467935562,0.0445769838988781
1780626041451167200,8.435167236328125,-0.041917093098163605,-0.025593284517526627,0.06934784352779388
1780626041461196500,8.445196533203125,-0.04465135931968689,-0.07330194860696793,0.079081691801548
1780626041471226400,8.455226318359376,-0.07406341284513474,-0.14556768536567688,0.053045604377985
1780626041481255200,8.465255126953124,-0.12756845355033875,-0.16346599161624908,-0.008859308436512947
1780626041491285200,8.47528515625,-0.17485986649990082,-0.12840987741947174,-0.08616827428340912
1780626041501315300,8.4853154296875,-0.20025816559791565,-0.11563310027122498,-0.16587509214878082
1780626041511344400,8.495344482421874,-0.19991271197795868,-0.12681202590465546,-0.1954495906829834
1780626041521374500,8.50537451171875,-0.19591929018497467,-0.09686051309108734,-0.17030297219753265
1780626041531403300,8.5154033203125,-0.18415381014347076,-0.0625808909535408,-0.13499553501605988
1780626041541433300,8.525433349609376,-0.1837635338306427,-0.042416222393512726,-0.11423646658658981
1780626041551463400,8.53546337890625,-0.19956833124160767,-0.03899778425693512,-0.06669691205024719
1780626041561492500,8.545492431640625,-0.2095075100660324,-0.07951086014509201,-0.02095232903957367
1780626041571522600,8.5555224609375,-0.22423866391181946,-0.15820831060409546,0.00472213001921773
1780626041581551400,8.56555126953125,-0.26352590322494507,-0.2378019392490387,-0.03709083050489426
1780626041591581400,8.57558154296875,-0.33464616537094116,-0.275879830121994,-0.11400121450424194
1780626041601610500,8.585610595703125,-0.42631348967552185,-0.26604795455932617,-0.11045654118061066
1780626041611640600,8.595640625,-0.4723619222640991,-0.25810572504997253,-0.07724820822477341
1780626041621670400,8.60567041015625,-0.4755217432975769,-0.26388317346572876,-0.08187384903430939
1780626041631699200,8.61569921875,-0.4728369414806366,-0.2661568522453308,-0.11275539547204971
1780626041641729300,8.625729248046875,-0.4640997052192688,-0.2701222002506256,-0.11610130965709686
1780626041651758300,8.63575830078125,-0.44944486021995544,-0.2566668391227722,-0.10552962124347687
1780626041661788400,8.645788330078124,-0.4216073751449585,-0.24877136945724487,-0.11242907494306564
1780626041671818500,8.655818603515625,-0.41189301013946533,-0.23732098937034607,-0.13149483501911163
1780626041681847300,8.665847412109375,-0.4521014094352722,-0.2382752001285553,-0.16909466683864594
1780626041691877400,8.67587744140625,-0.5169867873191833,-0.254260778427124,-0.22492720186710358
1780626041701906400,8.685906494140625,-0.5892130732536316,-0.2228645235300064,-0.2683604061603546
1780626041711936500,8.6959365234375,-0.6215507984161377,-0.17353226244449615,-0.22478395700454712
1780626041721966600,8.705966552734376,-0.5707366466522217,-0.15329597890377045,-0.13235682249069214
1780626041731995400,8.715995361328124,-0.4623531401157379,-0.1752767115831375,-0.07786359637975693
1780626041742025500,8.726025390625,-0.32691025733947754,-0.14836150407791138,-0.053987160325050354
1780626041752054500,8.736054443359375,-0.21686682105064392,-0.10288909077644348,-0.04841609671711922
1780626041762084600,8.746084716796876,-0.16519643366336823,-0.06209639087319374,-0.06835784763097763
1780626041772114400,8.756114501953125,-0.16938017308712006,-0.034431103616952896,-0.12547217309474945
1780626041782143200,8.766143310546875,-0.1993604153394699,0.0063130902126431465,-0.18714216351509094
1780626041792173300,8.77617333984375,-0.2464405745267868,0.09828456491231918,-0.20924560725688934
1780626041802202400,8.786202392578126,-0.2869293987751007,0.17398597300052643,-0.21904391050338745
1780626041812232400,8.796232421875,-0.31258291006088257,0.23419718444347382,-0.17346996068954468
1780626041822262300,8.80626220703125,-0.31999635696411133,0.290648490190506,-0.08842378109693527
1780626041832291300,8.816291259765626,-0.3098827302455902,0.35946622490882874,-0.020973507314920425
1780626041842321400,8.8263212890625,-0.2702825367450714,0.4537276327610016,0.0332527831196785
1780626041852350500,8.8363505859375,-0.1969369351863861,0.510973334312439,0.08290582150220871
1780626041862380500,8.846380615234375,-0.12159477919340134,0.5111424326896667,0.10486598312854767
1780626041872410400,8.856410400390626,-0.08581789582967758,0.47983402013778687,0.06935630738735199
1780626041882439400,8.866439453125,-0.07641817629337311,0.45846307277679443,0.04345955699682236
1780626041892469500,8.876469482421875,-0.05602714791893959,0.42228803038597107,0.048020485788583755
1780626041902498600,8.88649853515625,-0.009219696745276451,0.3769133687019348,0.06616300344467163
1780626041912528600,8.896528564453124,0.07018251717090607,0.34729647636413574,0.10009574145078659
1780626041922558200,8.90655810546875,0.1644696146249771,0.3557046353816986,0.1425561159849167
1780626041932587300,8.916587158203125,0.2570408284664154,0.3642379343509674,0.17088709771633148
1780626041942617300,8.926617431640626,0.32409533858299255,0.36721909046173096,0.1952054649591446
1780626041952646400,8.936646484375,0.3442480266094208,0.3867235481739044,0.18227049708366394
1780626041962676200,8.94667626953125,0.31494659185409546,0.4020359218120575,0.14473776519298553
1780626041972705300,8.956705322265625,0.25859054923057556,0.37709230184555054,0.09822013974189758
1780626041982735400,8.9667353515625,0.20847947895526886,0.3882746398448944,0.07839956134557724
1780626041992765400,8.976765380859375,0.18664424121379852,0.41168779134750366,0.06710020452737808
1780626042002794500,8.98679443359375,0.2029278725385666,0.42529788613319397,0.07341189682483673
1780626042012824300,8.99682421875,0.236842080950737,0.47556278109550476,0.09514719247817993
1780626042022853400,9.006853271484376,0.27544915676116943,0.5651030540466309,0.12262530624866486
1780626042032883500,9.016883544921875,0.35434770584106445,0.6236891150474548,0.1335538625717163
1780626042042913500,9.02691357421875,0.43335407972335815,0.6648215055465698,0.12152421474456787
1780626042052942600,9.036942626953126,0.4875723123550415,0.730719804763794,0.12012553215026855
1780626042062972400,9.046972412109374,0.5366120338439941,0.7433975338935852,0.1278367042541504
1780626042073001500,9.05700146484375,0.5370652079582214,0.7152103185653687,0.11582346260547638
1780626042083031300,9.06703125,0.5134477615356445,0.6991221308708191,0.14377442002296448
1780626042093061400,9.077061279296874,0.49441805481910706,0.6873834133148193,0.213499516248703
1780626042103090200,9.087090087890624,0.4782918095588684,0.6315364241600037,0.2920936644077301
1780626042113120300,9.097120361328125,0.4738974869251251,0.5781922340393066,0.34048810601234436
1780626042123149300,9.1071494140625,0.49486085772514343,0.5396064519882202,0.340096652507782
1780626042133179400,9.117179443359374,0.5355110168457031,0.4997085928916931,0.29468148946762085
1780626042143209500,9.12720947265625,0.5865031480789185,0.46773460507392883,0.24971191585063934
1780626042153238300,9.13723828125,0.6533037424087524,0.4712132215499878,0.22425900399684906
1780626042163268400,9.147268310546876,0.7387028336524963,0.5091609358787537,0.2002841681241989
1780626042173297400,9.15729736328125,0.8133291602134705,0.5739938616752625,0.16394518315792084
1780626042183327500,9.167327392578125,0.854680597782135,0.6072604656219482,0.1168181449174881
1780626042193357600,9.177357666015626,0.8201333284378052,0.5674406290054321,0.07653063535690308
1780626042203386400,9.187386474609376,0.7135938405990601,0.46259966492652893,0.04466777294874191
1780626042213416400,9.19741650390625,0.56862872838974,0.3297584652900696,0.019366156309843063
1780626042223445500,9.207445556640625,0.4352850019931793,0.23943519592285156,-0.031588368117809296
1780626042233475300,9.217475341796876,0.33133888244628906,0.24977260828018188,-0.08670584112405777
1780626042243504400,9.22750439453125,0.2752101719379425,0.35113605856895447,-0.11625631153583527
1780626042253534200,9.2375341796875,0.22100554406642914,0.36851105093955994,-0.0776900127530098
1780626042263564300,9.247564208984375,0.18021082878112793,0.336794912815094,-0.06738585233688354
1780626042273593300,9.25759326171875,0.25005969405174255,0.4633296728134155,-0.28038573265075684
1780626042283623400,9.26762353515625,0.4138038754463196,0.6820425391197205,-0.594106912612915
1780626042293652200,9.27765234375,0.5364075899124146,0.8159071207046509,-0.7894765138626099
1780626042303682300,9.287682373046875,0.5583762526512146,0.857885479927063,-0.8616369366645813
1780626042313712400,9.29771240234375,0.45684149861335754,0.7691061496734619,-0.8356302380561829
1780626042323741400,9.307741455078125,0.2450442761182785,0.6467078328132629,-0.7893628478050232
1780626042333771500,9.317771484375,-0.058767516165971756,0.7919980883598328,-0.8029406666755676
1780626042343800300,9.32780029296875,-0.3417240381240845,0.9831040501594543,-0.8185093998908997
1780626042353830400,9.337830322265624,-0.510852038860321,0.8906816840171814,-0.775000274181366
1780626042363860500,9.347860595703125,-0.6072952747344971,0.6639441847801208,-0.7149645686149597
1780626042373889500,9.3578896484375,-0.6623673439025879,0.5139352679252625,-0.6774132251739502
1780626042383919400,9.36791943359375,-0.6865065097808838,0.4701981246471405,-0.6472585201263428
1780626042393948700,9.37794873046875,-0.6698357462882996,0.4703059792518616,-0.5805017948150635
1780626042403978500,9.387978515625,-0.6093175411224365,0.5079707503318787,-0.47032788395881653
1780626042414008600,9.398008544921876,-0.49867722392082214,0.5590366721153259,-0.32874390482902527
1780626042424037400,9.408037353515626,-0.35819652676582336,0.593916654586792,-0.1826852262020111
1780626042434067500,9.4180673828125,-0.2033039927482605,0.5749005079269409,-0.03547804057598114
1780626042444096500,9.428096435546875,-0.07073549926280975,0.49783656001091003,0.12018471956253052
1780626042454126600,9.438126708984376,0.010988393798470497,0.41455233097076416,0.2622084319591522
1780626042464156700,9.44815673828125,0.017724858596920967,0.31887930631637573,0.3856182396411896
1780626042474185500,9.458185546875,-0.0015306666027754545,0.19468456506729126,0.4801493287086487
1780626042484215600,9.468215576171875,-0.04176969826221466,0.09037972241640091,0.5578622221946716
1780626042494244600,9.47824462890625,-0.08228201419115067,0.039932429790496826,0.622477650642395
1780626042504274700,9.488274658203125,-0.09643005579710007,0.055448539555072784,0.7124205827713013
1780626042514304500,9.498304443359375,-0.09554889798164368,0.07041691243648529,0.8735570907592773
1780626042524333600,9.50833349609375,-0.08815010637044907,0.12954415380954742,1.0661201477050781
1780626042534363400,9.51836328125,-0.06429272890090942,0.24161769449710846,1.2619504928588867
1780626042544392700,9.528392822265625,-0.016556289047002792,0.3537736237049103,1.4464489221572876
1780626042554422500,9.538422607421875,0.04211980849504471,0.39910221099853516,1.6087535619735718
1780626042564451600,9.54845166015625,0.11388534307479858,0.34121575951576233,1.7579816579818726
1780626042574481400,9.5584814453125,0.17350290715694427,0.20888297259807587,1.9180647134780884
1780626042584511500,9.568511474609375,0.22044432163238525,0.07664824277162552,2.0440008640289307
1780626042594540500,9.57854052734375,0.23951660096645355,-0.06462597101926804,2.1357364654541016
1780626042604570600,9.588570556640626,0.227916419506073,-0.14614111185073853,2.218223810195923
1780626042614599400,9.598599365234374,0.1966162919998169,-0.15383045375347137,2.274874687194824
1780626042624629500,9.60862939453125,0.16893751919269562,-0.1354549080133438,2.273378849029541
1780626042634659600,9.61865966796875,0.16871069371700287,-0.15549713373184204,2.232118606567383
1780626042644688600,9.628688720703124,0.2190941572189331,-0.1946561336517334,2.1283156871795654
1780626042654718700,9.63871875,0.28766578435897827,-0.2335129827260971,1.9759116172790527
1780626042664747500,9.64874755859375,0.38728317618370056,-0.1530226767063141,1.7602709531784058
1780626042674777600,9.658777587890626,0.512643039226532,0.018270131200551987,1.4166475534439087
1780626042684807400,9.668807373046874,0.6513921022415161,0.3410007655620575,0.9507772922515869
1780626042694836700,9.678836669921875,0.6457937955856323,0.8219580054283142,0.47613292932510376
1780626042704866300,9.6888662109375,0.5601369738578796,1.258845329284668,0.20570461452007294
1780626042714895400,9.698895263671876,0.4515658915042877,1.3946316242218018,0.2692340910434723
1780626042724925400,9.708925537109375,0.29392513632774353,1.165243148803711,0.4865208864212036
1780626042734955500,9.71895556640625,0.06748145073652267,0.8106046915054321,0.6665034890174866
1780626042744984600,9.728984619140626,-0.29416903853416443,0.39173364639282227,0.8125907778739929
1780626042755014400,9.739014404296874,-0.6154443025588989,-0.09125111997127533,0.939976692199707
1780626042765043500,9.74904345703125,-0.7733002305030823,-0.5352392196655273,1.030440330505371
1780626042775073500,9.759073486328125,-0.7760498523712158,-0.7693745493888855,1.1252344846725464
1780626042785102600,9.7691025390625,-0.6819230914115906,-0.7860337495803833,1.2010164260864258
1780626042795132700,9.779132568359374,-0.5628967881202698,-0.6399420499801636,1.222886085510254
1780626042805162500,9.78916259765625,-0.487961083650589,-0.3534540832042694,1.1926288604736328
1780626042815191600,9.799191650390625,-0.45729297399520874,0.03888499364256859,1.1664878129959106
1780626042825221600,9.8092216796875,-0.49409839510917664,0.4917249083518982,1.2178024053573608
1780626042835250700,9.819250732421875,-0.5467681884765625,0.9653948545455933,1.3835145235061646
1780626042845280500,9.829280517578125,-0.5590753555297852,1.5288196802139282,1.5992223024368286
1780626042855310300,9.839310302734376,-0.5553983449935913,2.0884666442871094,1.7804468870162964
1780626042865339400,9.84933935546875,-0.5356467366218567,2.322861671447754,1.8080910444259644
1780626042875369500,9.859369384765625,-0.4538688063621521,1.8709427118301392,1.5199693441390991
1780626042885398500,9.8693984375,-0.34803318977355957,0.8481214046478271,1.0269510746002197
1780626042895428400,9.879428466796876,-0.33467167615890503,-0.14355120062828064,0.6607254147529602
1780626042905458400,9.88945849609375,-0.47085773944854736,-0.6419082880020142,0.5814839005470276
1780626042915487500,9.899487548828125,-0.6609511375427246,-0.7674070596694946,0.5334375500679016
1780626042925517600,9.909517578125,-0.7817015051841736,-0.9130289554595947,0.38308796286582947
1780626042935546600,9.919546630859376,-0.832963764667511,-1.0969880819320679,0.13025370240211487
1780626042945576400,9.929576416015625,-0.8226972222328186,-1.0289006233215332,-0.1610126495361328
1780626042955606500,9.9396064453125,-0.7442298531532288,-0.49199458956718445,-0.40929198265075684
1780626042965635600,9.949635498046876,-0.68002849817276,0.10844652354717255,-0.4134582281112671
1780626042975665700,9.959665771484374,-0.6529942750930786,0.40201902389526367,-0.19774548709392548
1780626042985694500,9.969694580078125,-0.6706169247627258,0.32653066515922546,0.10891591012477875
1780626042995724500,9.979724609375,-0.7660552859306335,0.257266640663147,0.3309953212738037
1780626043005754400,9.98975439453125,-0.9333212375640869,0.1980440616607666,0.42697829008102417
1780626043015783400,9.999783447265624,-1.1165704727172852,0.0998980700969696,0.44099050760269165
1780626043025813500,10.0098134765625,-1.2813972234725952,-0.1442680060863495,0.37832313776016235
1780626043035842300,10.01984228515625,-1.451495885848999,-0.4188637137413025,0.2594529986381531
1780626043045872400,10.029872314453126,-1.6506352424621582,-0.581912636756897,0.17159269750118256
1780626043055902500,10.03990234375,-1.9172964096069336,-0.7400458455085754,0.19268599152565002
1780626043065931500,10.049931640625,-2.09226655960083,-0.9216880798339844,0.25160709023475647
1780626043075961600,10.059961669921876,-2.108386754989624,-1.0223841667175293,0.2898296117782593
1780626043085990400,10.069990478515624,-1.9763450622558594,-0.9461489915847778,0.2817738354206085
1780626043096020500,10.0800205078125,-1.7112905979156494,-0.640332818031311,0.21975930035114288
1780626043106049500,10.090049560546875,-1.4076297283172607,-0.268396258354187,0.12768582999706268
1780626043116079600,10.10007958984375,-1.1464757919311523,-0.05511431768536568,-0.04611687362194061
1780626043126109700,10.110109619140625,-0.9029838442802429,0.13040494918823242,-0.3123339116573334
1780626043136138500,10.120138427734375,-0.7463493347167969,0.4164656400680542,-0.4987928569316864
1780626043146168600,10.13016845703125,-0.5505464673042297,0.7737981081008911,-0.5109901428222656
1780626043156197600,10.14019775390625,-0.3412984013557434,0.9541937112808228,-0.39596641063690186
1780626043166227500,10.1502275390625,-0.0897764191031456,0.9527094960212708,-0.3433210253715515
1780626043176257500,10.160257568359375,0.16780684888362885,0.8353329300880432,-0.4102352559566498
1780626043186286300,10.170286376953126,0.3723004460334778,0.7288784384727478,-0.5020103454589844
1780626043196316400,10.18031640625,0.5594016313552856,0.6788919568061829,-0.5660157203674316
1780626043206345500,10.190345458984375,0.7566960453987122,0.6288154721260071,-0.5893047451972961
1780626043216375600,10.20037548828125,0.8934173583984375,0.4885590970516205,-0.5675163865089417
1780626043226405600,10.210405517578126,1.0222617387771606,0.39001014828681946,-0.5719777345657349
1780626043236434400,10.220434326171874,1.1265368461608887,0.3979342579841614,-0.5485947132110596
1780626043246464500,10.230464599609375,1.224144458770752,0.610726535320282,-0.4797780215740204
1780626043256493600,10.24049365234375,1.3360270261764526,0.943960964679718,-0.43727344274520874
1780626043266523600,10.250523681640624,1.4524269104003906,1.2260003089904785,-0.46174973249435425
1780626043276553700,10.2605537109375,1.5429803133010864,1.320346474647522,-0.5742523074150085
1780626043286582500,10.27058251953125,1.4894309043884277,1.1525750160217285,-0.6985878944396973
1780626043296612600,10.280612548828126,1.2350127696990967,0.9213446378707886,-0.7186012864112854
1780626043306641700,10.2906416015625,0.8439401388168335,0.745943009853363,-0.5205382704734802
1780626043316671500,10.30067138671875,0.39637866616249084,0.46162405610084534,-0.28514164686203003
1780626043326701600,10.31070166015625,-0.03653893619775772,0.02458997629582882,-0.07488000392913818
1780626043336730400,10.32073046875,-0.39590126276016235,-0.4614434838294983,0.18454526364803314
1780626043346760400,10.330760498046875,-0.556839644908905,-0.811763346195221,0.4045533239841461
1780626043356789500,10.34078955078125,-0.5246971249580383,-0.8065619468688965,0.3756241798400879
1780626043366819600,10.350819580078126,-0.4189760386943817,-0.5019490122795105,0.13693493604660034
1780626043376850400,10.360850341796874,-0.2863360643386841,-0.20921920239925385,-0.15446172654628754
1780626043386879200,10.370879150390625,-0.16967734694480896,0.07992047071456909,-0.39744269847869873
1780626043396909300,10.380909423828125,-0.20081652700901031,0.5110405683517456,-0.4563194811344147
1780626043406938400,10.3909384765625,-0.30714163184165955,0.7191280126571655,-0.38314035534858704
1780626043416968400,10.400968505859375,-0.3872145414352417,0.5470971465110779,-0.24829204380512238
1780626043426998300,10.410998291015625,-0.4817273020744324,0.19275905191898346,-0.014218930155038834
1780626043437027300,10.42102734375,-0.5661551356315613,-0.09892792254686356,0.26809531450271606
1780626043447057200,10.43105712890625,-0.5294470191001892,-0.0646405816078186,0.41881173849105835
1780626043457086200,10.441086181640625,-0.3924596309661865,0.2541637718677521,0.4532080590724945
1780626043467116300,10.4511162109375,-0.20589905977249146,0.46137821674346924,0.49757418036460876
1780626043477145000,10.46114501953125,0.008080173283815384,0.33074116706848145,0.43072962760925293
1780626043487175200,10.471175048828124,0.19419331848621368,0.1367189586162567,0.20255929231643677
1780626043497205200,10.481205322265625,0.3236245810985565,0.0731998085975647,-0.0763520672917366
1780626043507234300,10.491234375,0.3890318274497986,0.05346525460481644,-0.36955252289772034
1780626043517264400,10.501264404296874,0.48473623394966125,0.12240716069936752,-0.6024021506309509
1780626043527293200,10.511293212890624,0.6411527395248413,0.22597137093544006,-0.6872957348823547
1780626043537323300,10.5213232421875,0.7537282705307007,0.254488468170166,-0.6495068669319153
1780626043547353300,10.531353271484376,0.7536827325820923,0.3042994439601898,-0.5732465386390686
1780626043557382400,10.54138232421875,0.6273434162139893,0.4542170464992523,-0.4704674482345581
1780626043567412500,10.55141259765625,0.4161249101161957,0.5895029902458191,-0.3610900938510895
1780626043577441300,10.561441162109375,0.1755487024784088,0.5220932364463806,-0.3163647949695587
1780626043587471400,10.571471435546876,-0.04614001885056496,0.5000385046005249,-0.32831013202667236
1780626043597501200,10.581501220703124,-0.20098236203193665,0.6621650457382202,-0.24795019626617432
1780626043607530200,10.5915302734375,-0.19045035541057587,0.6771085858345032,-0.11357614398002625
1780626043617560300,10.601560302734375,-0.03617577627301216,0.5280828475952148,-0.007782557513564825
1780626043627589000,10.611589111328126,0.2032080441713333,0.5112724304199219,0.0598532110452652
1780626043637619200,10.621619140625,0.43168240785598755,0.7108496427536011,0.07887913286685944
1780626043647649300,10.631649169921875,0.5592714548110962,0.8745455741882324,0.09190693497657776
1780626043657678300,10.64167822265625,0.5496180057525635,0.8282371759414673,0.09518848359584808
1780626043667708200,10.651708251953124,0.46667948365211487,0.6579835414886475,-0.031143145635724068
1780626043677737200,10.6617373046875,0.42071732878685,0.6472821831703186,-0.16714492440223694
1780626043687767300,10.671767333984375,0.4430852234363556,0.7101764678955078,-0.18995383381843567
1780626043697797400,10.68179736328125,0.6373894810676575,0.7322229146957397,-0.15758493542671204
1780626043707826400,10.691826416015624,0.883916437625885,0.6758501529693604,-0.09577030688524246
1780626043717856300,10.701856201171875,1.0440741777420044,0.7614921927452087,-0.0824296772480011
1780626043727885300,10.71188525390625,1.134061574935913,0.9132436513900757,-0.057005010545253754
1780626043737915400,10.721915283203124,1.1935662031173706,0.9285392165184021,0.002857524435967207
1780626043747945200,10.7319453125,1.2430503368377686,0.8951320052146912,0.024861278012394905
1780626043757974300,10.741974365234375,1.2321984767913818,0.8071014285087585,-0.03756694495677948
1780626043768004000,10.752004150390626,1.1533271074295044,0.667345404624939,-0.17286857962608337
1780626043778033200,10.762033203125,1.0749809741973877,0.5525670051574707,-0.30075615644454956
1780626043788063200,10.772063232421875,1.0333281755447388,0.6327586770057678,-0.33925625681877136
1780626043798093300,10.78209326171875,1.0266185998916626,0.7615622282028198,-0.357365220785141
1780626043808122000,10.7921220703125,1.0361024141311646,0.8741158843040466,-0.47904345393180847
1780626043818152200,10.802152099609375,1.0207133293151855,0.9464848041534424,-0.7277242541313171
1780626043828181200,10.81218115234375,0.9323453903198242,0.9775428771972656,-1.0393788814544678
1780626043838211300,10.82221142578125,0.8035184144973755,1.0879918336868286,-1.3449522256851196
1780626043848241400,10.832241455078124,0.5897735357284546,1.2986359596252441,-1.5647454261779785
1780626043858270200,10.842270263671875,0.2880765199661255,1.4971940517425537,-1.6638951301574707
1780626043868300300,10.85230029296875,-0.055331695824861526,1.6193873882293701,-1.672431468963623
1780626043878329300,10.862329345703126,-0.3783317506313324,1.6426310539245605,-1.7545760869979858
1780626043888359400,10.872359375,-0.6428025364875793,1.5702050924301147,-1.9556673765182495
1780626043898389200,10.88238916015625,-0.8137614727020264,1.3148081302642822,-2.1700000762939453
1780626043908418300,10.892418212890625,-0.9948238134384155,0.9456632733345032,-2.3374462127685547
1780626043918448000,10.9024482421875,-1.1003813743591309,0.674892783164978,-2.4745397567749023
1780626043928477200,10.912477294921874,-1.1172131299972534,0.6011303663253784,-2.6554765701293945
1780626043938507300,10.92250732421875,-1.0632761716842651,0.5422745943069458,-2.816584587097168
1780626043948537300,10.932537353515626,-0.9463096261024475,0.3941727578639984,-2.8859446048736572
1780626043958566100,10.942566162109374,-0.7288001775741577,0.07414177805185318,-2.8462958335876465
1780626043968596200,10.95259619140625,-0.5542571544647217,-0.21826079487800598,-2.7371134757995605
1780626043978625300,10.962625244140625,-0.539186954498291,-0.004263925366103649,-2.8244001865386963
1780626043988655400,10.9726552734375,-0.6777509450912476,0.5552936792373657,-3.2382283210754395
1780626043998685400,10.982685546875,-0.8674778938293457,0.9612593054771423,-3.6925435066223145
1780626044008714200,10.99271435546875,-1.1092443466186523,0.8856937289237976,-4.00567102432251
1780626044018744300,11.002744384765625,-1.350974440574646,0.5367695093154907,-4.337229251861572
1780626044028773400,11.0127734375,-1.5045043230056763,0.18082255125045776,-4.661469459533691
1780626044038803500,11.022803466796875,-1.656145453453064,-0.04389171674847603,-4.8374552726745605
1780626044048833300,11.032833251953125,-1.694718837738037,-0.1219845786690712,-4.607755184173584
1780626044058862300,11.0428623046875,-1.509130835533142,0.04115774482488632,-3.8858797550201416
1780626044068892200,11.05289208984375,-1.1928766965866089,0.5206729173660278,-2.8686065673828125
1780626044078921200,11.062921142578125,-0.957283616065979,0.9395624399185181,-1.721596121788025
1780626044088951300,11.072951416015625,-0.9984661936759949,0.666631817817688,-1.032170057296753
1780626044098981400,11.0829814453125,-1.0464860200881958,0.13976161181926727,-0.6484051942825317
1780626044109010200,11.09301025390625,-0.9169831871986389,-0.25336596369743347,-0.320595383644104
1780626044119040300,11.103040283203125,-0.7541025280952454,-0.5519605278968811,0.032953280955553055
1780626044129069300,11.1130693359375,-0.689051628112793,-0.44035351276397705,0.43652257323265076
1780626044139099400,11.123099365234374,-0.7347593307495117,-0.2649756669998169,0.8443779349327087
1780626044149129500,11.13312939453125,-0.9449970722198486,-0.013033629395067692,1.0875917673110962
1780626044159158300,11.143158203125,-1.2248255014419556,0.32579582929611206,0.9640153050422668
1780626044169188400,11.153188232421876,-1.4011942148208618,0.4894710183143616,0.5187033414840698
1780626044179217400,11.163217529296874,-1.465801477432251,0.49898937344551086,0.1014840304851532
1780626044189247500,11.17324755859375,-1.5203582048416138,0.4181661605834961,-0.06810873746871948
1780626044199277000,11.183277099609375,-1.5719798803329468,0.41550198197364807,-0.03773403912782669
1780626044209306400,11.193306396484376,-1.5992159843444824,0.6468137502670288,0.010905934497714043
1780626044219336200,11.203336181640625,-1.6256433725357056,0.8748154640197754,0.06860959529876709
1780626044229365200,11.213365234375,-1.644410490989685,0.9333586692810059,0.149332657456398
1780626044239395300,11.223395263671875,-1.6265873908996582,0.8604037761688232,0.19017945230007172
1780626044249425200,11.233425048828124,-1.5595674514770508,0.8436648845672607,0.08466221392154694
1780626044259454200,11.2434541015625,-1.467584490776062,0.7859145402908325,-0.07661961764097214
1780626044269484300,11.253484375,-1.3964890241622925,0.7026715874671936,-0.15720820426940918
1780626044279513300,11.263513427734376,-1.3740688562393188,0.7050290703773499,-0.07940424233675003
1780626044289543400,11.27354345703125,-1.3960833549499512,0.8220510482788086,0.15774865448474884
1780626044299572200,11.283572265625,-1.4299609661102295,0.9605144262313843,0.448192834854126
1780626044309602300,11.293602294921875,-1.4774658679962158,1.0611249208450317,0.7132018208503723
1780626044319632400,11.30363232421875,-1.5913467407226562,1.051114797592163,0.9184867143630981
1780626044329661400,11.313661376953124,-1.7634212970733643,0.8624961972236633,1.0093692541122437
1780626044339691300,11.323691162109375,-1.9727592468261719,0.5930896997451782,0.8771205544471741
1780626044349720300,11.33372021484375,-2.0588619709014893,0.42063602805137634,0.6402634382247925
1780626044359750100,11.343750244140624,-1.9501380920410156,0.35990798473358154,0.48997199535369873
1780626044369780200,11.3537802734375,-1.7579617500305176,0.40022289752960205,0.4544377028942108
1780626044379809000,11.36380908203125,-1.6214993000030518,0.569173276424408,0.48456069827079773
1780626044389838800,11.3738388671875,-1.5564697980880737,0.6875566244125366,0.6532213687896729
1780626044399868700,11.38386865234375,-1.748023271560669,0.5889323353767395,0.8765005469322205
1780626044409897700,11.393897705078125,-2.1786627769470215,0.4646260440349579,0.49975138902664185
1780626044419927800,11.403927734375,-2.4179933071136475,0.20118075609207153,0.1365957409143448
1780626044429956900,11.413956787109376,-2.334355592727661,-0.15303805470466614,0.3819149434566498
1780626044439986700,11.423986572265624,-2.1987485885620117,0.09194044023752213,0.47462400794029236
1780626044450015700,11.434015625,-1.890000343322754,0.3807612359523773,0.4007047116756439
1780626044460045800,11.4440458984375,-1.3634567260742188,0.44075825810432434,0.09437461942434311
1780626044470076000,11.454075927734374,-0.9658145308494568,0.3674033582210541,-0.15963901579380035
1780626044480105000,11.46410498046875,-0.8961911201477051,0.4278828799724579,-0.042950861155986786
1780626044490134800,11.474134765625,-0.9222422242164612,0.4301907420158386,0.0317070297896862
1780626044500163800,11.484163818359375,-0.9184940457344055,0.29656559228897095,0.03957214206457138
1780626044510194000,11.49419384765625,-0.8614214658737183,0.09397386014461517,0.13672558963298798
1780626044520223700,11.5042236328125,-0.8422507643699646,-0.04454371705651283,0.3653680384159088
1780626044530253000,11.514253173828125,-0.8043547868728638,0.07392566651105881,0.4561149775981903
1780626044540282600,11.52428271484375,-0.7312690615653992,0.31186673045158386,0.45069578289985657
1780626044550311700,11.534311767578124,-0.6642725467681885,0.5324949026107788,0.3861139118671417
1780626044560341800,11.544341796875,-0.6363162398338318,0.6375733613967896,0.35676559805870056
1780626044570371800,11.554371826171876,-0.6498634815216064,0.4784436821937561,0.3661487102508545
1780626044580400600,11.564400634765626,-0.6580621004104614,0.12111594527959824,0.37738922238349915
1780626044590430700,11.5744306640625,-0.6386353969573975,-0.1299905925989151,0.3621913492679596
1780626044600459800,11.584459716796875,-0.5799479484558105,-0.05755624920129776,0.391387015581131
1780626044610489900,11.59448974609375,-0.5573819279670715,0.0380706712603569,0.4729825556278229
1780626044620520000,11.60452001953125,-0.6409444808959961,0.10653290152549744,0.6626943945884705
1780626044630548700,11.614548828125,-0.7879608273506165,0.13570863008499146,0.8917107582092285
1780626044640578800,11.624578857421875,-0.9834243059158325,0.0739787295460701,1.0159422159194946
1780626044650607900,11.63460791015625,-1.130126714706421,-0.04808367043733597,1.0722804069519043
1780626044660638000,11.644637939453125,-1.2332777976989746,-0.1533818542957306,1.1456265449523926
1780626044670667800,11.654667724609375,-1.1842186450958252,-0.20743577182292938,1.167771339416504
1780626044680696800,11.66469677734375,-1.0795841217041016,-0.39668089151382446,1.1264657974243164
1780626044690726700,11.6747265625,-1.0983551740646362,-0.5258215665817261,1.095314860343933
1780626044700755700,11.684755615234375,-1.2320067882537842,-0.6768261194229126,1.0989216566085815
1780626044710785800,11.694785888671875,-1.3102827072143555,-0.8428134918212891,1.1014883518218994
1780626044720815900,11.70481591796875,-1.3127036094665527,-0.9384624361991882,1.1208977699279785
1780626044730844700,11.7148447265625,-1.2571218013763428,-0.9581512808799744,1.1191675662994385
1780626044740874800,11.724874755859375,-1.126522183418274,-0.8882665038108826,1.0250743627548218
1780626044750903800,11.73490380859375,-1.0890157222747803,-0.683427631855011,0.8577845692634583
1780626044760934000,11.744933837890626,-1.0170162916183472,-0.658764660358429,0.6352982521057129
1780626044770964000,11.7549638671875,-1.0097402334213257,-0.730201005935669,0.4162449538707733
1780626044780992800,11.76499267578125,-1.0151602029800415,-0.7470182776451111,0.23332267999649048
1780626044791022800,11.77502294921875,-1.0366756916046143,-0.7399113774299622,0.14497417211532593
1780626044801052000,11.785052001953124,-1.0224478244781494,-0.6624782681465149,0.1832360476255417
1780626044811082000,11.79508203125,-0.9155152440071106,-0.5690327882766724,0.3315719962120056
1780626044821111800,11.80511181640625,-0.7533527612686157,-0.4164890646934509,0.46538132429122925
1780626044831140900,11.815140869140626,-0.5105963349342346,-0.271188348531723,0.48586714267730713
1780626044841170700,11.825170654296874,-0.29826268553733826,0.04823999106884003,0.423547625541687
1780626044851199700,11.83519970703125,-0.24246585369110107,0.3886880576610565,0.3883567452430725
1780626044861229800,11.845229736328125,-0.357757031917572,0.5165114998817444,0.49105650186538696
1780626044871260000,11.855260009765624,-0.5113236308097839,0.47362077236175537,0.6563927531242371
1780626044881288700,11.865288818359375,-0.5878676772117615,0.43023720383644104,0.7230049967765808
1780626044891318800,11.87531884765625,-0.5543501973152161,0.4084775745868683,0.6461520195007324
1780626044901347800,11.885347900390625,-0.47074928879737854,0.3721550405025482,0.48793625831604004
1780626044911378000,11.8953779296875,-0.347499281167984,0.3554615378379822,0.3104557394981384
1780626044921407700,11.90540771484375,-0.15847176313400269,0.39073827862739563,0.17911867797374725
1780626044931436800,11.915436767578125,0.06400737166404724,0.5058424472808838,0.10331179946660995
1780626044941467000,11.925466796875,0.260214626789093,0.7221591472625732,0.0747903361916542
1780626044951496000,11.935495849609374,0.405124694108963,0.9424325823783875,0.0775374248623848
1780626044961526000,11.945526123046875,0.6167151927947998,1.1852500438690186,0.09115283936262131
1780626044971555600,11.9555556640625,0.8929104804992676,1.3812185525894165,0.18651877343654633
1780626044981585000,11.9655849609375,1.146965742111206,1.4694410562515259,0.2942313849925995
1780626044991614700,11.97561474609375,1.2543829679489136,1.490193486213684,0.4119204580783844
1780626045001644800,11.985644775390625,1.247377634048462,1.4103115797042847,0.451558917760849
1780626045011673900,11.995673828125,1.253787636756897,1.2098610401153564,0.3922918736934662
1780626045021703700,12.00570361328125,1.153144121170044,0.9412205815315247,0.24905513226985931
1780626045031732700,12.015732666015625,0.9504804015159607,0.5922337770462036,0.03598784655332565
1780626045041762800,12.0257626953125,0.5787832736968994,0.26127904653549194,-0.3319738209247589
1780626045051792000,12.0357919921875,0.12952996790409088,-0.18256135284900665,-0.840412437915802
1780626045061821700,12.04582177734375,-0.217728391289711,-0.5220853686332703,-1.1609441041946411
1780626045071851800,12.055851806640625,-0.3353426456451416,-0.7699190974235535,-1.1639337539672852
1780626045081880800,12.065880859375,-0.2539110481739044,-0.8579805493354797,-0.9476912021636963
1780626045091911000,12.075910888671874,-0.04877946898341179,-0.8133387565612793,-0.6421821713447571
1780626045101940000,12.08593994140625,0.15969547629356384,-0.552279531955719,-0.24868103861808777
1780626045111969800,12.0959697265625,0.2039036899805069,-0.23603986203670502,0.20444276928901672
1780626045121999600,12.10599951171875,0.149971142411232,0.05948508530855179,0.5142638087272644
1780626045132029000,12.11602880859375,0.066979318857193,0.25231820344924927,0.5783568024635315
1780626045142058800,12.126058837890625,-0.003828030079603195,0.23233763873577118,0.4987858831882477
1780626045152087800,12.136087890625,-0.05428120493888855,0.1022200956940651,0.3381837010383606
1780626045162117600,12.14611767578125,-0.10278429090976715,-0.06569327414035797,0.11787956953048706
1780626045172147700,12.156147705078125,-0.12069005519151688,-0.16995921730995178,-0.08499684929847717
1780626045182176800,12.1661767578125,-0.11425349116325378,-0.21798837184906006,-0.22386211156845093
1780626045192206800,12.176206787109376,-0.08680642396211624,-0.251576691865921,-0.2784278690814972
1780626045202237000,12.18623681640625,-0.09536812454462051,-0.2422017753124237,-0.30544063448905945
1780626045212265700,12.196265625,-0.1007016971707344,-0.20180849730968475,-0.29608750343322754
1780626045222295800,12.2062958984375,-0.12722519040107727,-0.2015983760356903,-0.2265305519104004
1780626045232324900,12.216324951171876,-0.16938382387161255,-0.32168322801589966,-0.12466862797737122
1780626045242355000,12.22635498046875,-0.2189195305109024,-0.5179936289787292,-0.03687537834048271
1780626045252385000,12.236385009765625,-0.2833006680011749,-0.7033600211143494,0.04122631996870041
1780626045262413800,12.246413818359375,-0.3555285334587097,-0.8745381832122803,0.049261078238487244
1780626045272443600,12.256443603515624,-0.4431750178337097,-0.9623934626579285,0.0037063774652779102
1780626045282473000,12.266472900390625,-0.5708345174789429,-0.9398237466812134,-0.1240115836262703
1780626045292502800,12.276502685546875,-0.6859901547431946,-0.8159816861152649,-0.31628674268722534
1780626045302532900,12.286532958984376,-0.7388784885406494,-0.6421927213668823,-0.5192553400993347
1780626045312561700,12.296561767578124,-0.7209761738777161,-0.4434708058834076,-0.607088565826416
1780626045322591700,12.306591796875,-0.649836540222168,-0.2849786877632141,-0.5611966848373413
1780626045332620800,12.316620849609375,-0.5286751985549927,-0.21042217314243317,-0.44624292850494385
1780626045342651000,12.32665087890625,-0.4217693507671356,-0.19976598024368286,-0.32071009278297424
1780626045352681000,12.336680908203125,-0.3636586368083954,-0.1355501413345337,-0.1791776716709137
1780626045362709800,12.346709716796875,-0.35214391350746155,-0.01085534505546093,-0.061680860817432404
1780626045372739800,12.35673974609375,-0.37480103969573975,0.12182067334651947,0.0010035582818090916
1780626045382769000,12.366768798828126,-0.42013823986053467,0.237268328666687,0.01321086473762989
1780626045392799000,12.376799072265625,-0.48743686079978943,0.34281209111213684,-0.022521566599607468
1780626045402829000,12.3868291015625,-0.5476169586181641,0.3969551920890808,-0.07957057654857635
1780626045412858000,12.396858154296876,-0.5574631690979004,0.35989701747894287,-0.1071271002292633
1780626045422888000,12.406887939453124,-0.5172079801559448,0.22668254375457764,-0.05774689465761185
1780626045432917000,12.4169169921875,-0.4776781499385834,0.07602698355913162,0.05122459679841995
1780626045442946800,12.42694677734375,-0.48981761932373047,-0.01966743730008602,0.13019481301307678
1780626045452977000,12.436976806640626,-0.5195260643959045,-0.04742874205112457,0.13795901834964752
1780626045463006000,12.447005859375,-0.5128170251846313,-0.01145849283784628,0.11751819401979446
1780626045473036000,12.4570361328125,-0.4555489718914032,0.0555461086332798,0.06560066342353821
1780626045483064800,12.46706494140625,-0.36075928807258606,0.08101162314414978,0.012334300205111504
