time,seconds_elapsed,z,y,x
1780626033072696000,0.056696044921875,-0.08742518723011017,-1.3083417415618896,1.3095532655715942
1780626033082726000,0.066725830078125,-0.05889900401234627,-1.1146594285964966,1.062199354171753
1780626033092755700,0.076755615234375,0.10700368136167526,-0.8946825861930847,0.7986425757408142
1780626033102784800,0.08678466796875,0.22088071703910828,-0.662521481513977,0.48687484860420227
1780626033112814800,0.09681494140625,0.5503209233283997,-0.17889918386936188,-0.08507920801639557
1780626033122844000,0.106843994140625,0.9487050771713257,0.7894362807273865,-0.649520218372345
1780626033132874000,0.1168740234375,1.1748840808868408,1.8127431869506836,-0.9509927034378052
1780626033142902800,0.12690283203125,1.0218719244003296,2.149763822555542,-0.8460034728050232
1780626033152932900,0.136932861328125,0.6333920955657959,1.8092520236968994,-0.5445210933685303
1780626033162963000,0.146962890625,0.2050658017396927,1.318186640739441,-0.15945890545845032
1780626033172992000,0.156991943359375,-0.14683391153812408,0.8954586386680603,0.21601298451423645
1780626033183021800,0.167021728515625,-0.3563293516635895,0.42164337635040283,0.5229297876358032
1780626033193051000,0.17705078125,-0.3803931474685669,-0.05450478568673134,0.7534458041191101
1780626033203081000,0.1870810546875,-0.18462470173835754,-0.4046529531478882,0.9564306139945984
1780626033213110000,0.197110107421875,0.0494794026017189,-0.5899817943572998,1.1843585968017578
1780626033223140000,0.20714013671875,0.27032098174095154,-0.6490799784660339,1.391541838645935
1780626033233170000,0.217169921875,0.4208707809448242,-0.6249951720237732,1.55015230178833
1780626033243199000,0.227198974609375,0.4551725685596466,-0.571811854839325,1.6277652978897095
1780626033253228800,0.237228759765625,0.3594455122947693,-0.6351417899131775,1.5443061590194702
1780626033263257900,0.2472578125,0.07329259067773819,-0.6853548884391785,1.1594074964523315
1780626033273288000,0.257287841796875,-0.2476034015417099,-0.8125778436660767,0.6172954440116882
1780626033283316700,0.267316650390625,-0.4845850467681885,-0.8809033632278442,0.09683999419212341
1780626033293346800,0.277346923828125,-0.6784019470214844,-0.6591421961784363,-0.349531888961792
1780626033303376000,0.2873759765625,-0.820023775100708,-0.2586784362792969,-0.7193523049354553
1780626033313406000,0.297406005859375,-0.86395263671875,0.12924666702747345,-0.9229655861854553
1780626033323435800,0.307435791015625,-0.7779820561408997,0.4744051396846771,-0.9367560148239136
1780626033333464800,0.31746484375,-0.45182472467422485,0.5753794312477112,-0.8320136070251465
1780626033343495000,0.327494873046875,-0.049983005970716476,0.6148109436035156,-0.6727685332298279
1780626033353524000,0.33752392578125,0.3259054124355316,0.5410445928573608,-0.48631903529167175
1780626033363554000,0.347553955078125,0.6481947898864746,0.502846360206604,-0.3353321850299835
1780626033373582800,0.357582763671875,0.9447300434112549,0.3123456537723541,-0.17505356669425964
1780626033383613000,0.367613037109375,1.1039718389511108,-0.06982435286045074,-0.024237163364887238
1780626033393643000,0.37764306640625,1.0367616415023804,-0.3714832663536072,0.06553107500076294
1780626033403672000,0.387672119140625,0.8827638626098633,-0.7226032018661499,0.09959689527750015
1780626033413702000,0.397701904296875,0.8146215677261353,-0.9734628796577454,0.17308123409748077
1780626033423731000,0.40773095703125,0.9350358247756958,-1.0839898586273193,0.30866649746894836
1780626033433760800,0.4177607421875,1.081373929977417,-1.2436962127685547,0.4845792055130005
1780626033443790000,0.4277900390625,1.1344869136810303,-1.4104915857315063,0.6940320134162903
1780626033453820000,0.43781982421875,1.1463041305541992,-1.580198884010315,0.8208927512168884
1780626033463849700,0.447849609375,1.1321287155151367,-1.748216152191162,0.6855828762054443
1780626033473878800,0.457878662109375,1.1672775745391846,-1.835654854774475,0.1383565366268158
1780626033483908900,0.467908935546875,1.446671962738037,-1.6069386005401611,-0.638532280921936
1780626033493938000,0.47793798828125,1.868455410003662,-1.33146333694458,-1.2541773319244385
1780626033503968000,0.487968017578125,2.1980953216552734,-1.5567861795425415,-1.5009511709213257
1780626033513996800,0.497996826171875,2.3978917598724365,-2.3458075523376465,-1.1882585287094116
1780626033524027000,0.50802685546875,2.720750331878662,-3.63139009475708,-0.2578701674938202
1780626033534057000,0.518056884765625,3.304288148880005,-5.328864097595215,1.0678412914276123
1780626033544086000,0.5280859375,3.942481517791748,-6.968614101409912,2.231957197189331
1780626033554116000,0.5381162109375,4.436808109283447,-7.659431457519531,2.36651611328125
1780626033564145000,0.548144775390625,5.01804780960083,-7.250514507293701,2.025179862976074
1780626033574175000,0.558175048828125,5.721026420593262,-5.624783515930176,1.5391901731491089
1780626033584204000,0.5682041015625,6.189525127410889,-3.810624599456787,0.7757719159126282
1780626033594234000,0.578234130859375,6.560239315032959,-2.5492587089538574,0.2274605929851532
1780626033604263700,0.588263671875,7.021937847137451,-2.1719906330108643,0.13524197041988373
1780626033614292700,0.598292724609375,7.518104553222656,-2.6537580490112305,0.4302813410758972
1780626033624322800,0.60832275390625,7.81278657913208,-3.5820229053497314,1.0725164413452148
1780626033634351900,0.618351806640625,7.981301784515381,-4.948045253753662,1.9923754930496216
1780626033644382000,0.6283818359375,8.13853645324707,-6.443724632263184,2.8110601902008057
1780626033654410800,0.63841064453125,8.53287124633789,-7.5999979972839355,3.6916563510894775
1780626033664440800,0.64844091796875,9.154455184936523,-7.658079624176025,4.6475982666015625
1780626033674471000,0.658470947265625,9.586685180664062,-7.434098720550537,5.316161632537842
1780626033684500000,0.6685,9.866660118103027,-6.85340690612793,6.050249099731445
1780626033694530000,0.678530029296875,9.968210220336914,-6.076637268066406,6.8235554695129395
1780626033704558800,0.688558837890625,9.857115745544434,-5.414597511291504,7.45457124710083
1780626033714589000,0.6985888671875,9.42596435546875,-4.088685989379883,7.745046138763428
1780626033724618000,0.708617919921875,8.638848304748535,-1.8531795740127563,7.4066162109375
1780626033734648000,0.71864794921875,7.3840861320495605,0.5499430298805237,6.5908355712890625
1780626033744678000,0.728677978515625,5.883749485015869,3.0663487911224365,5.789793968200684
1780626033754707000,0.73870703125,4.000229835510254,4.699710369110107,5.2428154945373535
1780626033764736800,0.74873681640625,1.8414618968963623,5.0048508644104,5.013484954833984
1780626033774766000,0.75876611328125,0.0836954265832901,4.707210540771484,4.9868035316467285
1780626033784796000,0.7687958984375,-1.0470547676086426,4.594546318054199,4.5517120361328125
1780626033794825000,0.778824951171875,-1.6982288360595703,4.499639987945557,3.5243728160858154
1780626033804854800,0.788854736328125,-1.9575130939483643,4.2469072341918945,2.3006014823913574
1780626033814884900,0.798884765625,-2.351449728012085,3.4036242961883545,1.3779027462005615
1780626033824914000,0.808913818359375,-2.8685483932495117,2.1249210834503174,0.8439144492149353
1780626033834944000,0.818944091796875,-3.456068754196167,0.6222339868545532,0.30284348130226135
1780626033844972800,0.828972900390625,-4.053326606750488,-0.49000218510627747,-0.42275044322013855
1780626033855003000,0.8390029296875,-4.6774163246154785,-0.9563723206520081,-1.3584728240966797
1780626033865033000,0.849032958984375,-5.056102752685547,-0.5666149258613586,-2.6341073513031006
1780626033875062000,0.85906201171875,-5.0646209716796875,0.12094719707965851,-3.4847793579101562
1780626033885091800,0.869091796875,-4.868414878845215,0.28116747736930847,-3.573012590408325
1780626033895121000,0.879120849609375,-4.459939002990723,-0.8676067590713501,-2.7978789806365967
1780626033905151000,0.88915087890625,-3.6761367321014404,-2.372091054916382,-1.8974004983901978
1780626033915180000,0.899179931640625,-2.511526346206665,-3.259509563446045,-1.7157663106918335
1780626033925210000,0.909210205078125,-1.6725631952285767,-3.834364891052246,-1.7097702026367188
1780626033935239700,0.91923974609375,-1.266916036605835,-4.792653560638428,-1.3514431715011597
1780626033945269000,0.92926904296875,-0.6577584147453308,-6.329680919647217,-0.3670816123485565
1780626033955298800,0.939298828125,0.055019576102495193,-6.4854960441589355,0.3362022340297699
1780626033965328000,0.949327880859375,0.2574523091316223,-4.725175380706787,-0.43414825201034546
1780626033975358000,0.95935791015625,0.11688986420631409,-2.945535659790039,-1.3027513027191162
1780626033985386800,0.96938671875,-0.10359802842140198,-1.5042026042938232,-1.7692705392837524
1780626033995416800,0.979416748046875,-0.24598553776741028,-0.6326978206634521,-1.9691442251205444
1780626034005447000,0.989447021484375,-0.2562978267669678,-0.008739163167774677,-2.177579164505005
1780626034015476000,0.99947607421875,-0.19659800827503204,0.34474432468414307,-2.3489205837249756
1780626034025505800,1.009505859375,-0.055806539952754974,0.49562200903892517,-2.5117499828338623
1780626034035534800,1.019534912109375,0.1513807326555252,0.541853129863739,-2.6278269290924072
1780626034045565000,1.02956494140625,0.34252700209617615,0.5688298940658569,-2.718050479888916
1780626034055595000,1.039594970703125,0.4065176844596863,0.11816152930259705,-2.531482696533203
1780626034065624000,1.0496240234375,0.4089326560497284,-0.31260690093040466,-2.1033935546875
1780626034075654000,1.05965380859375,0.3219761848449707,-0.8110553026199341,-1.2544010877609253
1780626034085683000,1.069682861328125,0.1917385458946228,-0.9068630933761597,-0.5630556344985962
1780626034095713000,1.079713134765625,0.026618294417858124,-1.0584903955459595,0.32633844017982483
1780626034105742000,1.0897421875,0.049968358129262924,-1.2018057107925415,0.8733479976654053
1780626034115772000,1.09977197265625,0.07235009968280792,-1.078018307685852,0.2908070683479309
1780626034125801700,1.1098017578125,-0.04711771011352539,0.8698421716690063,-2.3884942531585693
1780626034135830800,1.119830810546875,-0.4289788007736206,3.082472801208496,-5.5204997062683105
1780626034145860900,1.12986083984375,-1.1709316968917847,5.4767351150512695,-8.620760917663574
1780626034155890000,1.139889892578125,-1.4455188512802124,6.877323150634766,-9.309785842895508
1780626034165919700,1.149919677734375,-1.3479968309402466,5.9595112800598145,-8.089818000793457
1780626034175949800,1.15994970703125,-0.9370009899139404,2.120120048522949,-4.327883720397949
1780626034185979000,1.169978759765625,-0.7782917618751526,-3.6981091499328613,0.7868748903274536
1780626034196009000,1.180009033203125,-0.4430621266365051,-6.480006694793701,4.518578052520752
1780626034206038000,1.1900380859375,0.008173773996531963,-6.153346061706543,4.662116050720215
1780626034216067800,1.20006787109375,0.5153483152389526,-2.8466315269470215,2.57108998298645
1780626034226097000,1.210096923828125,0.7622236013412476,0.9848196506500244,0.0860094502568245
1780626034236127000,1.220126953125,0.6863901019096375,3.113176107406616,-1.3085519075393677
1780626034246157000,1.230156982421875,0.7015501260757446,3.2521893978118896,-1.757951021194458
1780626034256186000,1.24018603515625,1.097606897354126,2.7432968616485596,-1.7119334936141968
1780626034266215700,1.250215576171875,1.6842501163482666,2.736055850982666,-1.382563829421997
1780626034276245000,1.260244873046875,2.2215895652770996,2.4278881549835205,-1.0212557315826416
1780626034286274800,1.27027490234375,2.6228866577148438,1.7367565631866455,-0.7340388298034668
1780626034296305000,1.280304931640625,2.5081117153167725,0.8102824687957764,-0.7052881121635437
1780626034306333700,1.290333740234375,2.3732471466064453,-0.7875361442565918,-0.8150412440299988
1780626034316363800,1.30036376953125,2.6893951892852783,-2.8588383197784424,-0.9054079055786133
1780626034326392800,1.310392822265625,2.826484441757202,-4.625993728637695,-0.9403230547904968
1780626034336423000,1.3204228515625,2.6003241539001465,-6.063286781311035,-0.9864764213562012
1780626034346452000,1.330451904296875,2.206763505935669,-6.910489559173584,-1.1511348485946655
1780626034356481800,1.340481689453125,1.7706905603408813,-7.37869930267334,-1.4153518676757812
1780626034366511900,1.350511962890625,1.4414499998092651,-7.352062702178955,-1.751458764076233
1780626034376541000,1.360541015625,1.3660168647766113,-6.752224445343018,-2.1257576942443848
1780626034386571000,1.370571044921875,1.6082513332366943,-5.785703182220459,-2.368077516555786
1780626034396600000,1.38060009765625,2.208672046661377,-4.530864715576172,-2.140387535095215
1780626034406630000,1.3906298828125,3.246316432952881,-3.6389718055725098,-1.2035261392593384
1780626034416659700,1.40065966796875,4.382776260375977,-2.722026824951172,0.05167544633150101
1780626034426689000,1.41068896484375,4.638192176818848,-1.1666491031646729,0.6753992438316345
1780626034436718800,1.42071875,3.910108804702759,0.3896412253379822,0.6762479543685913
1780626034446748000,1.430747802734375,2.7710347175598145,1.6172077655792236,0.49104616045951843
1780626034456777700,1.44077783203125,1.7756365537643433,2.2138864994049072,0.3473590314388275
1780626034466807800,1.450807861328125,1.0545945167541504,2.16009521484375,0.27555620670318604
1780626034476836900,1.4608369140625,0.45696595311164856,1.805537223815918,0.2245044708251953
1780626034486867000,1.470866943359375,-0.11985795944929123,1.5268045663833618,0.2125045359134674
1780626034496895700,1.480895751953125,-0.580249547958374,1.4417251348495483,0.2646939754486084
1780626034506925800,1.49092578125,-0.7334188222885132,1.1673303842544556,0.29999977350234985
1780626034516955000,1.500954833984375,-0.469939261674881,0.9058494567871094,0.24055588245391846
1780626034526985000,1.51098486328125,0.13941967487335205,0.6354928016662598,0.11628959327936172
1780626034537015000,1.52101513671875,0.9054625034332275,0.18809586763381958,0.13878850638866425
1780626034547043800,1.5310439453125,1.545807123184204,-0.4015010893344879,0.5211387872695923
1780626034557074000,1.541073974609375,1.8763152360916138,-1.223876714706421,1.1803374290466309
1780626034567103000,1.55110302734375,2.003606081008911,-1.965282917022705,1.716264009475708
1780626034577133000,1.561133056640625,2.084749698638916,-2.403743267059326,2.3771815299987793
1780626034587163000,1.571162841796875,2.3201897144317627,-2.7349298000335693,3.0382471084594727
1780626034597192000,1.58119189453125,2.3018760681152344,-2.476818561553955,3.699486494064331
1780626034607221800,1.5912216796875,2.4293038845062256,-2.099728584289551,4.119106769561768
1780626034617250800,1.601250732421875,2.714947462081909,-1.1333519220352173,4.107725143432617
1780626034627281000,1.611281005859375,2.79167103767395,0.14345410466194153,3.4680228233337402
1780626034637311000,1.62131103515625,2.0405447483062744,0.453758180141449,2.378208875656128
1780626034647339800,1.63133984375,0.9153063297271729,0.15887273848056793,0.8919277787208557
1780626034657369900,1.641369873046875,0.038787610828876495,0.7418605089187622,-0.970740556716919
1780626034667399000,1.65139892578125,-0.7363768219947815,1.6108827590942383,-1.536702036857605
1780626034677429000,1.661428955078125,-1.1168549060821533,2.6099843978881836,-1.5122402906417847
1780626034687459000,1.671458984375,-1.4172781705856323,3.745327949523926,-1.4505226612091064
1780626034697488000,1.68148779296875,-1.120474934577942,4.668662071228027,-2.0863428115844727
1780626034707518000,1.69151806640625,-0.5355257391929626,5.651540756225586,-2.5484628677368164
1780626034717547000,1.701547119140625,0.11691276729106903,5.467966079711914,-2.0066568851470947
1780626034727577000,1.7115771484375,0.7437425851821899,4.311288356781006,-0.8588225841522217
1780626034737607000,1.72160693359375,1.1163822412490845,3.5807361602783203,0.26849696040153503
1780626034747636000,1.731635986328125,1.1253594160079956,3.3446035385131836,1.170815110206604
1780626034757665800,1.741665771484375,0.9639428853988647,3.343930721282959,1.6605125665664673
1780626034767694800,1.75169482421875,0.8136865496635437,3.3770408630371094,1.5824366807937622
1780626034777725000,1.761724853515625,0.5444989800453186,2.8017778396606445,1.3432729244232178
1780626034787755000,1.771755126953125,0.2744086682796478,2.3169913291931152,1.1160389184951782
1780626034797783800,1.78178369140625,0.11343548446893692,1.9038141965866089,0.8770985007286072
1780626034807814000,1.79181396484375,0.17818652093410492,1.464621663093567,0.6033250093460083
1780626034817843000,1.801843017578125,0.618066668510437,0.8328578472137451,0.37977343797683716
1780626034827873000,1.811873046875,1.315859079360962,0.08934825658798218,0.2224178910255432
1780626034837902800,1.82190283203125,2.0066356658935547,-0.454656183719635,0.0904792994260788
1780626034847932000,1.831931884765625,2.4151244163513184,-0.3875160217285156,-0.09655822813510895
1780626034857962000,1.8419619140625,2.3722498416900635,0.11737696081399918,-0.332682341337204
1780626034867991000,1.851990966796875,1.7710037231445312,0.9562460780143738,-0.6278599500656128
1780626034878021000,1.862021240234375,0.7050319314002991,1.2582764625549316,-0.8258321285247803
1780626034888050000,1.8720498046875,-0.4033900797367096,1.0508830547332764,-0.8248827457427979
1780626034898080000,1.882080078125,-1.072121500968933,0.743073046207428,-0.7186279296875
1780626034908109800,1.89210986328125,-1.0810484886169434,0.5389492511749268,-0.47288259863853455
1780626034918139000,1.902138916015625,-0.8477163910865784,0.5419410467147827,-0.1699104756116867
1780626034928169000,1.9121689453125,-0.6195349097251892,0.715951144695282,0.09080633521080017
1780626034938197800,1.92219775390625,-0.43355515599250793,0.9616214036941528,0.22978685796260834
1780626034948227800,1.932227783203125,-0.34051230549812317,1.0948030948638916,0.25860998034477234
1780626034958258000,1.9422578125,-0.1476144939661026,0.8559865951538086,0.24870435893535614
1780626034968287000,1.952286865234375,0.20527033507823944,0.7291295528411865,0.14099226891994476
1780626034978316800,1.96231689453125,0.5464726686477661,0.481403648853302,0.10963435471057892
1780626034988345900,1.972345947265625,0.8547223806381226,0.6471593379974365,0.015124091878533363
1780626034998376000,1.9823759765625,1.0808594226837158,0.9843764901161194,-0.04929830878973007
1780626035008406000,1.992406005859375,1.0163451433181763,0.8871351480484009,0.014331535436213017
1780626035018435000,2.00243505859375,0.6525362730026245,0.5048072338104248,0.05080033093690872
1780626035028465000,2.01246484375,0.2640950381755829,0.2317562699317932,0.0010910971323028207
1780626035038494000,2.022493896484375,0.1444418728351593,-0.27334100008010864,-0.03592364490032196
1780626035048523800,2.032523681640625,0.20715264976024628,-0.6309036612510681,0.06250971555709839
1780626035058553900,2.042553955078125,0.36644962430000305,-0.5632127523422241,0.23658643662929535
1780626035068583000,2.0525830078125,0.4220825433731079,-0.31987306475639343,0.43228617310523987
1780626035078612700,2.06261279296875,0.3273983597755432,-0.09217839688062668,0.5515294671058655
1780626035088641800,2.072641845703125,0.1836148351430893,0.0020306603983044624,0.5895309448242188
1780626035098671900,2.082671875,0.04062412679195404,0.015208513475954533,0.5477054119110107
1780626035108702000,2.092701904296875,-0.06040528789162636,0.011178618296980858,0.4355919361114502
1780626035118730800,2.102730712890625,-0.10331706702709198,-0.1632152944803238,0.32369789481163025
1780626035128760800,2.1127607421875,-0.11425174027681351,-0.3964839577674866,0.2207246571779251
1780626035138790000,2.122789794921875,-0.18750570714473724,-0.5117908716201782,0.1229134052991867
1780626035148820000,2.132820068359375,-0.2849220037460327,-0.5843931436538696,0.015841813758015633
1780626035158850000,2.14285009765625,-0.32311227917671204,-0.6171191334724426,-0.07005578279495239
1780626035168878800,2.15287890625,-0.32665321230888367,-0.5593985915184021,-0.0906529352068901
1780626035178909000,2.162908935546875,-0.3357926607131958,-0.4167602062225342,-0.08990538865327835
1780626035188938000,2.17293798828125,-0.31456857919692993,-0.22779028117656708,-0.06638141721487045
1780626035198967800,2.1829677734375,-0.27222591638565063,-0.07121026515960693,-0.00020373181905597448
1780626035208998000,2.192997802734375,-0.3682038486003876,-0.27320703864097595,0.06893166154623032
1780626035219026700,2.203026611328125,-0.33984464406967163,-1.0118651390075684,0.31759580969810486
1780626035229056800,2.213056884765625,-0.21513760089874268,-1.5181692838668823,0.5591855049133301
1780626035239085800,2.2230859375,-0.0783214345574379,-1.1329982280731201,0.5977531671524048
1780626035249116000,2.233115966796875,0.006385195069015026,-0.40678825974464417,0.5205683708190918
1780626035259146000,2.24314599609375,0.013814082369208336,0.28203460574150085,0.46154338121414185
1780626035269174800,2.2531748046875,-0.001130778226070106,0.8675617575645447,0.43430110812187195
1780626035279204900,2.263204833984375,-0.014160826802253723,1.2770872116088867,0.4416050910949707
1780626035289234000,2.27323388671875,-0.0350157730281353,1.4698207378387451,0.4301324784755707
1780626035299264000,2.283263916015625,-0.026922693476080894,1.4064313173294067,0.35913047194480896
1780626035309292800,2.293292724609375,0.038972966372966766,1.058525562286377,0.218119278550148
1780626035319323000,2.303322998046875,0.242702916264534,0.3363111615180969,0.02003442868590355
1780626035329353000,2.31335302734375,0.5904132127761841,-0.5105066895484924,-0.1437222808599472
1780626035339382000,2.323382080078125,0.7938981652259827,-0.8373883962631226,-0.2547776997089386
1780626035349411800,2.333411865234375,0.7282307147979736,-0.5924545526504517,-0.33765366673469543
1780626035359442000,2.34344189453125,0.45436856150627136,-0.22989392280578613,-0.40037378668785095
1780626035369471000,2.353470947265625,0.008290953002870083,-0.05246427282691002,-0.4288986325263977
1780626035379501000,2.3635009765625,-0.4231525957584381,0.08978687971830368,-0.37429317831993103
1780626035389530000,2.373530029296875,-0.6616370677947998,0.26785808801651,-0.18532724678516388
1780626035399560200,2.383560302734375,-0.6185742616653442,0.5777466893196106,0.1215120479464531
1780626035409589000,2.393589111328125,-0.3973928987979889,0.8939275741577148,0.4422709047794342
1780626035419619000,2.403619140625,-0.12916916608810425,0.9753981828689575,0.6277387738227844
1780626035429649200,2.413649169921875,0.03543868288397789,0.6855607628822327,0.569128155708313
1780626035439678200,2.42367822265625,0.054795872420072556,0.061346713453531265,0.25953808426856995
1780626035449708300,2.433708251953125,-0.01743944361805916,-0.5947062373161316,-0.1478041112422943
1780626035459737000,2.443737060546875,-0.05289650335907936,-0.7607809901237488,-0.3935408890247345
1780626035469767200,2.45376708984375,-0.04340366646647453,-0.47047722339630127,-0.4139532446861267
1780626035479797200,2.46379736328125,-0.0012117383303120732,-0.06119944155216217,-0.2898150384426117
1780626035489826300,2.473826416015625,0.06475315988063812,0.09776810556650162,-0.13839755952358246
1780626035499856100,2.483856201171875,0.05266907066106796,-0.11372390389442444,-0.06575344502925873
1780626035509885200,2.49388525390625,0.07662180811166763,-0.28048333525657654,0.041612423956394196
1780626035519915000,2.5039150390625,0.13492293655872345,-0.29961761832237244,0.1930818408727646
1780626035529945000,2.513945068359375,0.1184142604470253,-0.27203044295310974,0.29833874106407166
1780626035539974100,2.52397412109375,0.0037265613209456205,-0.35177215933799744,0.3174173831939697
1780626035550004200,2.534004150390625,-0.0008756473544053733,-0.2516716420650482,0.37375760078430176
1780626035560033000,2.544032958984375,0.04464976117014885,-0.029453229159116745,0.41409972310066223
1780626035570063000,2.55406298828125,0.09086944907903671,0.09273366630077362,0.39831116795539856
1780626035580093200,2.56409326171875,0.028391161933541298,0.038475487381219864,0.29265743494033813
1780626035590122200,2.574122314453125,-0.12089552730321884,-0.17268016934394836,0.07913849502801895
1780626035600152300,2.58415234375,-0.21344223618507385,-0.40878671407699585,-0.08976210653781891
1780626035610181000,2.59418115234375,-0.2040572613477707,-0.5277035236358643,-0.1730005443096161
1780626035620211200,2.604211181640625,-0.09960675239562988,-0.3900039494037628,-0.1662219911813736
1780626035630241300,2.6142412109375,0.03856949508190155,-0.19987183809280396,-0.09692707657814026
1780626035640270300,2.624270263671875,0.09748154878616333,-0.07557438313961029,-0.04984558746218681
1780626035650300200,2.634300048828125,0.0534866601228714,0.012948023155331612,-0.03135845437645912
1780626035660329200,2.6443291015625,-0.06392465531826019,0.10928201675415039,-0.04971162974834442
1780626035670359000,2.654359130859375,-0.18561673164367676,0.1871296763420105,-0.07981733232736588
1780626035680389000,2.66438916015625,-0.24239853024482727,0.28079864382743835,-0.08253322541713715
1780626035690418200,2.674418212890625,-0.21601459383964539,0.45128941535949707,-0.03145619481801987
1780626035700448000,2.684447998046875,-0.16041044890880585,0.4906996786594391,0.02262222208082676
1780626035710477000,2.69447705078125,-0.07145553827285767,0.2198290377855301,-0.003272492438554764
1780626035720507100,2.704507080078125,0.013609285466372967,-0.1702769249677658,-0.07138017565011978
1780626035730537200,2.714537109375,0.05925852805376053,-0.4796597957611084,-0.11785286664962769
1780626035740566300,2.724566162109375,0.03188123553991318,-0.5761288404464722,-0.12693051993846893
1780626035750596000,2.73459619140625,-0.036199551075696945,-0.46634799242019653,-0.10773498564958572
1780626035760625200,2.744625244140625,-0.10346434265375137,-0.21463720500469208,-0.0509185753762722
1780626035770655200,2.7546552734375,-0.16565261781215668,0.07400897890329361,0.03984754905104637
1780626035780685300,2.764685302734375,-0.20618219673633575,0.3096795678138733,0.1403946578502655
1780626035790714400,2.77471435546875,-0.21293091773986816,0.4380607008934021,0.20519176125526428
1780626035800744000,2.784743896484375,-0.20607779920101166,0.4523371160030365,0.214791402220726
1780626035810773200,2.794773193359375,-0.19561530649662018,0.24813391268253326,0.16148503124713898
1780626035820803000,2.804802978515625,-0.14464586973190308,-0.058699533343315125,0.06869916617870331
1780626035830832000,2.81483203125,-0.08819643408060074,-0.3192189931869507,-0.0374179445207119
1780626035840862000,2.824862060546875,-0.05170340836048126,-0.4720415771007538,-0.14483335614204407
1780626035850892000,2.83489208984375,-0.015410381369292736,-0.3915294110774994,-0.19564832746982574
1780626035860921000,2.844921142578125,0.014230601489543915,-0.1632230132818222,-0.13675890862941742
1780626035870951200,2.854951171875,0.08642943203449249,0.0568571574985981,-0.002380599733442068
1780626035880980200,2.864980224609375,0.15284466743469238,0.27201980352401733,0.1821114867925644
1780626035891010000,2.875010009765625,0.18000757694244385,0.45293498039245605,0.30222591757774353
1780626035901040000,2.8850400390625,0.15453284978866577,0.5553330183029175,0.3194882571697235
1780626035911069200,2.895069091796875,0.08856794983148575,0.5437633991241455,0.23386895656585693
1780626035921099300,2.905099365234375,0.09684105962514877,0.6574750542640686,0.11424028873443604
1780626035931128300,2.91512841796875,0.08141922205686569,0.7737367153167725,-0.059543222188949585
1780626035941158100,2.925158203125,0.03428979590535164,0.7818569540977478,-0.2831994891166687
1780626035951188000,2.93518798828125,-0.05396496504545212,0.6733664274215698,-0.5240871906280518
1780626035961217300,2.94521728515625,-0.09907358884811401,0.5429852604866028,-0.7574858069419861
1780626035971247000,2.9552470703125,0.018093250691890717,0.4818020462989807,-0.9710593819618225
1780626035981276200,2.965276123046875,0.26306331157684326,0.27750164270401,-1.1071319580078125
1780626035991306000,2.975305908203125,0.5935847759246826,0.07243558764457703,-1.1934788227081299
1780626036001336000,2.985336181640625,0.9651995897293091,-0.12498268485069275,-1.2017852067947388
1780626036011365000,2.995365234375,1.2389448881149292,-0.3403317332267761,-1.1487795114517212
1780626036021395200,3.005395263671875,1.3415402173995972,-0.46883484721183777,-1.0324760675430298
1780626036031424000,3.015424072265625,1.2110283374786377,-0.5195813775062561,-0.8963025808334351
1780626036041454000,3.0254541015625,0.9754951000213623,-0.5784732103347778,-0.7460036277770996
1780626036051484200,3.035484130859375,0.7165578603744507,-0.7161756753921509,-0.5800958871841431
1780626036061513200,3.04551318359375,0.5100757479667664,-0.8790950775146484,-0.4289622902870178
1780626036071543300,3.055543212890625,0.3605928122997284,-0.6883752346038818,-0.40932705998420715
1780626036081572000,3.065572021484375,0.34911271929740906,-0.45113521814346313,-0.4321538209915161
1780626036091602200,3.075602294921875,0.31125694513320923,-0.2799600064754486,-0.5047324299812317
1780626036101632000,3.085632080078125,0.0973513200879097,-0.3810325562953949,-0.5412371754646301
1780626036111661300,3.095661376953125,-0.22956714034080505,-0.6623587608337402,-0.4135124683380127
1780626036121691100,3.105691162109375,-0.5929040908813477,-0.7543941736221313,-0.11153318732976913
1780626036131720200,3.11572021484375,-0.8227154612541199,-0.5244749784469604,0.32597464323043823
1780626036141750000,3.12575,-0.8586015105247498,-0.27792349457740784,0.7325735688209534
1780626036151780000,3.135780029296875,-0.698755145072937,-0.03716680780053139,0.965657651424408
1780626036161809200,3.14580908203125,-0.3787664771080017,0.26869431138038635,1.0516927242279053
1780626036171839200,3.155839111328125,0.07019852846860886,0.5957803130149841,1.0205137729644775
1780626036181868000,3.165867919921875,0.5136129856109619,0.9775159358978271,0.8524054288864136
1780626036191898000,3.175898193359375,0.8150284886360168,1.5986695289611816,0.4767308533191681
1780626036201927200,3.18592724609375,0.890559732913971,2.2285773754119873,-0.07443961501121521
1780626036211957200,3.195957275390625,0.6319766640663147,2.183397054672241,-0.503747284412384
1780626036221987300,3.2059873046875,0.41859832406044006,1.6296594142913818,-0.6865085959434509
1780626036232016100,3.21601611328125,0.2615543603897095,1.1387133598327637,-0.7698186635971069
1780626036242046200,3.226046142578125,0.16072016954421997,0.9046363830566406,-0.8553074598312378
1780626036252075300,3.2360751953125,0.05686834082007408,0.8370629549026489,-1.0327086448669434
1780626036262105300,3.246105224609375,-0.16310742497444153,0.8819150924682617,-1.4003005027770996
1780626036272135200,3.25613525390625,-0.43988311290740967,0.6180871725082397,-1.78656005859375
1780626036282164200,3.266164306640625,-0.5877026319503784,-0.3769904375076294,-1.8343474864959717
1780626036292194000,3.276194091796875,-0.5450206995010376,-1.3776135444641113,-1.3970661163330078
1780626036302223000,3.28622314453125,-0.4619370102882385,-1.6049848794937134,-0.6999767422676086
1780626036312253200,3.296253173828125,-0.2775120437145233,-1.1117088794708252,0.002269279444590211
1780626036322283300,3.306283203125,-0.1001572236418724,-0.4646014869213104,0.49203285574913025
1780626036332312000,3.31631201171875,0.12443540245294571,-0.17381466925144196,0.7665075659751892
1780626036342342100,3.326342041015625,0.36400458216667175,-0.20680058002471924,0.8812610507011414
1780626036352371200,3.33637109375,0.408439964056015,-0.30473434925079346,0.7936273217201233
1780626036362401300,3.3464013671875,0.46663641929626465,-0.28224658966064453,0.6113240718841553
1780626036372431400,3.356431396484375,0.7177935242652893,-0.1722750961780548,0.4269167184829712
1780626036382460400,3.36646044921875,1.041037917137146,-0.06732417643070221,0.33837297558784485
1780626036392490500,3.376490478515625,1.3852392435073853,-0.2110656350851059,0.34508681297302246
1780626036402519300,3.386519287109375,1.5002038478851318,-0.622698187828064,0.3712814152240753
1780626036412549400,3.39654931640625,1.324519157409668,-1.1686326265335083,0.3493736982345581
1780626036422579200,3.4065791015625,1.0541281700134277,-1.6338093280792236,0.34931910037994385
1780626036432608300,3.416608154296875,0.6848446726799011,-2.135113000869751,0.3399357199668884
1780626036442638300,3.426638427734375,0.38439080119132996,-2.6085259914398193,0.2550741136074066
1780626036452667100,3.436667236328125,0.3865903317928314,-2.8723678588867188,0.10256525874137878
1780626036462697200,3.446697265625,0.7302587628364563,-2.826890230178833,-0.028544027358293533
1780626036472727300,3.456727294921875,1.0531896352767944,-2.800417184829712,-0.050208043307065964
1780626036482756400,3.46675634765625,1.1321169137954712,-2.8893094062805176,0.01581384986639023
1780626036492786400,3.476786376953125,1.0005013942718506,-2.5865516662597656,-0.005675728898495436
1780626036502815200,3.486815185546875,0.8515670299530029,-1.903660774230957,-0.13038517534732819
1780626036512845300,3.49684521484375,0.655488908290863,-1.2820018529891968,-0.2635389566421509
1780626036522875400,3.50687548828125,0.41356733441352844,-0.7366649508476257,-0.45001617074012756
1780626036532904400,3.516904541015625,0.2074946016073227,-0.23676620423793793,-0.651757538318634
1780626036542934500,3.5269345703125,0.019932961091399193,-0.004220045171678066,-0.722896933555603
1780626036552963300,3.53696337890625,-0.09153604507446289,0.0019025622168555856,-0.6556957960128784
1780626036562993400,3.546993408203125,-0.13913126289844513,-0.008199873380362988,-0.4963274598121643
1780626036573022500,3.5570224609375,-0.14163729548454285,0.04217168688774109,-0.28409111499786377
1780626036583052300,3.56705224609375,-0.16894720494747162,0.1195964366197586,-0.016265256330370903
1780626036593082400,3.577082275390625,-0.2356649935245514,0.2641831934452057,0.2507725656032562
1780626036603111200,3.587111083984375,-0.38548749685287476,0.4840761423110962,0.4935194253921509
1780626036613141200,3.597141357421875,-0.6447933912277222,0.7254823446273804,0.7091047167778015
1780626036623170300,3.60717041015625,-0.9158621430397034,0.9703861474990845,0.8734116554260254
1780626036633200400,3.617200439453125,-1.0604702234268188,0.996505081653595,0.8066824078559875
1780626036643230200,3.627230224609375,-1.0033714771270752,0.6714619994163513,0.410309761762619
1780626036653259300,3.63725927734375,-0.9184531569480896,0.07512643933296204,-0.3428231179714203
1780626036663289300,3.647289306640625,-0.9704660177230835,-0.4185543656349182,-1.1918593645095825
1780626036673318400,3.657318359375,-1.2671700716018677,-0.6454535722732544,-1.736499547958374
1780626036683348500,3.667348388671875,-1.7295113801956177,-0.8345199227333069,-1.8275047540664673
1780626036693378300,3.67737841796875,-2.062619686126709,-1.373841404914856,-1.649067997932434
1780626036703407400,3.687407470703125,-2.0044755935668945,-2.061551094055176,-1.3882986307144165
1780626036713437400,3.6974375,-1.6427655220031738,-2.0812079906463623,-0.8171569108963013
1780626036723466500,3.707466552734375,-0.9006507396697998,-1.8598113059997559,-0.3759666979312897
1780626036733496300,3.717496337890625,-0.3869333267211914,-2.0447638034820557,-0.29903730750083923
1780626036743526100,3.727526123046875,-0.20450946688652039,-2.2336323261260986,-0.4967631697654724
1780626036753555200,3.73755517578125,-0.1526196300983429,-2.215832233428955,-0.6208369135856628
1780626036763585300,3.747585205078125,-0.06588979810476303,-2.2050392627716064,-0.586681604385376
1780626036773614300,3.7576142578125,0.21854032576084137,-2.112464189529419,-0.5146569609642029
1780626036783644200,3.76764404296875,0.5442302823066711,-1.8123884201049805,-0.444381445646286
1780626036793674200,3.77767431640625,0.7633690237998962,-1.342455267906189,-0.3888494670391083
1780626036803703300,3.787703369140625,0.8920438885688782,-0.8645139932632446,-0.38495033979415894
1780626036813733400,3.7977333984375,0.9612901210784912,-0.5414150357246399,-0.4420866072177887
1780626036823762400,3.807762451171875,0.9878953099250793,-0.4648715555667877,-0.500089168548584
1780626036833792300,3.817792236328125,0.9446930289268494,-0.575101375579834,-0.5536969900131226
1780626036843822300,3.827822265625,0.8194378614425659,-0.7267082333564758,-0.5988000631332397
1780626036853851400,3.837851318359375,0.6817828416824341,-0.832945704460144,-0.6127818822860718
1780626036863881500,3.847881591796875,0.570623517036438,-0.8321520686149597,-0.6246899962425232
1780626036873910500,3.85791064453125,0.4850825369358063,-0.780418872833252,-0.6252116560935974
1780626036883940000,3.867940185546875,0.39991599321365356,-0.7558096647262573,-0.6294184327125549
1780626036893970200,3.87797021484375,0.2835691273212433,-0.8274531960487366,-0.6071125864982605
1780626036903999200,3.887999267578125,0.10927988588809967,-0.9535107612609863,-0.622465968132019
1780626036914029300,3.898029296875,-0.020496219396591187,-1.1649655103683472,-0.6241371035575867
1780626036924058000,3.90805810546875,-0.05323765426874161,-1.19748055934906,-0.5702259540557861
1780626036934088200,3.918088134765625,-0.14753353595733643,-1.1205692291259766,-0.4859504699707031
1780626036944118300,3.9281181640625,-0.19014383852481842,-1.0660079717636108,-0.3705351948738098
1780626036954147300,3.938147216796875,-0.1902644783258438,-0.989263653755188,-0.18836592137813568
1780626036964177400,3.948177490234375,-0.07016870379447937,-0.9960856437683105,0.013520069420337677
1780626036974206200,3.958206298828125,0.17912420630455017,-0.9393797516822815,0.2450832575559616
1780626036984236300,3.968236328125,0.32682979106903076,-0.9804502129554749,0.2771035134792328
1780626036994266400,3.978266357421875,0.31365033984184265,-1.064125895500183,0.15044356882572174
1780626037004295400,3.98829541015625,0.17315766215324402,-1.0914076566696167,0.031083883717656136
1780626037014325500,3.998325439453125,-0.04297037050127983,-0.9925686717033386,-0.07484175264835358
1780626037024354300,4.008354248046875,-0.23333072662353516,-0.8072949051856995,-0.2229662388563156
1780626037034384100,4.018384033203125,-0.35182487964630127,-0.6910985708236694,-0.3799569308757782
1780626037044413400,4.028413330078125,-0.3835095763206482,-0.6873877048492432,-0.38393673300743103
1780626037054443300,4.038443359375,-0.3753962516784668,-0.7454763054847717,-0.14368979632854462
1780626037064473300,4.048473388671875,-0.3472253382205963,-0.8887967467308044,0.23455046117305756
1780626037074502100,4.058502197265625,-0.2753863036632538,-1.1337260007858276,0.5253692269325256
1780626037084532200,4.0685322265625,-0.1834675669670105,-1.3971518278121948,0.5697833299636841
1780626037094561300,4.078561279296875,-0.0448945052921772,-1.5240203142166138,0.3801113963127136
1780626037104591400,4.08859130859375,0.12427454441785812,-1.3258353471755981,0.07144861668348312
1780626037114621400,4.098621337890625,0.2675206661224365,-0.8071072101593018,-0.25727972388267517
1780626037124650200,4.108650146484375,0.3303433060646057,-0.1832244098186493,-0.577938973903656
1780626037134680300,4.118680419921875,0.2811368703842163,0.33723077178001404,-0.7768568396568298
1780626037144709400,4.12870947265625,0.16031856834888458,0.519213080406189,-0.7413995265960693
1780626037154739500,4.138739501953125,0.09283033758401871,0.22748349606990814,-0.5088973045349121
1780626037164769500,4.14876953125,0.1460094004869461,-0.34296587109565735,-0.26410141587257385
1780626037174798300,4.15879833984375,0.2309621125459671,-0.6778546571731567,-0.1073823794722557
1780626037184828200,4.168828125,0.2612619698047638,-0.5024080276489258,-0.13066986203193665
1780626037194857500,4.178857421875,0.2911849617958069,-0.08877833932638168,-0.2000843584537506
1780626037204887300,4.18888720703125,0.3507785201072693,0.13524970412254333,-0.24804016947746277
1780626037214917400,4.19891748046875,0.3291073143482208,0.16340623795986176,-0.31013548374176025
1780626037224946200,4.2089462890625,0.286350280046463,0.22321657836437225,-0.20796704292297363
1780626037234976300,4.218976318359375,0.20685172080993652,0.401608943939209,0.12893401086330414
1780626037245005300,4.22900537109375,0.09271076321601868,0.7469890117645264,0.6224385499954224
1780626037255035400,4.239035400390625,-0.1040710061788559,1.1794778108596802,1.1429206132888794
1780626037265065500,4.2490654296875,-0.2785266935825348,1.4630866050720215,1.5951839685440063
1780626037275094300,4.25909423828125,-0.32845431566238403,1.4090774059295654,1.9039976596832275
1780626037285124400,4.269124267578125,-0.23188170790672302,1.0764678716659546,1.995550274848938
1780626037295153400,4.2791533203125,-0.08973094820976257,0.7097268104553223,1.8840266466140747
1780626037305183500,4.28918359375,0.039567381143569946,0.45270463824272156,1.6865031719207764
1780626037315213300,4.29921337890625,0.1280793994665146,0.3646312355995178,1.4922165870666504
1780626037325242400,4.309242431640625,0.16184082627296448,0.5070650577545166,1.361212968826294
1780626037335272200,4.319272216796875,0.1514265388250351,0.6973178386688232,1.2968039512634277
1780626037345301500,4.329301513671875,0.1157417818903923,0.8333837985992432,1.2688212394714355
1780626037355331300,4.339331298828125,0.0498620979487896,0.8880254626274109,1.2256144285202026
1780626037365361200,4.349361083984375,-0.057198572903871536,0.8417490720748901,1.127482533454895
1780626037375390200,4.35939013671875,-0.17188121378421783,0.73543781042099,0.9691426753997803
1780626037385420300,4.369420166015625,-0.2510777711868286,0.601029634475708,0.8213662505149841
1780626037395449300,4.379449462890625,-0.2729378044605255,0.45168623328208923,0.7260274887084961
1780626037405479400,4.3894794921875,-0.273914635181427,0.3760279715061188,0.6548705101013184
1780626037415508200,4.39950830078125,-0.26753610372543335,0.3904079496860504,0.6044107675552368
1780626037425538300,4.409538330078125,-0.28981077671051025,0.48448440432548523,0.6039860248565674
1780626037435568400,4.419568359375,-0.31709086894989014,0.6092926263809204,0.6681876182556152
1780626037445597400,4.429597412109375,-0.3157520890235901,0.7172859311103821,0.7582607865333557
1780626037455627300,4.439627197265625,-0.2831243872642517,0.7696873545646667,0.8437264561653137
1780626037465656300,4.44965625,-0.21156445145606995,0.7511054277420044,0.873442530632019
1780626037475686400,4.459686279296875,-0.12344949692487717,0.7043946385383606,0.7934089303016663
1780626037485716200,4.46971630859375,-0.06789356470108032,0.6831082701683044,0.6532739400863647
1780626037495745500,4.47974560546875,-0.053642190992832184,0.7292981147766113,0.48449212312698364
1780626037505775000,4.489775146484375,-0.06369481980800629,0.8059353828430176,0.31869328022003174
1780626037515804400,4.499804443359375,-0.05790990591049194,0.8603832125663757,0.18373814225196838
1780626037525834200,4.509834228515625,-0.043293945491313934,0.8658447861671448,0.1111811175942421
1780626037535864300,4.5198642578125,-0.03611166402697563,0.787588357925415,0.10679914802312851
1780626037545893400,4.529893310546875,-0.05571359768509865,0.6363252997398376,0.13664066791534424
1780626037555923200,4.539923095703125,-0.09894975274801254,0.43578076362609863,0.1585789918899536
1780626037565952300,4.5499521484375,-0.1120477095246315,0.2613988518714905,0.18563324213027954
1780626037575982300,4.559982421875,-0.09962299466133118,0.15012212097644806,0.20971621572971344
1780626037586012400,4.570012451171875,-0.06987442076206207,0.11218379437923431,0.21711021661758423
1780626037596041200,4.580041259765625,-0.02143019065260887,0.14714497327804565,0.18413016200065613
1780626037606071300,4.5900712890625,0.04984239116311073,0.2792726457118988,0.0844040960073471
1780626037616100400,4.600100341796875,0.10096149891614914,0.34373900294303894,-0.08900923281908035
1780626037626130400,4.61013037109375,0.09918863326311111,0.31248173117637634,-0.31491532921791077
1780626037636160300,4.62016015625,0.09215336292982101,0.1722750961780548,-0.5282931327819824
1780626037646189300,4.630189208984375,0.10045390576124191,0.022481074556708336,-0.6890242099761963
1780626037656219100,4.64021923828125,0.11178884655237198,-0.11531194299459457,-0.7747148871421814
1780626037666248400,4.65024853515625,0.1311550885438919,-0.22368715703487396,-0.7863047122955322
1780626037676278300,4.6602783203125,0.15222975611686707,-0.2693241536617279,-0.7513208985328674
1780626037686308400,4.670308349609375,0.17374782264232635,-0.2543012499809265,-0.7097862362861633
1780626037696337200,4.680337158203125,0.18195994198322296,-0.19625979661941528,-0.6579275727272034
1780626037706367200,4.6903671875,0.18030905723571777,-0.12303484231233597,-0.6053311824798584
1780626037716396300,4.700396240234375,0.16313619911670685,-0.050455182790756226,-0.5609986186027527
1780626037726426400,4.71042626953125,0.11654658615589142,0.005684783682227135,-0.5509843230247498
1780626037736456400,4.72045654296875,0.07169043272733688,0.024995097890496254,-0.5851374864578247
1780626037746485200,4.7304853515625,0.06678355485200882,0.032892968505620956,-0.6290378570556641
1780626037756515300,4.740515380859375,0.07236234843730927,0.030613036826252937,-0.6504848003387451
1780626037766544400,4.75054443359375,0.07223983854055405,0.015852466225624084,-0.636664867401123
1780626037776574500,4.760574462890625,0.07072050869464874,0.010714962147176266,-0.6193665862083435
1780626037786603300,4.770603271484375,0.05012894794344902,-0.027711255475878716,-0.7075909972190857
1780626037796633300,4.78063330078125,0.04743009805679321,-0.18638639152050018,-1.1070020198822021
1780626037806663200,4.7906630859375,0.04406093433499336,-0.37380608916282654,-1.7358769178390503
1780626037816692500,4.8006923828125,0.04279913008213043,-0.2977302074432373,-2.0574193000793457
1780626037826722300,4.810722412109375,0.0076062544248998165,0.01631026342511177,-1.9156168699264526
1780626037836751000,4.820751220703125,-0.08676951378583908,0.41040536761283875,-1.5877203941345215
1780626037846781200,4.83078125,-0.16833041608333588,0.6439691185951233,-1.259575366973877
1780626037856811300,4.840811279296875,-0.18974170088768005,0.5516125559806824,-0.9692627787590027
1780626037866840300,4.85084033203125,-0.1648659110069275,0.2519659399986267,-0.8164886832237244
1780626037876870400,4.860870361328125,-0.05583024397492409,-0.02112925425171852,-0.8167939186096191
1780626037886899200,4.870899169921875,0.07672034204006195,-0.22870588302612305,-0.9085387587547302
1780626037896929300,4.88092919921875,0.18998591601848602,-0.34790682792663574,-1.020642876625061
1780626037906959400,4.89095947265625,0.27000752091407776,-0.3498826324939728,-1.1022647619247437
1780626037916988400,4.900988525390625,0.2998698055744171,-0.431530624628067,-1.0803086757659912
1780626037927018500,4.9110185546875,0.2317938208580017,-0.5553878545761108,-0.9651985764503479
1780626037937047300,4.92104736328125,0.0756140649318695,-0.5767141580581665,-0.8795595169067383
1780626037947077400,4.931077392578125,-0.03960173949599266,-0.5863273739814758,-0.8465787172317505
1780626037957107200,4.941107177734375,-0.05741002783179283,-0.590713381767273,-0.8214253783226013
1780626037967136300,4.95113623046875,0.0011579424608498812,-0.6304572820663452,-0.7850519418716431
1780626037977166300,4.961166259765625,0.10163021832704544,-0.7100317478179932,-0.7074477076530457
1780626037987195100,4.971195068359375,0.18313120305538177,-0.7934728860855103,-0.5724813342094421
1780626037997225200,4.98122509765625,0.2296513020992279,-0.9200646281242371,-0.3740553557872772
1780626038007255300,4.99125537109375,0.22665631771087646,-1.0386943817138672,-0.14140000939369202
1780626038017284400,5.001284423828125,0.21361321210861206,-1.133837103843689,0.10293889790773392
1780626038027314400,5.011314453125,0.17821528017520905,-1.2071059942245483,0.3664408326148987
1780626038037343200,5.02134326171875,0.1176680400967598,-1.244875431060791,0.6293789744377136
1780626038047373300,5.031373291015625,0.03864113613963127,-1.262039303779602,0.8623693585395813
1780626038057403400,5.0414033203125,-0.02869636006653309,-1.2717983722686768,1.0466574430465698
1780626038067432400,5.051432373046875,-0.07543403655290604,-1.2167761325836182,1.1578752994537354
1780626038077462500,5.061462646484375,-0.0694698914885521,-1.1415706872940063,1.2104402780532837
1780626038087491300,5.0714912109375,-0.03845018520951271,-1.1538400650024414,1.2006547451019287
1780626038097521400,5.081521484375,-0.07426490634679794,-1.176277756690979,1.0520356893539429
1780626038107550500,5.091550537109375,-0.1387094110250473,-0.9271217584609985,0.8613808155059814
1780626038117580300,5.101580322265625,0.06909118592739105,-0.2872093915939331,1.0233803987503052
1780626038127610000,5.111610107421875,0.5601852536201477,0.11733594536781311,1.2612406015396118
1780626038137639200,5.12163916015625,1.0812093019485474,-0.05945906415581703,1.0815964937210083
1780626038147669200,5.131669189453125,1.3306686878204346,-0.1328216940164566,0.486672967672348
1780626038157698300,5.1416982421875,1.3089913129806519,0.7486201524734497,-0.01570253074169159
1780626038167728400,5.151728271484375,1.2459415197372437,1.605965495109558,-0.5136417746543884
1780626038177758200,5.16175830078125,1.2974060773849487,1.4176112413406372,-0.8257503509521484
1780626038187787300,5.171787353515625,1.4448120594024658,0.5003930330276489,-0.8501760959625244
1780626038197817300,5.1818173828125,1.3877495527267456,-0.2019195407629013,-0.8431648015975952
1780626038207846400,5.191846435546875,0.9222782254219055,0.03599368780851364,-0.4483831226825714
1780626038217876500,5.20187646484375,0.4723465144634247,0.39830130338668823,0.2849113643169403
1780626038227906300,5.21190625,0.23377494513988495,0.34829431772232056,1.0640662908554077
1780626038237935400,5.221935302734375,0.08954506367444992,0.35819488763809204,1.6016887426376343
1780626038247965400,5.23196533203125,0.00851758848875761,0.41484591364860535,1.653128981590271
1780626038257994500,5.241994384765625,-0.029027657583355904,0.259490430355072,1.2874149084091187
1780626038268024300,5.2520244140625,-0.03792101517319679,-0.048588041216135025,0.8109237551689148
1780626038278054100,5.26205419921875,0.006881075445562601,-0.20321597158908844,0.48223376274108887
1780626038288083200,5.272083251953125,0.08038858324289322,-0.18690277636051178,0.2878379225730896
1780626038298113300,5.28211328125,0.1572074592113495,-0.12133042514324188,0.1683322787284851
1780626038308142300,5.292142333984375,0.2127721905708313,-0.09482477605342865,0.16245682537555695
1780626038318172200,5.302172119140625,0.2718338966369629,-0.13374927639961243,0.2455114871263504
1780626038328202200,5.3122021484375,0.3328530490398407,-0.15904317796230316,0.3830040991306305
1780626038338231300,5.322231201171875,0.3695727288722992,-0.08471941202878952,0.5568880438804626
1780626038348261400,5.332261474609375,0.3763941526412964,0.027999676764011383,0.7304403781890869
1780626038358290400,5.34229052734375,0.3629470467567444,0.09741789847612381,0.832504153251648
1780626038368320300,5.3523203125,0.3307912349700928,0.10926630347967148,0.8207127451896667
1780626038378350300,5.362350341796875,0.2699374854564667,0.07940880209207535,0.6783875226974487
1780626038388379400,5.37237939453125,0.1941652148962021,0.04476027935743332,0.4423891305923462
1780626038398409500,5.382409423828125,0.1250639110803604,0.020413661375641823,0.20568764209747314
1780626038408438300,5.392438232421875,0.10406515002250671,0.0028357338160276413,0.03277365863323212
1780626038418468400,5.40246826171875,0.11421285569667816,0.015913186594843864,-0.05432156100869179
1780626038428498200,5.412498291015625,0.1367298811674118,0.05751895159482956,-0.06786905974149704
1780626038438527200,5.42252734375,0.13862232863903046,0.1205703541636467,-0.041365016251802444
1780626038448557300,5.432557373046875,0.12356667965650558,0.16888223588466644,0.023937290534377098
1780626038458586000,5.442586181640625,0.08919006586074829,0.19539958238601685,0.11001837998628616
1780626038468616200,5.4526162109375,0.04964957758784294,0.1972811073064804,0.2052610069513321
1780626038478645200,5.462645263671875,0.014904913492500782,0.16875652968883514,0.3042445778846741
1780626038488675300,5.47267529296875,-0.011326956562697887,0.1068047434091568,0.3998752236366272
1780626038498705400,5.482705322265625,-0.033123333007097244,0.016152869910001755,0.47844913601875305
1780626038508734200,5.492734130859375,-0.043164514005184174,-0.06688742339611053,0.5401162505149841
1780626038518764300,5.502764404296875,-0.024581242352724075,-0.10791128873825073,0.5791669487953186
1780626038528793300,5.51279345703125,0.023259783163666725,-0.12725383043289185,0.5575540661811829
1780626038538823400,5.522823486328125,0.06592761725187302,-0.13298574090003967,0.46859437227249146
1780626038548853200,5.532853271484375,0.08781906962394714,-0.10810916125774384,0.33288607001304626
1780626038558882300,5.54288232421875,0.0673643946647644,-0.07345051318407059,0.18693898618221283
1780626038568912400,5.552912353515625,0.014451643452048302,-0.0558861680328846,0.059840429574251175
1780626038578941400,5.56294140625,-0.030436469241976738,-0.060612745583057404,-0.02564251236617565
1780626038588971300,5.57297119140625,-0.040166594088077545,-0.08094145357608795,-0.06071847304701805
1780626038599001000,5.5830009765625,-0.03322053700685501,-0.11268260329961777,-0.07053408771753311
1780626038609030100,5.593030029296875,-0.027168504893779755,-0.1476144939661026,-0.06670206785202026
1780626038619060200,5.603060302734375,-0.0010793792316690087,-0.15222148597240448,-0.049065012484788895
1780626038629089300,5.61308935546875,0.06290066987276077,-0.11369913816452026,-0.012865465134382248
1780626038639119400,5.623119384765625,0.11991788446903229,-0.05650295689702034,0.013456686399877071
1780626038649149200,5.633149169921875,0.0929001122713089,0.027402596548199654,0.02190077118575573
1780626038659178200,5.64317822265625,-0.006158027332276106,0.13128292560577393,0.07235515862703323
1780626038669208300,5.653208251953125,-0.08054624497890472,0.17096935212612152,0.1285875290632248
1780626038679237400,5.6632373046875,-0.13402491807937622,0.12061163783073425,0.13632269203662872
1780626038689267200,5.67326708984375,-0.161163330078125,0.06463757902383804,0.12406709045171738
1780626038699297300,5.68329736328125,-0.1581915020942688,0.021398765966296196,0.11134809255599976
1780626038709326300,5.693326416015625,-0.1348869800567627,-0.03707599639892578,0.07542338222265244
1780626038719356400,5.7033564453125,-0.11060746759176254,-0.0960082858800888,0.030040722340345383
1780626038729385500,5.713385498046875,-0.08676578849554062,-0.12477175891399384,-0.0038685076870024204
1780626038739415300,5.723415283203125,-0.05712054297327995,-0.12979528307914734,-0.008697884157299995
1780626038749445000,5.733445068359375,-0.01381301786750555,-0.13482093811035156,0.002319879597052932
1780626038759474200,5.74347412109375,0.02905162423849106,-0.14612925052642822,0.002636263146996498
1780626038769504300,5.753504150390625,0.039995353668928146,-0.17830689251422882,-0.03210840001702309
1780626038779533300,5.763533203125,0.014259097166359425,-0.21031701564788818,-0.08424270898103714
1780626038789563100,5.773563232421875,-0.01926237717270851,-0.22155049443244934,-0.11768615245819092
1780626038799593200,5.78359326171875,-0.043420977890491486,-0.21159987151622772,-0.12079299986362457
1780626038809622300,5.793622314453125,-0.0474812313914299,-0.1968081295490265,-0.10990572720766068
1780626038819652400,5.80365234375,-0.052083708345890045,-0.1788693517446518,-0.0883098915219307
1780626038829681200,5.81368115234375,-0.06650392711162567,-0.1465846449136734,-0.05211939290165901
1780626038839711200,5.823711181640625,-0.07993744313716888,-0.12302206456661224,-0.008185225538909435
1780626038849740300,5.833740234375,-0.08183574676513672,-0.10878533869981766,0.041250232607126236
1780626038859770400,5.843770263671875,-0.0673217847943306,-0.10591551661491394,0.08871015906333923
1780626038869800400,5.853800537109375,-0.06542135030031204,-0.12699203193187714,0.11687921732664108
1780626038879829200,5.863829345703125,-0.1007833331823349,-0.14341016113758087,0.11572739481925964
1780626038889859000,5.873859130859375,-0.1546524316072464,-0.1509580910205841,0.08836022019386292
1780626038899888400,5.883888427734375,-0.1978776603937149,-0.15893372893333435,0.07095486670732498
1780626038909918200,5.893918212890625,-0.22246849536895752,-0.14793193340301514,0.07290243357419968
1780626038919948300,5.9039482421875,-0.21229788661003113,-0.11487918347120285,0.10686413198709488
1780626038929977000,5.91397705078125,-0.18374399840831757,-0.07247153669595718,0.14163382351398468
1780626038940007200,5.924007080078125,-0.1567683070898056,-0.016266588121652603,0.15047472715377808
1780626038950036200,5.9340361328125,-0.1600988507270813,0.012140286155045033,0.142861008644104
1780626038960066300,5.94406640625,-0.154197558760643,0.004730839282274246,0.13431839644908905
1780626038970096400,5.954096435546875,-0.1278892606496811,-0.04946422204375267,0.1172507256269455
1780626038980125200,5.964125244140625,-0.10901809483766556,-0.10914406180381775,0.08462247252464294
1780626038990155300,5.9741552734375,-0.09990289807319641,-0.14588743448257446,0.040837179869413376
1780626039000184300,5.984184326171875,-0.10074978321790695,-0.17095230519771576,-0.002403236459940672
1780626039010214400,5.99421435546875,-0.10747532546520233,-0.1749555617570877,-0.027187678962945938
1780626039020244500,6.004244384765625,-0.11636469513177872,-0.1777590811252594,-0.01859578862786293
1780626039030273300,6.014273193359375,-0.12824106216430664,-0.17396540939807892,0.025055551901459694
1780626039040303000,6.02430322265625,-0.13363981246948242,-0.18803435564041138,0.08379236608743668
1780626039050332400,6.03433251953125,-0.13365446031093597,-0.21302439272403717,0.13697490096092224
1780626039060362200,6.0443623046875,-0.1342637985944748,-0.2470790296792984,0.15379728376865387
1780626039070392300,6.054392333984375,-0.14233477413654327,-0.3169105648994446,0.1110178604722023
1780626039080421000,6.064421142578125,-0.15058284997940063,-0.3824741244316101,0.019184347242116928
1780626039090451200,6.074451171875,-0.15829403698444366,-0.42651671171188354,-0.07943437248468399
1780626039100480300,6.084480224609375,-0.1538233906030655,-0.4368034303188324,-0.1475420594215393
1780626039110510300,6.09451025390625,-0.12932176887989044,-0.4204625189304352,-0.17466580867767334
1780626039120540400,6.10454052734375,-0.11061412841081619,-0.40463030338287354,-0.1716924011707306
1780626039130569200,6.1145693359375,-0.09795745462179184,-0.39897453784942627,-0.16354258358478546
1780626039140599300,6.124599365234375,-0.0803997665643692,-0.39209747314453125,-0.1472371220588684
1780626039150628400,6.13462841796875,-0.058520834892988205,-0.4074798822402954,-0.14132170379161835
1780626039160658400,6.144658447265625,-0.0538318045437336,-0.4253787398338318,-0.14269296824932098
1780626039170688500,6.1546884765625,-0.06160077825188637,-0.42442184686660767,-0.13842950761318207
1780626039180717300,6.16471728515625,-0.06998707354068756,-0.40867137908935547,-0.12843014299869537
1780626039190747100,6.1747470703125,-0.06959053128957748,-0.36763206124305725,-0.10735947638750076
1780626039200776400,6.1847763671875,-0.0645209327340126,-0.3025958240032196,-0.0862768292427063
1780626039210806300,6.19480615234375,-0.0696973204612732,-0.22251003980636597,-0.06626717001199722
1780626039220835300,6.20483544921875,-0.08023864775896072,-0.1526726335287094,-0.05456976965069771
1780626039230865200,6.214865234375,-0.08669814467430115,-0.1086236834526062,-0.05787261947989464
1780626039240895200,6.224895263671875,-0.07748999446630478,-0.09219357371330261,-0.06643734872341156
1780626039250924300,6.23492431640625,-0.06328629702329636,-0.12191658467054367,-0.08069591224193573
1780626039260954400,6.244954345703125,-0.0403016172349453,-0.1840161681175232,-0.08488932251930237
1780626039270983200,6.254983154296875,-0.025947976857423782,-0.2045922875404358,-0.08146529644727707
1780626039281013200,6.26501318359375,-0.011432950384914875,-0.16990701854228973,-0.07976780086755753
1780626039291043300,6.275043212890625,-0.0028391960076987743,-0.11624298244714737,-0.07899175584316254
1780626039301072400,6.285072265625,0.010251305997371674,-0.052438441663980484,-0.0737338736653328
1780626039311102500,6.2951025390625,0.027091005817055702,0.024383636191487312,-0.06335367262363434
1780626039321131300,6.30513134765625,0.021104753017425537,0.09681069850921631,-0.048653289675712585
1780626039331161300,6.315161376953125,-0.02245231159031391,0.1246417984366417,-0.023255787789821625
1780626039341191200,6.325191162109375,-0.06685013324022293,0.11912026256322861,0.019775036722421646
1780626039351220500,6.335220458984375,-0.08912215381860733,0.1151585504412651,0.07100147008895874
1780626039361250000,6.34525,-0.08058752119541168,0.09569083899259567,0.10830916464328766
1780626039371279400,6.355279296875,-0.04824875667691231,0.07970015704631805,0.11460141092538834
1780626039381309400,6.365309326171875,-0.04075035825371742,-0.023664848878979683,0.1404772251844406
1780626039391339500,6.375339599609375,-0.02630350925028324,-0.19086049497127533,0.16818447411060333
1780626039401368600,6.38536865234375,0.029139775782823563,-0.3312021493911743,0.15279939770698547
1780626039411398400,6.3953984375,0.11205809563398361,-0.3684976100921631,0.0718185305595398
1780626039421427500,6.405427490234375,0.17479151487350464,-0.3161582350730896,-0.07097137719392776
1780626039431457500,6.41545751953125,0.1793343424797058,-0.30169540643692017,-0.20508123934268951
1780626039441487600,6.425487548828125,0.18747402727603912,-0.37254321575164795,-0.2965256869792938
1780626039451516700,6.4355166015625,0.18587452173233032,-0.41715729236602783,-0.3485683798789978
1780626039461546500,6.44554638671875,0.16108103096485138,-0.41562941670417786,-0.36858096718788147
1780626039471575600,6.455575439453125,0.10954966396093369,-0.4372100830078125,-0.3595448434352875
1780626039481605600,6.465605712890625,0.06904751062393188,-0.4829466938972473,-0.33411139249801636
1780626039491634700,6.475634765625,0.03820517659187317,-0.478225439786911,-0.31914976239204407
1780626039501664500,6.48566455078125,0.0007664577569812536,-0.4860583245754242,-0.27657192945480347
1780626039511694300,6.4956943359375,-0.008501875214278698,-0.4903814196586609,-0.20057810842990875
1780626039521723400,6.505723388671875,0.004844556096941233,-0.4616469740867615,-0.12906290590763092
1780626039531753500,6.51575341796875,-0.0026911243330687284,-0.5064895749092102,-0.046484146267175674
1780626039541783600,6.525783447265625,-0.009513077326118946,-0.6092633605003357,0.01685221679508686
1780626039551812400,6.535812255859375,0.014207165688276291,-0.6449390649795532,-0.02015347220003605
1780626039561842400,6.545842529296875,0.006525010801851749,-0.6640222072601318,-0.07938936352729797
1780626039571871500,6.55587158203125,-0.0043992758728563786,-0.6677080392837524,-0.10791847854852676
1780626039581901600,6.565901611328125,0.017475929111242294,-0.595060408115387,-0.1292908787727356
1780626039591930600,6.5759306640625,0.02304113656282425,-0.5441458821296692,-0.14884833991527557
1780626039601960400,6.58596044921875,0.018914036452770233,-0.5322641730308533,-0.20225615799427032
1780626039611990500,6.595990478515625,0.026152241975069046,-0.49630749225616455,-0.3031731843948364
1780626039622019600,6.60601953125,0.020258666947484016,-0.4565635323524475,-0.382363885641098
1780626039632049700,6.616049560546875,0.034505512565374374,-0.412180632352829,-0.39775508642196655
1780626039642078700,6.62607861328125,0.06368150562047958,-0.4053211212158203,-0.35664626955986023
1780626039652108500,6.636108642578125,0.09045533090829849,-0.4419366717338562,-0.3336280286312103
1780626039662138400,6.646138427734375,0.10828892141580582,-0.48141270875930786,-0.3397269546985626
1780626039672167400,6.65616748046875,0.11107352375984192,-0.4693528413772583,-0.29315757751464844
1780626039682197500,6.666197509765625,0.120249442756176,-0.39282292127609253,-0.18606334924697876
1780626039692226300,6.676226318359375,0.1460259109735489,-0.30074119567871094,-0.07123769074678421
1780626039702256400,6.68625634765625,0.1968528777360916,-0.27704837918281555,-0.017668742686510086
1780626039712286500,6.696286376953125,0.2207973599433899,-0.30440303683280945,-0.049859169870615005
1780626039722315500,6.7063154296875,0.21684283018112183,-0.2747844159603119,-0.12584234774112701
1780626039732345600,6.716345703125,0.2023824006319046,-0.17375554144382477,-0.17871488630771637
1780626039742374400,6.72637451171875,0.19507788121700287,-0.06951116770505905,-0.19857648015022278
1780626039752404500,6.736404541015625,0.17882007360458374,-0.04279540106654167,-0.1856313794851303
1780626039762434600,6.7464345703125,0.15433017909526825,-0.05168556421995163,-0.12278903275728226
1780626039772463600,6.756463623046875,0.1488528549671173,-0.07166886329650879,-0.04405321180820465
1780626039782493700,6.76649365234375,0.16229969263076782,-0.13029968738555908,-0.019645074382424355
1780626039792522500,6.7765224609375,0.18469581007957458,-0.2135186791419983,-0.07816111296415329
1780626039802552600,6.786552490234375,0.1783905178308487,-0.2654876112937927,-0.13871048390865326
1780626039812582400,6.79658251953125,0.14726002514362335,-0.2486063539981842,-0.14077523350715637
1780626039822611500,6.806611572265625,0.11176088452339172,-0.18087683618068695,-0.07905114442110062
1780626039832641500,6.8166416015625,0.08973228186368942,-0.0952863022685051,0.011600463651120663
1780626039842670300,6.82667041015625,0.08099072426557541,-0.03441736102104187,0.10239135473966599
1780626039852700400,6.836700439453125,0.09300104528665543,-0.030641797930002213,0.15741997957229614
1780626039862729500,6.8467294921875,0.10365768522024155,-0.07603191584348679,0.1659756600856781
1780626039872759600,6.856759521484375,0.10731606930494308,-0.1298661231994629,0.13580097258090973
1780626039882789600,6.86678955078125,0.10732565820217133,-0.1803964078426361,0.08670186996459961
1780626039892818400,6.876818359375,0.11981108784675598,-0.21417966485023499,0.0357593297958374
1780626039902848500,6.8868486328125,0.13475409150123596,-0.21211625635623932,-0.020295152440667152
1780626039912877600,6.896877685546875,0.14598649740219116,-0.1844145804643631,-0.07274691015481949
1780626039922907600,6.90690771484375,0.14316675066947937,-0.16030791401863098,-0.11630077660083771
1780626039932937700,6.916937744140625,0.13959172368049622,-0.15011732280254364,-0.12175706028938293
1780626039942966500,6.926966552734375,0.12949088215827942,-0.15607482194900513,-0.08615858852863312
1780626039952996600,6.93699658203125,0.13555143773555756,-0.16737700998783112,-0.051543351262807846
1780626039963025700,6.947025634765625,0.14424079656600952,-0.18123556673526764,-0.026666764169931412
1780626039973055500,6.957055419921875,0.15647588670253754,-0.21495118737220764,-0.006405168678611517
1780626039983085600,6.96708544921875,0.1745622158050537,-0.24353303015232086,-0.014251107349991798
1780626039993114400,6.9771142578125,0.17150330543518066,-0.24974112212657928,-0.030902788043022156
1780626040003144400,6.98714453125,0.13851286470890045,-0.2476034015417099,-0.01769697107374668
1780626040013173500,6.997173583984375,0.09708260744810104,-0.2433852255344391,0.026254240423440933
1780626040023203600,7.00720361328125,0.06738995760679245,-0.242362841963768,0.09229850769042969
1780626040033233700,7.017233642578125,0.05705955624580383,-0.24601323902606964,0.1585582196712494
1780626040043262500,7.027262451171875,0.05372687801718712,-0.27133750915527344,0.18945381045341492
1780626040053292500,7.03729248046875,0.05157584324479103,-0.3274074196815491,0.17664454877376556
1780626040063321600,7.047321533203125,0.05890006944537163,-0.39234036207199097,0.13110210001468658
1780626040073351700,7.0573515625,0.06729941070079803,-0.46015429496765137,0.074156254529953
1780626040083381500,7.067381591796875,0.07609663158655167,-0.504639744758606,0.020121512934565544
1780626040093410600,7.07741064453125,0.09436298906803131,-0.4942115843296051,-0.018814966082572937
1780626040103440600,7.087440673828125,0.11554284393787384,-0.464331716299057,-0.04220044985413551
1780626040113469700,7.0974697265625,0.1446613073348999,-0.45161113142967224,-0.07094182074069977
1780626040123499500,7.10749951171875,0.17103299498558044,-0.4712466299533844,-0.12156344950199127
1780626040133529300,7.117529296875,0.18412482738494873,-0.5224509239196777,-0.21814857423305511
1780626040143558400,7.127558349609375,0.18029333651065826,-0.5767139196395874,-0.3176930248737335
1780626040153588500,7.13758837890625,0.17170624434947968,-0.5646077394485474,-0.3791973888874054
1780626040163617500,7.147617431640625,0.17497608065605164,-0.4776030480861664,-0.38004639744758606
1780626040173647600,7.157647705078125,0.2019195407629013,-0.3749043643474579,-0.34083986282348633
1780626040183677400,7.167677490234375,0.2595151960849762,-0.2931666374206543,-0.31545037031173706
1780626040193706500,7.17770654296875,0.3204682767391205,-0.2568131387233734,-0.320833683013916
1780626040203736600,7.187736572265625,0.3565714359283447,-0.23787488043308258,-0.3461688756942749
1780626040213765600,7.197765625,0.3992190361022949,-0.19811654090881348,-0.37190672755241394
1780626040223795500,7.20779541015625,0.4453508257865906,-0.14040131866931915,-0.4393584728240967
1780626040233825500,7.217825439453125,0.43866443634033203,-0.08660013973712921,-0.5474820137023926
1780626040243854600,7.2278544921875,0.3703937828540802,0.0027028422337025404,-0.6368414163589478
1780626040253884700,7.237884765625,0.29433494806289673,0.18225476145744324,-0.656912624835968
1780626040263913700,7.247913818359375,0.24987640976905823,0.44406744837760925,-0.580334484577179
1780626040273943600,7.257943603515625,0.24440361559391022,0.6293579339981079,-0.42840835452079773
1780626040283972600,7.26797265625,0.24706891179084778,0.6884202361106873,-0.30024823546409607
1780626040294002400,7.27800244140625,0.23529987037181854,0.6873434782028198,-0.2499523162841797
1780626040304032500,7.288032470703125,0.21219481527805328,0.6863937973976135,-0.2824098467826843
1780626040314061600,7.2980615234375,0.16872723400592804,0.7274954319000244,-0.38384565711021423
1780626040324091400,7.30809130859375,0.06478991359472275,0.7346636056900024,-0.4954310357570648
1780626040334120400,7.318120361328125,-0.07804713398218155,0.6875863671302795,-0.5519025921821594
1780626040344150500,7.328150634765625,-0.16064614057540894,0.6801015734672546,-0.47374600172042847
1780626040354180600,7.3381806640625,-0.16539135575294495,0.698900043964386,-0.2762337327003479
1780626040364209400,7.34820947265625,-0.10835123807191849,0.5914247035980225,-0.0667547956109047
1780626040374239500,7.358239501953125,-0.031186414882540703,0.47634363174438477,0.04802984371781349
1780626040384268500,7.3682685546875,-0.028594359755516052,0.5005784034729004,0.05868621543049812
1780626040394298600,7.378298583984375,-0.08930271118879318,0.6234276294708252,0.028264660388231277
1780626040404328700,7.38832861328125,-0.13845987617969513,0.6517277359962463,-0.07183744013309479
1780626040414357500,7.398357421875,-0.15417039394378662,0.5257777571678162,-0.21122010052204132
1780626040424387300,7.40838720703125,-0.15741918981075287,0.3865663409233093,-0.33665579557418823
1780626040434416600,7.418416748046875,-0.1415880173444748,0.2745354175567627,-0.3950008451938629
1780626040444446500,7.428446533203125,-0.10797040909528732,0.24594531953334808,-0.33413243293762207
1780626040454476500,7.4384765625,-0.04460528492927551,0.18888816237449646,-0.23847702145576477
1780626040464505300,7.44850537109375,0.009700031951069832,0.16724997758865356,-0.18579010665416718
1780626040474535400,7.458535400390625,0.014271081425249577,0.23937582969665527,-0.20351263880729675
1780626040484564500,7.468564453125,-0.05579162761569023,0.42568153142929077,-0.18969616293907166
1780626040494594600,7.478594482421875,-0.10477142035961151,0.5687883496284485,-0.13074709475040436
1780626040504624600,7.488624755859375,-0.10053139925003052,0.5562264919281006,-0.06298854947090149
1780626040514653400,7.4986533203125,-0.06904404610395432,0.40641462802886963,-0.000984836951829493
1780626040524683500,7.50868359375,-0.01464925054460764,0.2490236759185791,0.05203603580594063
1780626040534712600,7.518712646484375,0.06437872350215912,0.18996195495128632,0.09772789478302002
1780626040544742700,7.52874267578125,0.1519290804862976,0.20322741568088531,0.13103897869586945
1780626040554772700,7.538772705078125,0.2232048511505127,0.24540257453918457,0.10124272853136063
1780626040564801500,7.548801513671875,0.276421457529068,0.33321312069892883,0.02147306688129902
1780626040574831400,7.558831298828125,0.25970375537872314,0.4325737953186035,-0.07389126718044281
1780626040584860700,7.568860595703125,0.18529821932315826,0.553364634513855,-0.12001802027225494
1780626040594890500,7.578890380859375,0.09988825023174286,0.696968138217926,-0.09159649908542633
1780626040604920600,7.588920654296875,0.04927726835012436,0.7290014624595642,-0.014042049646377563
1780626040614949400,7.598949462890625,0.04372164607048035,0.6849789023399353,0.08468905836343765
1780626040624979500,7.6089794921875,0.0731317326426506,0.6215527653694153,0.20644211769104004
1780626040635008500,7.619008544921875,0.11475800722837448,0.5669611692428589,0.285535603761673
1780626040645038600,7.62903857421875,0.13752803206443787,0.5292816758155823,0.29601675271987915
1780626040655068700,7.639068603515625,0.13087067008018494,0.5290342569351196,0.2504764199256897
1780626040665097500,7.649097412109375,0.10263210535049438,0.5083633661270142,0.18330644071102142
1780626040675127600,7.65912744140625,0.0590505376458168,0.49291810393333435,0.12298690527677536
1780626040685156600,7.669156494140625,0.013875601813197136,0.4731353223323822,0.09859900921583176
1780626040695186700,7.679186767578125,-0.01883760280907154,0.4397403597831726,0.07611900568008423
1780626040705215500,7.689215576171875,-0.030012760311365128,0.4124631881713867,0.08332205563783646
1780626040715245600,7.69924560546875,-0.02490748092532158,0.3963574767112732,0.08623795211315155
1780626040725275400,7.709275390625,-0.008330900222063065,0.3882249593734741,0.08221790939569473
1780626040735304700,7.7193046875,-0.0012181298807263374,0.38636234402656555,0.10125657916069031
1780626040745334500,7.72933447265625,-0.020194483920931816,0.3513804078102112,0.11499183624982834
1780626040755363600,7.739363525390625,-0.04643487557768822,0.31414487957954407,0.0862608551979065
1780626040765393400,7.749393310546875,-0.07898003607988358,0.3095586597919464,0.02118890918791294
1780626040775423500,7.759423583984375,-0.11693540960550308,0.34707432985305786,-0.031918518245220184
1780626040785452500,7.76945263671875,-0.15655818581581116,0.3736380338668823,-0.025522669777274132
1780626040795482600,7.779482666015625,-0.17905843257904053,0.3796256184577942,0.015985624864697456
1780626040805511400,7.789511474609375,-0.18980908393859863,0.3616660535335541,0.06672177463769913
1780626040815541500,7.79954150390625,-0.20298106968402863,0.3353724181652069,0.09567459672689438
1780626040825571600,7.809571533203125,-0.21236072480678558,0.3140937387943268,0.1091746911406517
1780626040835600600,7.8196005859375,-0.2143743485212326,0.2545481324195862,0.12316267937421799
1780626040845630500,7.82963037109375,-0.2154630422592163,0.18203797936439514,0.12025583535432816
1780626040855659500,7.839659423828125,-0.20740538835525513,0.12068939954042435,0.09960915148258209
1780626040865689600,7.849689697265625,-0.19479770958423615,0.05753226950764656,0.07369339466094971
1780626040875719400,7.859719482421875,-0.17265033721923828,-0.0006711165769957006,0.012544553726911545
1780626040885748700,7.869748779296875,-0.14519287645816803,-0.049375273287296295,-0.06569645553827286
1780626040895778300,7.8797783203125,-0.1321825385093689,-0.0559985525906086,-0.11281044036149979
1780626040905807600,7.8898076171875,-0.10712352395057678,-0.07140973210334778,-0.13172607123851776
1780626040915837400,7.89983740234375,-0.07249044626951218,-0.11527945101261139,-0.14661820232868195
1780626040925867500,7.909867431640625,-0.04661783576011658,-0.1624954342842102,-0.1817927062511444
1780626040935896600,7.919896484375,-0.03542270511388779,-0.1985679566860199,-0.23569615185260773
1780626040945926400,7.929926513671875,-0.03515345975756645,-0.20998093485832214,-0.28907787799835205
1780626040955955500,7.93995556640625,-0.0417541041970253,-0.23361915349960327,-0.36453136801719666
1780626040965985500,7.949985595703125,-0.044016458094120026,-0.21928122639656067,-0.3896699845790863
1780626040976015600,7.960015625,-0.027513382956385612,-0.15733076632022858,-0.3165108263492584
1780626040986044400,7.97004443359375,-0.004419249482452869,-0.10635999590158463,-0.1942933052778244
1780626040996074500,7.980074462890625,0.015125690028071404,-0.04199698567390442,-0.08796527236700058
1780626041006103600,7.990103515625,0.03014804795384407,0.021416075527668,-0.06198533996939659
1780626041016133600,8.000133544921875,0.016468189656734467,0.0804695412516594,-0.12284975498914719
1780626041026163500,8.01016357421875,-0.018965966999530792,0.12508627772331238,-0.18519675731658936
1780626041036192500,8.020192626953126,-0.07045046240091324,0.16427895426750183,-0.19424670934677124
1780626041046222300,8.030222412109374,-0.09272167831659317,0.14967843890190125,-0.20750792324543
1780626041056251600,8.040251708984375,-0.07882557064294815,0.11991282552480698,-0.21926471590995789
1780626041066281500,8.050281494140625,-0.051840562373399734,0.10448939353227615,-0.19486935436725616
1780626041076311600,8.0603115234375,-0.00891040451824665,0.07677920162677765,-0.15013809502124786
1780626041086340400,8.07034033203125,0.03672872111201286,0.0500706247985363,-0.11070547252893448
1780626041096370400,8.080370361328125,0.056709885597229004,0.04207262024283409,-0.10691286623477936
1780626041106399500,8.0903994140625,0.05345390364527702,0.04219991713762283,-0.10883700102567673
1780626041116429600,8.1004296875,0.045338187366724014,-0.009696302935481071,-0.11760039627552032
1780626041126458400,8.110458251953125,0.039017971605062485,-0.08513406664133072,-0.11794767528772354
1780626041136488400,8.120488525390625,0.019836023449897766,-0.1344134658575058,-0.08650186657905579
1780626041146518500,8.1305185546875,-0.0024735440965741873,-0.14294330775737762,-0.04079296812415123
1780626041156547600,8.140547607421874,-0.014764565043151379,-0.15579652786254883,-0.001287904684431851
1780626041166577700,8.15057763671875,-0.010683270171284676,-0.14692632853984833,0.03855351731181145
1780626041176606500,8.1606064453125,0.011479022912681103,-0.11882412433624268,0.06356193125247955
1780626041186636500,8.170636474609376,0.046417031437158585,-0.08728164434432983,0.06428098678588867
1780626041196666400,8.180666259765625,0.06611882895231247,-0.03912423178553581,0.03741448372602463
1780626041206695700,8.19069580078125,0.07993637770414352,0.029342975467443466,0.026199912652373314
1780626041216725500,8.2007255859375,0.09544156491756439,0.05820231884717941,0.003911118488758802
1780626041226754300,8.21075439453125,0.09789380431175232,0.09401411563158035,-0.03482775390148163
1780626041236784400,8.220784423828125,0.07188723981380463,0.14836683869361877,-0.051425375044345856
1780626041246814500,8.230814453125,0.02936428040266037,0.19081255793571472,-0.0428534559905529
1780626041256843500,8.240843505859376,0.017611484974622726,0.1983354538679123,-0.014521418139338493
1780626041266873600,8.25087353515625,0.03075285255908966,0.1705389767885208,0.018331335857510567
1780626041276902400,8.26090234375,0.030824491754174232,0.1582394391298294,0.02377004362642765
1780626041286932500,8.270932373046875,0.00555295730009675,0.2002638578414917,0.009633186273276806
1780626041296962600,8.280962646484374,-0.024283235892653465,0.22255131602287292,-0.005901032127439976
1780626041306991600,8.29099169921875,-0.04861680418252945,0.23602265119552612,-0.03706321120262146
1780626041317021700,8.301021728515625,-0.06678035855293274,0.23022042214870453,-0.04174425080418587
1780626041327050500,8.311050537109375,-0.08256971091032028,0.21303823590278625,-0.02117452770471573
1780626041337080600,8.32108056640625,-0.09784320741891861,0.2018825262784958,-0.0012234562309458852
1780626041347110400,8.3311103515625,-0.12208942323923111,0.17755481600761414,0.004179564770311117
1780626041357139700,8.3411396484375,-0.13684333860874176,0.14864486455917358,-0.007768707349896431
1780626041367169500,8.35116943359375,-0.16141179203987122,0.11416278779506683,-0.05481557920575142
1780626041377197600,8.361197509765624,-0.20021484792232513,0.11869442462921143,-0.09695158153772354
1780626041387227400,8.371227294921875,-0.2280864268541336,0.11171694099903107,-0.09671242535114288
1780626041397257200,8.38125732421875,-0.2257830649614334,0.05464513599872589,-0.06463838368654251
1780626041407286500,8.39128662109375,-0.17193926870822906,0.06867759674787521,-0.01871483214199543
1780626041417316400,8.40131640625,-0.10306193679571152,0.0259274709969759,0.01888953521847725
1780626041427345400,8.411345458984375,-0.06418484449386597,-0.002017344580963254,0.0376533679664135
1780626041437375200,8.421375244140625,-0.052140697836875916,-0.00509942090138793,0.04493951052427292
1780626041447405300,8.4314052734375,-0.04404841735959053,-0.020057598128914833,0.06731672585010529
1780626041457434400,8.441434326171875,-0.04141002520918846,-0.06214646250009537,0.08192655444145203
1780626041467464400,8.45146435546875,-0.05480359494686127,-0.12217597663402557,0.07931053638458252
1780626041477493200,8.4614931640625,-0.10442600399255753,-0.17467433214187622,0.019965719431638718
1780626041487523300,8.4715234375,-0.1580016165971756,-0.15009282529354095,-0.047393083572387695
1780626041497553400,8.481553466796875,-0.19352898001670837,-0.11931706964969635,-0.13269999623298645
1780626041507582500,8.49158251953125,-0.20185056328773499,-0.1322842687368393,-0.18525294959545135
1780626041517612500,8.501612548828126,-0.19804836809635162,-0.1163223460316658,-0.1776197999715805
1780626041527641300,8.511641357421874,-0.18597519397735596,-0.08197183161973953,-0.14268578588962555
1780626041537671400,8.52167138671875,-0.18139909207820892,-0.05408534035086632,-0.11577346920967102
1780626041547701200,8.531701171875,-0.19134412705898285,-0.04243214428424835,-0.08091215789318085
1780626041557730600,8.54173046875,-0.20517738163471222,-0.06568899750709534,-0.030002374202013016
1780626041567760400,8.551760498046875,-0.2158294916152954,-0.13454502820968628,0.005683451890945435
1780626041577789200,8.5617890625,-0.24516528844833374,-0.21832327544689178,-0.005869873333722353
1780626041587819300,8.5718193359375,-0.3022157847881317,-0.2735987901687622,-0.08647283911705017
1780626041597848300,8.581848388671874,-0.39372414350509644,-0.2803669571876526,-0.11409701406955719
1780626041607878400,8.59187841796875,-0.4595436155796051,-0.2653437852859497,-0.0818309485912323
1780626041617908500,8.601908447265625,-0.47581472992897034,-0.2688181400299072,-0.06864004582166672
1780626041627937300,8.611937255859376,-0.47267699241638184,-0.27004480361938477,-0.09790711849927902
1780626041637967400,8.62196728515625,-0.46783509850502014,-0.27778926491737366,-0.11126234382390976
1780626041647996400,8.631996337890625,-0.45548176765441895,-0.2649379074573517,-0.10477514564990997
1780626041658026500,8.642026611328125,-0.4320736527442932,-0.254822701215744,-0.09974789619445801
1780626041668056600,8.652056640625,-0.4092825949192047,-0.24711285531520844,-0.12128781527280807
1780626041678085400,8.66208544921875,-0.4290006160736084,-0.24016785621643066,-0.14363598823547363
1780626041688115500,8.672115478515625,-0.4912613332271576,-0.2549971342086792,-0.1972038745880127
1780626041698144500,8.68214453125,-0.5628870725631714,-0.2496018409729004,-0.2534887194633484
1780626041708174600,8.692174560546874,-0.6177383065223694,-0.19438572227954865,-0.24531787633895874
1780626041718204400,8.702204345703125,-0.5983721017837524,-0.16010631620883942,-0.1605912744998932
1780626041728233200,8.712233154296875,-0.5067766308784485,-0.17338350415229797,-0.08455988764762878
1780626041738263300,8.72226318359375,-0.3765621781349182,-0.17326046526432037,-0.05783267319202423
1780626041748292400,8.732292236328124,-0.254342257976532,-0.12410863488912582,-0.036505281925201416
1780626041758322400,8.742322509765625,-0.17234407365322113,-0.08644221723079681,-0.055330634117126465
1780626041768352500,8.7523525390625,-0.1607590615749359,-0.047145675867795944,-0.09102737903594971
1780626041778381300,8.76238134765625,-0.1834324151277542,-0.023426761850714684,-0.16570107638835907
1780626041788411400,8.772411376953125,-0.2265218198299408,0.05905000492930412,-0.19455164670944214
1780626041798440400,8.7824404296875,-0.2726834714412689,0.14403173327445984,-0.21265821158885956
1780626041808470500,8.792470458984376,-0.3033854365348816,0.20844748616218567,-0.19208075106143951
1780626041818500400,8.802500244140624,-0.3176591992378235,0.26024091243743896,-0.11302269250154495
1780626041828529400,8.812529296875,-0.3147773742675781,0.32371893525123596,-0.03750556334853172
1780626041838559500,8.8225595703125,-0.2877494990825653,0.4119369685649872,0.019593141973018646
1780626041848588500,8.832588623046876,-0.2269306182861328,0.4923095703125,0.06870875507593155
1780626041858618600,8.84261865234375,-0.14329910278320312,0.5100856423377991,0.11020933091640472
1780626041868648200,8.852648193359375,-0.09231368452310562,0.48778486251831055,0.09186627715826035
1780626041878677200,8.86267724609375,-0.07886312156915665,0.4605391025543213,0.05549974367022514
1780626041888707300,8.872707275390624,-0.06405408680438995,0.4331847131252289,0.048660214990377426
1780626041898736400,8.882736328125,-0.028508340939879417,0.3878835439682007,0.06590444594621658
1780626041908766500,8.892766357421875,0.035961996763944626,0.3488842248916626,0.08899085968732834
1780626041918796300,8.90279638671875,0.1312168687582016,0.3428385853767395,0.13680605590343475
1780626041928825300,8.912825439453124,0.2271474003791809,0.358307808637619,0.16528242826461792
1780626041938855400,8.92285546875,0.3046262264251709,0.3590630888938904,0.1955127716064453
1780626041948884500,8.932884521484375,0.3416731655597687,0.3707170784473419,0.19747339189052582
1780626041958914300,8.942914306640626,0.33287516236305237,0.3948511779308319,0.1684958040714264
1780626041968943400,8.952943359375,0.2826862931251526,0.3791281282901764,0.11826539039611816
1780626041978973400,8.962973388671875,0.22578199207782745,0.3744063675403595,0.08902548253536224
1780626041989003500,8.97300341796875,0.19473034143447876,0.3969859778881073,0.07845485955476761
1780626041999032600,8.983032470703124,0.1927390992641449,0.42102232575416565,0.07598051428794861
1780626042009062400,8.9930625,0.2222333401441574,0.43868014216423035,0.08828432112932205
1780626042019091500,9.003091552734375,0.2602531611919403,0.5236762762069702,0.12408360093832016
1780626042029121300,9.013121337890626,0.3250177800655365,0.6009082198143005,0.13710778951644897
1780626042039151400,9.0231513671875,0.40861251950263977,0.6391618251800537,0.13318787515163422
1780626042049180400,9.033180419921875,0.47375157475471497,0.6993668675422668,0.12440211325883865
1780626042059210200,9.043210205078125,0.5220562815666199,0.7432477474212646,0.13314899802207947
1780626042069239300,9.0532392578125,0.5419442057609558,0.7204194068908691,0.12666739523410797
1780626042079269400,9.063269287109375,0.5213164687156677,0.6954110264778137,0.131353497505188
1780626042089299500,9.073299560546875,0.5015523433685303,0.6902966499328613,0.19026608765125275
1780626042099328500,9.08332861328125,0.4876841902732849,0.6478940844535828,0.27191007137298584
1780626042109358300,9.0933583984375,0.4718383848667145,0.591754138469696,0.332935094833374
1780626042119387400,9.103387451171875,0.4866247773170471,0.5475435256958008,0.3529894948005676
1780626042129417500,9.11341748046875,0.5204921960830688,0.5085902810096741,0.3216019868850708
1780626042139447600,9.123447509765626,0.5655826926231384,0.46973127126693726,0.27110472321510315
1780626042149476400,9.133476318359374,0.6281850934028625,0.45624929666519165,0.23829379677772522
1780626042159506400,9.14350634765625,0.712877094745636,0.4868285059928894,0.2166319042444229
1780626042169535500,9.153535400390625,0.7849369049072266,0.5427772402763367,0.18595148622989655
1780626042179565300,9.1635654296875,0.845801591873169,0.5932468175888062,0.1399400532245636
1780626042189595400,9.173595458984375,0.8437698483467102,0.5857473611831665,0.09749459475278854
1780626042199624200,9.183624267578125,0.7625373005867004,0.5000255107879639,0.06083671748638153
1780626042209654300,9.193654296875,0.6233224272727966,0.37355148792266846,0.036320723593235016
1780626042219683300,9.203683349609374,0.48138394951820374,0.2568584084510803,-0.002168345730751753
1780626042229713400,9.21371337890625,0.3653564155101776,0.224785715341568,-0.06299041956663132
1780626042239742500,9.223742431640625,0.2908289134502411,0.30509573221206665,-0.10472747683525085
1780626042249772300,9.233772216796876,0.2449149489402771,0.3746449649333954,-0.09437789767980576
1780626042259802400,9.24380224609375,0.18560342490673065,0.32708650827407837,-0.04466360807418823
1780626042269831400,9.25383154296875,0.21090930700302124,0.3908710777759552,-0.1694396287202835
1780626042279861500,9.263861572265625,0.35000595450401306,0.5951901078224182,-0.4758184552192688
1780626042289890300,9.273890380859376,0.5028918981552124,0.7750943899154663,-0.7278139591217041
1780626042299920400,9.28392041015625,0.565011203289032,0.8486804366111755,-0.8387564420700073
1780626042309950500,9.293950439453125,0.5116739273071289,0.8116002082824707,-0.8496895432472229
1780626042319979500,9.3039794921875,0.3389434516429901,0.6640163064002991,-0.7944518327713013
1780626042330009300,9.31400927734375,0.06314940750598907,0.6987141370773315,-0.7865307927131653
1780626042340038400,9.324038330078125,-0.24767637252807617,0.9352079033851624,-0.8107208013534546
1780626042350068200,9.334068115234375,-0.4582703709602356,0.949740469455719,-0.7914248704910278
1780626042360098300,9.344098388671876,-0.5773608088493347,0.7409198880195618,-0.7291788458824158
1780626042370127400,9.35412744140625,-0.6441278457641602,0.552008867263794,-0.682015597820282
1780626042380157400,9.364157470703125,-0.6826139688491821,0.4716940224170685,-0.6543514728546143
1780626042390186500,9.3741865234375,-0.6810299158096313,0.45847222208976746,-0.6044076085090637
1780626042400216600,9.384216552734374,-0.6372033357620239,0.4846383333206177,-0.5105354189872742
1780626042410246700,9.39424658203125,-0.5409324765205383,0.5331286191940308,-0.3791353404521942
1780626042420275500,9.404275390625,-0.4112384021282196,0.5777216553688049,-0.2308414727449417
1780626042430305500,9.414305419921876,-0.25996553897857666,0.5819198489189148,-0.08485337346792221
1780626042440334600,9.42433447265625,-0.11565762013196945,0.522942841053009,0.06713908910751343
1780626042450364700,9.43436474609375,-0.008685633540153503,0.4367469549179077,0.2172233909368515
1780626042460394500,9.44439453125,0.021398765966296196,0.3537551462650299,0.34955108165740967
1780626042470423600,9.454423583984376,0.00999377854168415,0.23671400547027588,0.45149314403533936
1780626042480453400,9.464453369140625,-0.023390011861920357,0.11701157689094543,0.538041353225708
1780626042490482700,9.474482666015625,-0.06841900199651718,0.04290325939655304,0.6044228076934814
1780626042500512500,9.484512451171875,-0.09224763512611389,0.04097113385796547,0.6762956380844116
1780626042510542600,9.49454248046875,-0.09461119025945663,0.056651826947927475,0.8127123117446899
1780626042520571400,9.5045712890625,-0.09009233862161636,0.09489987790584564,0.9986060261726379
1780626042530601500,9.5146015625,-0.07680503278970718,0.1886197179555893,1.1932346820831299
1780626042540630500,9.524630615234376,-0.035599540919065475,0.30945584177970886,1.3861042261123657
1780626042550660600,9.53466064453125,0.020773189142346382,0.3858587443828583,1.5562493801116943
1780626042560689400,9.544689453125,0.09005159884691238,0.37588202953338623,1.7057632207870483
1780626042570719500,9.554719482421875,0.15618906915187836,0.25463709235191345,1.865310549736023
1780626042580749600,9.56474951171875,0.20596781373023987,0.12181724607944489,2.007465362548828
1780626042590778600,9.574778564453124,0.23673051595687866,-0.01990979164838791,2.1093626022338867
1780626042600808700,9.58480859375,0.2378397285938263,-0.12743225693702698,2.191575765609741
1780626042610837500,9.59483740234375,0.2096261978149414,-0.1695472151041031,2.266374349594116
1780626042620867600,9.60486767578125,0.17859850823879242,-0.14225327968597412,2.2858574390411377
1780626042630897400,9.6148974609375,0.16441451013088226,-0.14944647252559662,2.2610111236572266
1780626042640926700,9.6249267578125,0.1979288011789322,-0.18766923248767853,2.183271884918213
1780626042650956500,9.63495654296875,0.26154372096061707,-0.23102949559688568,2.044583559036255
1780626042660985300,9.6449853515625,0.3459677994251251,-0.20607806742191315,1.8587239980697632
1780626042671015400,9.655015380859375,0.46432799100875854,-0.060690511018037796,1.5710877180099487
1780626042681045500,9.66504541015625,0.5988962054252625,0.18683139979839325,1.1399903297424316
1780626042691074600,9.675074462890626,0.6791249513626099,0.6337692141532898,0.6498640179634094
1780626042701104600,9.685104736328125,0.5920087099075317,1.1090643405914307,0.2746339440345764
1780626042711133400,9.695133544921875,0.4993427097797394,1.386243224143982,0.21721674501895905
1780626042721163500,9.70516357421875,0.35528460144996643,1.2712143659591675,0.41152095794677734
1780626042731193600,9.715193603515624,0.1663639396429062,0.9427028298377991,0.6115422248840332
1780626042741222700,9.72522265625,-0.14531885087490082,0.5516178607940674,0.7648391127586365
1780626042751252500,9.73525244140625,-0.5146985054016113,0.08673249930143356,0.9021742939949036
1780626042761281500,9.745281494140626,-0.7306856513023376,-0.3949044346809387,1.0020647048950195
1780626042771311600,9.7553115234375,-0.7908278107643127,-0.7151679396629333,1.0958443880081177
1780626042781340700,9.765340576171875,-0.7209097146987915,-0.8075580596923828,1.1815212965011597
1780626042791370800,9.775370849609375,-0.604545533657074,-0.7189831733703613,1.2284770011901855
1780626042801400300,9.785400390625,-0.5041922926902771,-0.4775428771972656,1.210287094116211
1780626042811429400,9.795429443359374,-0.462277352809906,-0.12669722735881805,1.1800205707550049
1780626042821459500,9.80545947265625,-0.47265011072158813,0.3152535557746887,1.1891828775405884
1780626042831488500,9.815488525390625,-0.5301027297973633,0.7741849422454834,1.3176950216293335
1780626042841518600,9.8255185546875,-0.5548639893531799,1.2986361980438232,1.524243712425232
1780626042851548400,9.83554833984375,-0.557235836982727,1.8891212940216064,1.7293102741241455
1780626042861577500,9.845577392578125,-0.5467972755432129,2.2941322326660156,1.836042046546936
1780626042871607600,9.855607666015626,-0.49104323983192444,2.1212804317474365,1.6693497896194458
1780626042881636600,9.86563671875,-0.38064029812812805,1.2577403783798218,1.2243187427520752
1780626042891666400,9.87566650390625,-0.32350030541419983,0.17795614898204803,0.7651439905166626
1780626042901696500,9.885696533203125,-0.402950644493103,-0.523472785949707,0.5973433256149292
1780626042911725600,9.8957255859375,-0.5932186245918274,-0.7418555021286011,0.5647560358047485
1780626042921755600,9.905755615234375,-0.7435979843139648,-0.8515883684158325,0.4601028859615326
1780626042931784700,9.91578466796875,-0.8177545070648193,-1.040736198425293,0.2387361377477646
1780626042941814500,9.925814453125,-0.8376320600509644,-1.1093565225601196,-0.04098844528198242
1780626042951844400,9.93584423828125,-0.7718685269355774,-0.7405998110771179,-0.33130523562431335
1780626042961873400,9.945873291015625,-0.7007932662963867,-0.0995233952999115,-0.4351687729358673
1780626042971903500,9.955903564453125,-0.6556055545806885,0.3380499482154846,-0.2928110957145691
1780626042981932500,9.9659326171875,-0.6588785648345947,0.36571407318115234,0.004877579398453236
1780626042991962400,9.97596240234375,-0.71273273229599,0.27288398146629333,0.2704317569732666
1780626043001992400,9.985992431640625,-0.8692209124565125,0.21353305876255035,0.40798455476760864
1780626043012021500,9.996021484375,-1.0461610555648804,0.14584721624851227,0.4470430016517639
1780626043022051600,10.006051513671874,-1.218133568763733,-0.050694867968559265,0.4178246855735779
1780626043032080400,10.016080322265625,-1.3874483108520508,-0.33151376247406006,0.3149038851261139
1780626043042110500,10.0261103515625,-1.5531432628631592,-0.5291919708251953,0.19191138446331024
1780626043052140500,10.036140625,-1.8205134868621826,-0.6817396879196167,0.1816217303276062
1780626043062169600,10.046169677734374,-2.0407299995422363,-0.8603326082229614,0.23341834545135498
1780626043072199700,10.05619970703125,-2.122293472290039,-1.0115453004837036,0.28599339723587036
1780626043082228500,10.066228515625,-2.042943239212036,-1.0021131038665771,0.2979224920272827
1780626043092258600,10.076258544921876,-1.8205249309539795,-0.7814921140670776,0.25290149450302124
1780626043102287600,10.08628759765625,-1.5199048519134521,-0.40313228964805603,0.17451775074005127
1780626043112317400,10.0963173828125,-1.2363892793655396,-0.121966652572155,0.036061063408851624
1780626043122347500,10.106347412109375,-0.9867174029350281,0.04428863525390625,-0.20130674540996552
1780626043132376300,10.116376220703126,-0.7986258268356323,0.2870166003704071,-0.4468984007835388
1780626043142406400,10.126406494140625,-0.6261235475540161,0.6446183919906616,-0.5202024579048157
1780626043152435500,10.136435546875,-0.4225536584854126,0.904606819152832,-0.43996647000312805
1780626043162465500,10.146465576171876,-0.1873331367969513,0.9669682383537292,-0.3409631848335266
1780626043172495600,10.15649560546875,0.07688120007514954,0.879645824432373,-0.3700680732727051
1780626043182524400,10.1665244140625,0.3038911819458008,0.7567750215530396,-0.46503132581710815
1780626043192554500,10.176554443359375,0.4853675067424774,0.6850411891937256,-0.5397897362709045
1780626043202583600,10.18658349609375,0.6855679750442505,0.6522794961929321,-0.579811692237854
1780626043212613600,10.196613525390624,0.8516243100166321,0.5393716096878052,-0.5719058513641357
1780626043222643700,10.206643798828125,0.9720135927200317,0.4105862081050873,-0.5596079230308533
1780626043232672500,10.216672607421875,1.093496322631836,0.36936020851135254,-0.5610079169273376
1780626043242702600,10.22670263671875,1.1844168901443481,0.49726542830467224,-0.4979570508003235
1780626043252731600,10.236731689453125,1.2945992946624756,0.8118995428085327,-0.4395448863506317
1780626043262761500,10.246761474609375,1.4098255634307861,1.1301169395446777,-0.4347602427005768
1780626043272791600,10.25679150390625,1.5208550691604614,1.3110744953155518,-0.521378755569458
1780626043282820400,10.2668203125,1.5362039804458618,1.2340861558914185,-0.6489375233650208
1780626043292850400,10.276850341796875,1.351417899131775,0.9864335060119629,-0.7299546003341675
1780626043302879500,10.28687939453125,1.0013797283172607,0.8119181990623474,-0.6060214638710022
1780626043312909600,10.29690966796875,0.5671095252037048,0.5844408273696899,-0.3638059198856354
1780626043322939600,10.306939697265625,0.12089819461107254,0.19343577325344086,-0.1486579179763794
1780626043332968400,10.316968505859375,-0.2772590219974518,-0.28837746381759644,0.08511809259653091
1780626043342998500,10.32699853515625,-0.5215153694152832,-0.7191799879074097,0.3501580059528351
1780626043353027600,10.337027587890624,-0.5508434176445007,-0.8596939444541931,0.4255305230617523
1780626043363057700,10.3470576171875,-0.46036067605018616,-0.6422854661941528,0.24544864892959595
1780626043373087500,10.35708740234375,-0.3421882390975952,-0.3080883324146271,-0.040467265993356705
1780626043383117300,10.367117431640626,-0.19904306530952454,-0.05222032591700554,-0.3145779073238373
1780626043393147100,10.377147216796875,-0.1708577573299408,0.3420870304107666,-0.45309850573539734
1780626043403176200,10.38717626953125,-0.26840081810951233,0.684864342212677,-0.4117547869682312
1780626043413206300,10.397206298828126,-0.36046791076660156,0.6415839791297913,-0.30170738697052
1780626043423236400,10.407236328125,-0.4431489408016205,0.3230403661727905,-0.10773684829473495
1780626043433265200,10.41726513671875,-0.5424704551696777,-0.020714333280920982,0.17243435978889465
1780626043443295200,10.427295166015625,-0.5575740337371826,-0.12595553696155548,0.39123407006263733
1780626043453324300,10.43732421875,-0.4496031105518341,0.11425520479679108,0.4476613998413086
1780626043463354400,10.447354248046874,-0.2787751853466034,0.4155322313308716,0.48637309670448303
1780626043473383200,10.457383056640625,-0.07098495960235596,0.4033477306365967,0.48433631658554077
1780626043483413200,10.467413330078125,0.1328912079334259,0.1858185976743698,0.30627256631851196
1780626043493443300,10.477443359375,0.2860647737979889,0.08143919706344604,0.034822430461645126
1780626043503472400,10.487472412109375,0.3694502115249634,0.05229755863547325,-0.2562195360660553
1780626043513502500,10.49750244140625,0.4427478611469269,0.07550381124019623,-0.5224317908287048
1780626043523531300,10.50753125,0.5825209617614746,0.1899489015340805,-0.6686081290245056
1780626043533561300,10.517561279296874,0.7217837572097778,0.24312876164913177,-0.6636418700218201
1780626043543591200,10.527591064453125,0.7719763517379761,0.2680959105491638,-0.5987816452980042
1780626043553620200,10.5376201171875,0.6884157061576843,0.3807726502418518,-0.507634162902832
1780626043563650300,10.547650390625,0.5015339255332947,0.5558968186378479,-0.3910149037837982
1780626043573679000,10.55767919921875,0.2667398154735565,0.554171085357666,-0.31801897287368774
1780626043583709200,10.567709228515625,0.033003490418195724,0.4738764762878418,-0.3213742971420288
1780626043593739300,10.5777392578125,-0.15977607667446136,0.5911421179771423,-0.2867090106010437
1780626043603768300,10.587768310546876,-0.2133716642856598,0.6958181858062744,-0.15779948234558105
1780626043613798400,10.59779833984375,-0.10477595031261444,0.5813134908676147,-0.03694816306233406
1780626043623827200,10.6078271484375,0.10930278897285461,0.48130086064338684,0.0453919842839241
1780626043633857300,10.617857177734376,0.35547927021980286,0.6187772154808044,0.08208368718624115
1780626043643887400,10.627887451171874,0.5297823548316956,0.8261341452598572,0.08856768161058426
1780626043653916400,10.63791650390625,0.5662930011749268,0.863874614238739,0.11177819967269897
1780626043663946500,10.647946533203125,0.4998108744621277,0.7092583775520325,0.0325361043214798
1780626043673975300,10.657975341796876,0.4310597777366638,0.6213839054107666,-0.11905980855226517
1780626043684005400,10.66800537109375,0.4207562804222107,0.6857738494873047,-0.18960775434970856
1780626043694035200,10.67803515625,0.5479635000228882,0.7298270463943481,-0.1693434864282608
1780626043704064300,10.688064208984375,0.8026447892189026,0.6820158362388611,-0.11270923912525177
1780626043714094000,10.698093994140624,0.9914432168006897,0.7011639475822449,-0.07709424942731857
1780626043724123100,10.708123046875,1.1066228151321411,0.8622646927833557,-0.06627941876649857
1780626043734153200,10.7181533203125,1.1748542785644531,0.9328134655952454,-0.016274310648441315
1780626043744183300,10.728183349609376,1.2295862436294556,0.9058454632759094,0.02876959554851055
1780626043754212400,10.73821240234375,1.247620940208435,0.8413271903991699,0.004833903629332781
1780626043764242200,10.7482421875,1.1878798007965088,0.7166313529014587,-0.10990599542856216
1780626043774271200,10.758271240234375,1.100528359413147,0.574507474899292,-0.25472816824913025
1780626043784301300,10.76830126953125,1.0462275743484497,0.5751786231994629,-0.32904180884361267
1780626043794331400,10.778331298828125,1.0272637605667114,0.7114980816841125,-0.3379777669906616
1780626043804360400,10.7883603515625,1.0336498022079468,0.8269208073616028,-0.41149991750717163
1780626043814390300,10.798390380859376,1.0373395681381226,0.9194968342781067,-0.6194523572921753
1780626043824419300,10.80841943359375,0.9736588597297668,0.9609225988388062,-0.9099536538124084
1780626043834449400,10.818449462890625,0.8582803606987,1.0205038785934448,-1.233364462852478
1780626043844479200,10.828479248046875,0.6816347241401672,1.208867073059082,-1.4850614070892334
1780626043854508300,10.83850830078125,0.409229576587677,1.423356533050537,-1.6410243511199951
1780626043864538000,10.8485380859375,0.07771183550357819,1.5792745351791382,-1.6618229150772095
1780626043874567200,10.858567138671875,-0.26117247343063354,1.6342823505401611,-1.6970256567001343
1780626043884597200,10.86859716796875,-0.5528112649917603,1.6121248006820679,-1.8691725730895996
1780626043894627300,10.87862744140625,-0.7563555836677551,1.4205154180526733,-2.0831358432769775
1780626043904656100,10.88865625,-0.923572301864624,1.0817880630493164,-2.2822318077087402
1780626043914686200,10.898686279296875,-1.071810245513916,0.7466057538986206,-2.413601875305176
1780626043924715300,10.90871533203125,-1.1164472103118896,0.6082585453987122,-2.5788722038269043
1780626043934745300,10.918745361328124,-1.0932705402374268,0.565017580986023,-2.7601242065429688
1780626043944775400,10.928775390625,-0.9965852499008179,0.4614033102989197,-2.8649423122406006
1780626043954804200,10.93880419921875,-0.8185145854949951,0.21000462770462036,-2.8714370727539062
1780626043964834300,10.948834228515626,-0.5997737050056458,-0.15926368534564972,-2.7632484436035156
1780626043974863400,10.95886328125,-0.5301123261451721,-0.15489450097084045,-2.7507882118225098
1780626043984893400,10.9688935546875,-0.6123368740081787,0.3308042883872986,-3.0544321537017822
1780626043994923300,10.97892333984375,-0.7958052754402161,0.840270459651947,-3.523207426071167
1780626044004952300,10.988952392578126,-1.0120395421981812,0.9662028551101685,-3.889787197113037
1780626044014982100,10.998982177734375,-1.2714588642120361,0.6738607287406921,-4.206465721130371
1780626044025011200,11.00901123046875,-1.45010507106781,0.29720690846443176,-4.537190914154053
1780626044035041300,11.019041259765626,-1.604480266571045,0.0057260626927018166,-4.802204608917236
1780626044045071400,11.0290712890625,-1.6854040622711182,-0.10328218340873718,-4.742575168609619
1780626044055100200,11.03910009765625,-1.5995153188705444,-0.0582561157643795,-4.190596103668213
1780626044065130200,11.049130126953125,-1.3195459842681885,0.29441165924072266,-3.277160406112671
1780626044075159300,11.0591591796875,-1.0006039142608643,0.8516411185264587,-2.1120243072509766
1780626044085189400,11.069189453125,-0.967893123626709,0.8222554922103882,-1.2252272367477417
1780626044095219500,11.079219482421875,-1.0480047464370728,0.3247964680194855,-0.7735303044319153
1780626044105248300,11.089248291015625,-0.9796816110610962,-0.11393775045871735,-0.43734776973724365
1780626044115278300,11.0992783203125,-0.8036882281303406,-0.49409759044647217,-0.09571773558855057
1780626044125307400,11.109307373046875,-0.7068612575531006,-0.5144473314285278,0.2865454852581024
1780626044135337500,11.11933740234375,-0.6926780939102173,-0.33521661162376404,0.701816201210022
1780626044145367300,11.1293671875,-0.8481837511062622,-0.13070714473724365,1.0407854318618774
1780626044155396000,11.13939599609375,-1.1245511770248413,0.19914719462394714,1.059425950050354
1780626044165426200,11.14942626953125,-1.352988362312317,0.4493634104728699,0.7121233940124512
1780626044175455200,11.159455322265625,-1.4508802890777588,0.4982028603553772,0.23649056255817413
1780626044185485300,11.1694853515625,-1.4976768493652344,0.45248278975486755,-0.02587047964334488
1780626044195515100,11.17951513671875,-1.5572311878204346,0.37266066670417786,-0.05567364767193794
1780626044205544200,11.189544189453125,-1.5881537199020386,0.5445504188537598,-0.000330231967382133
1780626044215574300,11.19957421875,-1.610682725906372,0.7903013229370117,0.04848364740610123
1780626044225603300,11.209603271484376,-1.6401196718215942,0.9401038289070129,0.124050572514534
1780626044235633400,11.21963330078125,-1.6391223669052124,0.8749938011169434,0.19537268579006195
1780626044245663200,11.229663330078125,-1.5861867666244507,0.8450577855110168,0.143850639462471
1780626044255692300,11.2396923828125,-1.5039403438568115,0.8084190487861633,-0.010266219265758991
1780626044265722400,11.249722412109374,-1.4151017665863037,0.720199465751648,-0.13797438144683838
1780626044275751400,11.25975146484375,-1.3759688138961792,0.6883121132850647,-0.12545245885849
1780626044285781500,11.269781494140625,-1.3794052600860596,0.7609426379203796,0.05926012620329857
1780626044295810300,11.279810302734376,-1.4157209396362305,0.9052249789237976,0.346540629863739
1780626044305840000,11.289840087890624,-1.4533159732818604,1.0238049030303955,0.6231107115745544
1780626044315870200,11.2998701171875,-1.5428858995437622,1.071150541305542,0.8580398559570312
1780626044325899300,11.309899169921875,-1.6904993057250977,0.9438083171844482,1.001875638961792
1780626044335929000,11.31992919921875,-1.8937532901763916,0.6825317144393921,0.9571326375007629
1780626044345958100,11.329958251953125,-2.0509531497955322,0.4623636305332184,0.7319524884223938
1780626044355988200,11.33998828125,-2.0056731700897217,0.3686898946762085,0.538415789604187
1780626044366018300,11.350018310546876,-1.8222030401229858,0.36440885066986084,0.4630432724952698
1780626044376046800,11.360046875,-1.665619969367981,0.4834335148334503,0.4775508642196655
1780626044386077000,11.370076904296875,-1.5585585832595825,0.6702960729598999,0.5619655847549438
1780626044396106800,11.380106689453125,-1.634742259979248,0.6445544958114624,0.8392914533615112
1780626044406135800,11.3901357421875,-2.0061707496643066,0.49284830689430237,0.7219963073730469
1780626044416166000,11.400165771484374,-2.3867900371551514,0.34990766644477844,0.18303053081035614
1780626044426195000,11.41019482421875,-2.3685970306396484,-0.09913430362939835,0.28251639008522034
1780626044436224800,11.420224853515625,-2.2590396404266357,-0.041912294924259186,0.4754014015197754
1780626044446253800,11.43025390625,-2.030123472213745,0.28527167439460754,0.45274031162261963
1780626044456284000,11.440283935546875,-1.5708568096160889,0.4431590437889099,0.24278441071510315
1780626044466313700,11.450313720703125,-1.0703459978103638,0.37403857707977295,-0.10413279384374619
1780626044476343000,11.460343017578126,-0.8988499045372009,0.3934575617313385,-0.09362928569316864
1780626044486372600,11.47037255859375,-0.9066159129142761,0.4500065743923187,0.01823066920042038
1780626044496401700,11.480401611328125,-0.9319148659706116,0.3465994894504547,0.05048687756061554
1780626044506431700,11.490431640625,-0.876133143901825,0.17090542614459991,0.07848522067070007
1780626044516461800,11.5004619140625,-0.8496817946434021,-0.02793256565928459,0.29173463582992554
1780626044526491000,11.510490966796874,-0.8349590301513672,-0.01709403283894062,0.4415603578090668
1780626044536520700,11.520520751953125,-0.7567744851112366,0.22370420396327972,0.470607191324234
1780626044546549800,11.5305498046875,-0.6835487484931946,0.4388820230960846,0.41390448808670044
1780626044556579800,11.540579833984374,-0.6391096711158752,0.6256899833679199,0.36444026231765747
1780626044566610000,11.55060986328125,-0.6414511203765869,0.5653326511383057,0.36886724829673767
1780626044576638700,11.560638671875,-0.6566268801689148,0.25460779666900635,0.3845500648021698
1780626044586668800,11.570668701171876,-0.6507924199104309,-0.08082347363233566,0.36938923597335815
1780626044596697900,11.58069775390625,-0.6029708385467529,-0.11605310440063477,0.38220009207725525
1780626044606728000,11.59072802734375,-0.5530674457550049,0.010783671401441097,0.4353048503398895
1780626044616757800,11.6007578125,-0.5975654125213623,0.06896308809518814,0.5877836346626282
1780626044626786800,11.610786865234376,-0.7275180816650391,0.12787461280822754,0.8180906176567078
1780626044636816600,11.620816650390625,-0.8907306790351868,0.09949223697185516,0.9917401671409607
1780626044646845700,11.630845703125,-1.0787006616592407,-0.007188937161117792,1.052086353302002
1780626044656875800,11.640875732421875,-1.2107547521591187,-0.12919794023036957,1.1262353658676147
1780626044666905900,11.65090576171875,-1.2152235507965088,-0.18381351232528687,1.1721906661987305
1780626044676934700,11.6609345703125,-1.118388056755066,-0.327521413564682,1.1533671617507935
1780626044686964700,11.67096484375,-1.0690178871154785,-0.48703357577323914,1.1050291061401367
1780626044696993800,11.680993896484376,-1.175238013267517,-0.6234422922134399,1.10447096824646
1780626044707024000,11.69102392578125,-1.2943066358566284,-0.7884114980697632,1.1042687892913818
1780626044717054000,11.701053955078125,-1.3167320489883423,-0.919772207736969,1.1174110174179077
1780626044727082800,11.711082763671875,-1.2884581089019775,-0.9653724431991577,1.1405259370803833
1780626044737112800,11.72111279296875,-1.1786727905273438,-0.9421067833900452,1.0747239589691162
1780626044747142000,11.731141845703124,-1.0581125020980835,-0.774448037147522,0.9275143146514893
1780626044757172000,11.741171875,-1.0382930040359497,-0.646752655506134,0.7256626486778259
1780626044767201800,11.751201904296876,-1.0046831369400024,-0.7146710157394409,0.4991685152053833
1780626044777230800,11.76123095703125,-1.0126826763153076,-0.7517682909965515,0.30343392491340637
1780626044787260700,11.7712607421875,-1.0259897708892822,-0.7549853920936584,0.17419949173927307
1780626044797289700,11.781289794921875,-1.03581702709198,-0.7025346755981445,0.15804316103458405
1780626044807319800,11.79131982421875,-0.9614152312278748,-0.6199085116386414,0.2762824594974518
1780626044817350000,11.801349853515624,-0.8193026185035706,-0.47466719150543213,0.43327686190605164
1780626044827378700,11.811378662109375,-0.6070497035980225,-0.34575819969177246,0.49761056900024414
1780626044837408800,11.82140869140625,-0.3630458414554596,-0.09282927215099335,0.456448495388031
1780626044847437800,11.831437744140626,-0.23828740417957306,0.26739442348480225,0.39531537890434265
1780626044857468000,11.841468017578125,-0.2996290624141693,0.4904927611351013,0.44424667954444885
1780626044867498000,11.851498046875,-0.460707426071167,0.4869920313358307,0.6077735424041748
1780626044877526800,11.86152685546875,-0.5670027136802673,0.4386356770992279,0.7168939113616943
1780626044887556900,11.871556884765624,-0.5716794729232788,0.40535709261894226,0.6953290104866028
1780626044897586000,11.8815859375,-0.5034032464027405,0.3873074948787689,0.5586315989494324
1780626044907616000,11.891615966796875,-0.39833539724349976,0.343328595161438,0.3780735433101654
1780626044917645800,11.901645751953126,-0.23624075949192047,0.3643055260181427,0.229362353682518
1780626044927675000,11.9116748046875,-0.025897642597556114,0.4462816119194031,0.13352742791175842
1780626044937704700,11.92170458984375,0.201216459274292,0.6246955394744873,0.0809294730424881
1780626044947733800,11.931733642578125,0.3525170385837555,0.8551215529441833,0.08803265541791916
1780626044957763800,11.941763916015624,0.534758985042572,1.098274827003479,0.08392579108476639
1780626044967793700,11.951793701171875,0.78154057264328,1.3079798221588135,0.15100017189979553
1780626044977822700,11.96182275390625,1.0644502639770508,1.4366648197174072,0.2592904269695282
1780626044987852800,11.971852783203126,1.2400513887405396,1.4856009483337402,0.3716371953487396
1780626044997883000,11.9818828125,1.256527066230774,1.4568060636520386,0.4597681164741516
1780626045007912000,11.991911865234375,1.259981393814087,1.272598385810852,0.428989440202713
1780626045017941800,12.001941650390625,1.2062337398529053,1.0528039932250977,0.3218832314014435
1780626045027970800,12.011970703125,1.043339729309082,0.7041056752204895,0.1304277777671814
1780626045038001000,12.0220009765625,0.7371224761009216,0.3991069197654724,-0.1591065675020218
1780626045048030000,12.032030029296875,0.2960961163043976,-0.03188975527882576,-0.6494581699371338
1780626045058060000,12.04206005859375,-0.10299615561962128,-0.41368451714515686,-1.0698224306106567
1780626045068089600,12.052089599609374,-0.316615492105484,-0.7027173638343811,-1.1908146142959595
1780626045078119000,12.062118896484375,-0.2960425913333893,-0.8384637832641602,-1.038877010345459
1780626045088148700,12.072148681640625,-0.1400337964296341,-0.8651300072669983,-0.7591215372085571
1780626045098177800,12.082177734375,0.09749859571456909,-0.6740260720252991,-0.4053967595100403
1780626045108207600,12.09220751953125,0.20669245719909668,-0.3553394675254822,0.04512619972229004
1780626045118237700,12.10223779296875,0.1779676079750061,-0.0582507885992527,0.4343400001525879
1780626045128266800,12.112266845703125,0.09837237745523453,0.19745181500911713,0.5850576162338257
1780626045138296800,12.122296875,0.01974228024482727,0.25605282187461853,0.5454134941101074
1780626045148326000,12.132325927734374,-0.03323012590408325,0.15073251724243164,0.4141146242618561
1780626045158355700,12.142355712890625,-0.08616498112678528,-0.010165286250412464,0.21051356196403503
1780626045168385800,12.1523857421875,-0.11344107240438461,-0.1467931717634201,-0.011795406229794025
1780626045178414800,12.162414794921874,-0.12117569148540497,-0.2065875232219696,-0.17681019008159637
1780626045188445000,12.17244482421875,-0.0927661582827568,-0.2507009208202362,-0.2585551142692566
1780626045198475000,12.18247509765625,-0.08906622976064682,-0.25927498936653137,-0.2891676127910614
1780626045208503800,12.19250390625,-0.09826105833053589,-0.22129669785499573,-0.3015260398387909
1780626045218533600,12.20253369140625,-0.1127888634800911,-0.19803638756275177,-0.25521206855773926
1780626045228563000,12.21256298828125,-0.15073411166667938,-0.26928579807281494,-0.15481674671173096
1780626045238592800,12.2225927734375,-0.19867713749408722,-0.44627201557159424,-0.062441807240247726
1780626045248622800,12.232622802734374,-0.2569529712200165,-0.6389725208282471,0.023673636838793755
1780626045258651600,12.242651611328125,-0.32677704095840454,-0.8218493461608887,0.06029769405722618
1780626045268681700,12.252681640625,-0.4060622751712799,-0.9462666511535645,0.03448926657438278
1780626045278710800,12.262710693359375,-0.5186756253242493,-0.9709352850914001,-0.06250039488077164
1780626045288740900,12.272740966796874,-0.6486429572105408,-0.8769006729125977,-0.22905582189559937
1780626045298771000,12.28277099609375,-0.7269396185874939,-0.7228674292564392,-0.44717004895210266
1780626045308799700,12.2927998046875,-0.7324798107147217,-0.5167416930198669,-0.5846794247627258
1780626045318829800,12.302829833984376,-0.6840707659721375,-0.35155269503593445,-0.5878656506538391
1780626045328859000,12.31285888671875,-0.573968231678009,-0.2307615727186203,-0.48320287466049194
1780626045338889000,12.322888916015625,-0.4553334414958954,-0.21190239489078522,-0.3644687831401825
1780626045348919000,12.3329189453125,-0.3779670000076294,-0.17314675450325012,-0.23009498417377472
1780626045358947800,12.34294775390625,-0.34868741035461426,-0.0629613921046257,-0.09338347613811493
1780626045368977700,12.352977783203125,-0.3637044429779053,0.06340720504522324,-0.012574114836752415
1780626045379007000,12.363007080078125,-0.3977771997451782,0.18829721212387085,0.017961423844099045
1780626045389036800,12.373036865234376,-0.46080514788627625,0.29988524317741394,0.0014940333785489202
1780626045399067000,12.38306689453125,-0.5271442532539368,0.37762612104415894,-0.053049903362989426
1780626045409096000,12.393095947265625,-0.5576552748680115,0.3833622932434082,-0.0945504754781723
1780626045419126000,12.4031259765625,-0.5320412516593933,0.27890512347221375,-0.07987725734710693
1780626045429154800,12.41315478515625,-0.48591849207878113,0.11867418885231018,0.013490241952240467
1780626045439185000,12.423184814453125,-0.4806941747665405,0.0032842103391885757,0.11720652133226395
1780626045449215000,12.433215087890625,-0.5030524730682373,-0.051605403423309326,0.14542271196842194
1780626045459244000,12.443244140625,-0.5219374895095825,-0.036380644887685776,0.13298282027244568
1780626045469274000,12.453274169921874,-0.4778914749622345,0.023928502574563026,0.09025612473487854
1780626045479303000,12.463302978515625,-0.39785656332969666,0.07691768556833267,0.04079296812415123
