time,seconds_elapsed,z,y,x
1780625510654911200,0.0709111328125,0.2782721669793129,-0.6029492345198989,-0.35870826075170187
1780625510664940300,0.080940185546875,0.28709610942602154,-0.6284446180433034,-0.35587738470733166
1780625510674970000,0.09097021484375,0.050776832035183905,0.4430275526329875,0.2753300308465026
1780625510684999200,0.100999267578125,-0.18111819917261598,0.69628130595088,0.24464717994891105
1780625510695029200,0.111029296875,-0.6900742680042982,1.1822089658945798,-0.14452464466020465
1780625510705058300,0.121058349609375,-0.6620750849664211,1.0873068686679006,-0.23328624810418114
1780625510715088100,0.131088134765625,-1.6710703412026167,1.6688187628835438,-1.0259427377752959
1780625510725117200,0.1411171875,0.5496107353031635,0.06714870564341545,-0.8566943515513091
1780625510735147300,0.151147216796875,2.484339027199149,-1.2244295665085314,-0.5082656754147261
1780625510745176300,0.16117626953125,3.06603183093965,-2.001135823783278,-0.42491964901238677
1780625510755206400,0.171206298828125,2.8675831422597167,-2.1363028575114904,-0.41593920082971453
1780625510765235200,0.181235107421875,2.8788468790739774,-2.1866274157345296,-0.43115445174872874
1780625510775265300,0.191265380859375,-0.17356442279219628,0.15735679983496664,-0.7015932947538792
1780625510785294300,0.20129443359375,-0.16863573421835898,0.15235183115452527,-0.6610116935186088
1780625510795323100,0.2113232421875,-0.17024550750255585,0.17168547717779875,-0.624635288888216
1780625510805353200,0.221353271484375,-2.314729479512572,0.6047581836380064,-0.962568728365004
1780625510815382300,0.23138232421875,-2.4225521408498287,0.15173428377807138,-0.9871455357387662
1780625510825412400,0.241412353515625,-1.9490508317589759,-0.49485652406960723,-0.678759677785635
1780625510835441400,0.25144140625,-0.9661790278166532,-0.763876586318016,-0.549286179523915
1780625510845471200,0.26147119140625,0.3572247076630592,-0.5786433530420064,-0.5398709931857884
1780625510855500300,0.271500244140625,1.1164824020087718,-0.4918880296528339,-0.45507717912793155
1780625510865530400,0.2815302734375,1.2352613416463136,-0.6184300045073032,-0.2637922445975244
1780625510875559400,0.291559326171875,0.9373843104869126,-0.5465203680723906,-0.15441475503370164
1780625510885589200,0.30158935546875,0.19256547586023806,-0.4588014603480696,-0.07547814257144927
1780625510895618300,0.311618408203125,-1.0902315239429474,-0.13673428304493426,-0.29456600691527124
1780625510905648000,0.321648193359375,-2.0477309862196442,0.3651987552821636,-0.7784273089136928
1780625510915677200,0.33167724609375,-1.9558453142046928,0.3549062015876174,-0.8094352453134953
1780625510925706200,0.341706298828125,-0.9096300421208142,-0.018210487212240695,-0.49813576493598516
1780625510935736000,0.351736083984375,0.5314262593150139,-0.4826031916961074,-0.09991451856121421
1780625510945765400,0.361765380859375,1.8100170396000146,-0.7846616001933813,0.3082482761133462
1780625510955795200,0.371795166015625,2.2283225311696526,-0.8309189089775085,0.5104898542702198
1780625510965824300,0.38182421875,1.6729425648152827,-0.9100690180599689,0.5775446710851043
1780625510975854000,0.39185400390625,0.5881611229717731,-0.9964528777882457,0.4595754403952509
1780625510985883100,0.401883056640625,-0.20444646779000758,-0.3591486614629626,0.1241170857951045
1780625510995913200,0.411913330078125,-0.2186100176990032,-0.32397856388241053,0.13243300565443933
1780625511005942300,0.4219423828125,-0.8683622121870517,0.49778790134638545,0.4908873281776905
1780625511015972000,0.43197216796875,-0.5734639045774936,0.7331520699694752,0.21483502920493483
1780625511026001200,0.442001220703125,0.29559622674584385,0.5079875160604715,-0.09653547058217227
1780625511036031200,0.45203125,1.0465917041808366,-0.08080576733499766,-0.12252667479850352
1780625511046060300,0.462060302734375,1.4927338817030191,-0.5999497604429721,-0.06969502912536263
1780625511056089000,0.472089111328125,1.758971327495575,-0.8084788213714956,0.3216412069760263
1780625511066119200,0.482119140625,1.5252812295645475,-0.7741200401738285,0.5012926945969463
1780625511076148200,0.492148193359375,0.824058375558257,-0.3374517934396863,0.3142267660010606
1780625511086178300,0.50217822265625,0.207578920596838,0.5982257131293416,0.19432422916106878
1780625511096207400,0.512207275390625,-0.34200843383073803,1.4468953828528524,0.1414224408611655
1780625511106237400,0.522237548828125,-0.8731851022988557,1.646434497117996,-0.157699329662323
1780625511116266500,0.5322666015625,-1.0277052174031733,1.018041317000985,-0.4505342019360512
1780625511126296600,0.542296630859375,-0.9174918615370988,0.34429157633185387,-0.7090859155315905
1780625511136325400,0.552325439453125,-0.7009668334186077,-0.04198620733618736,-0.8018766466274857
1780625511146355500,0.56235546875,-0.7017705510169268,-0.042855975908041,-0.8185942649334669
1780625511156384500,0.572384521484375,0.4474029912382364,0.2370554827108979,-0.3281774038117379
1780625511166414600,0.58241455078125,0.4485755421489477,0.23301555967032908,-0.3364226695876568
1780625511176443400,0.592443359375,1.2240998961627483,0.6893854089573025,-0.1488495951872319
1780625511186473500,0.602473388671875,1.9745465075433253,1.1776818438589571,0.1752524124117568
1780625511196502500,0.61250244140625,1.976193690228462,1.1873042432069778,0.2712435469841584
1780625511206531600,0.622531494140625,1.1106599794656038,1.993765879537165,-0.6654236647419631
1780625511216561400,0.6325615234375,0.14099544762074948,1.9623080804780124,-1.1136584306292234
1780625511226590500,0.642590576171875,0.1433516553580761,1.9627271826729178,-0.98140348495543
1780625511236620500,0.65262060546875,-0.26139994263350963,1.7530168030053377,-1.4651212137646972
1780625511246649600,0.662649658203125,-0.24137422269284725,1.7062766791403292,-1.3730031942985952
1780625511256679400,0.672679443359375,-0.36286125224530696,1.2833040725424885,-1.3549644103914498
1780625511266708500,0.68270849609375,0.47984921681284903,2.0415096274867652,-1.11761432864815
1780625511276738300,0.69273828125,0.5185322909504175,1.9401427181601523,-1.0287439128011464
1780625511286767400,0.702767333984375,0.9022896162301302,3.2551132640764116,-0.7560135247927159
1780625511296797400,0.71279736328125,0.1129740527510643,4.017822560180724,-1.3702695315510034
1780625511306826200,0.722826171875,0.5838286467254161,3.6121690449133514,-1.8713155579105019
1780625511316856300,0.732856201171875,1.3684434851676224,3.233521025471389,-1.778764407724142
1780625511326885400,0.742885498046875,1.3317308343201875,3.2695509547516703,-1.5733476335972547
1780625511336915500,0.75291552734375,2.714447174990177,4.512697788950801,-1.147734887754172
1780625511346944300,0.7629443359375,3.073240739405155,5.449131082323193,-0.7383671742692589
1780625511356973300,0.772973388671875,2.7273616016209123,5.8553697040021415,-1.0905129712328314
1780625511367003400,0.78300341796875,1.2670558253139257,5.278614356663823,-1.64501425505653
1780625511377032400,0.793032470703125,1.2258493701785802,5.180545027577876,-1.3516981020718812
1780625511387062300,0.803062255859375,-0.12341127561330795,5.502781423968076,-1.6184084260731935
1780625511397091300,0.81309130859375,-0.07216156536936759,5.917655187523365,-1.085550964911282
1780625511407121400,0.823121337890625,1.1375035627275705,6.976583226186037,0.08441226739436387
1780625511417150500,0.833150390625,3.2574908068627115,8.482448392140865,1.6182859687373041
1780625511427180500,0.8431806640625,3.1653076132059095,8.307040387308597,1.9579186133474111
1780625511437209300,0.853209228515625,6.912245486310124,10.8748485558331,2.613751589053869
1780625511447239400,0.863239501953125,7.365047121721505,11.193292574203014,2.522686878032982
1780625511457268500,0.8732685546875,6.945654419437051,11.477238110643624,2.0870020893782377
1780625511467298600,0.883298583984375,5.352841037869453,11.644073517441749,0.7422299871772527
1780625511477327400,0.893327392578125,4.812083471107482,11.338218931531905,1.4156711002886295
1780625511487357400,0.903357421875,-1.8485148202985524,11.989390345168113,-1.3356751880317925
1780625511497386500,0.913386474609375,-4.373264183819294,12.443536965447663,-1.3025877419441938
1780625511507416600,0.92341650390625,-5.30112955533266,12.501641948413848,-1.0183552052557467
1780625511517445400,0.9334453125,-5.69742487514615,12.963999932199716,-1.6817302669048309
1780625511527475500,0.943475341796875,-6.17704846650958,12.254669759583473,-1.5185539671361445
1780625511537504500,0.95350439453125,-6.587675094014406,11.316985589367151,-4.533541255015135
1780625511547533600,0.963533447265625,-6.9370157704293725,9.444010281550884,-7.156699554839729
1780625511557563400,0.9735634765625,-7.988172006046772,6.916583807775377,-10.561223335921763
1780625511567592400,0.983592529296875,-10.284549251788855,3.5417967010483142,-14.964279431414603
1780625511577622500,0.99362255859375,-10.286436088448763,2.988125584438443,-15.258331351327895
1780625511587651600,1.003651611328125,-13.201457273709773,-3.427330656173825,-23.122425726807116
1780625511597681400,1.013681396484375,-11.769751568943262,-5.598045632505417,-25.601004290783404
1780625511607710500,1.02371044921875,-8.946254236647485,-7.652251952219009,-27.842732246971128
1780625511617740300,1.033740234375,-5.461745649224519,-9.447394663292169,-28.308897806346415
1780625511627769300,1.043769287109375,-1.824889906822145,-9.938141706216335,-27.727985923850536
1780625511637799400,1.05379931640625,1.4198480937123297,-10.164744476234912,-26.034216844105718
1780625511647828200,1.063828125,4.102314322552084,-9.346274129942058,-24.18828268795013
1780625511657858300,1.0738583984375,6.478166087025404,-8.27684223292172,-21.987665325307844
1780625511667887400,1.083887451171875,9.161481041648983,-7.7610531031996,-19.541061277741193
1780625511677917400,1.09391748046875,11.719005716568232,-7.438197698128223,-16.73001484621763
1780625511687946200,1.1039462890625,13.069461709624528,-6.597078297653794,-14.057985255718231
1780625511697976300,1.113976318359375,14.09028827342987,-6.485015514528751,-12.156923671102524
1780625511708005400,1.12400537109375,14.853407319378851,-7.2082502938568584,-11.211199986815451
1780625511718034400,1.134034423828125,15.496018994462489,-6.368852310347557,-10.218234074360131
1780625511728064300,1.144064208984375,14.8220629175663,-4.909250298395753,-9.271371156910062
1780625511738093300,1.15409326171875,12.254048997336625,-3.4648736203655597,-8.458503452929854
1780625511748123400,1.164123291015625,10.5307183075428,-1.1453133596956728,-7.1794848026216025
1780625511758152400,1.17415234375,10.14137879821658,0.6441732253119349,-5.034094237160683
1780625511768182500,1.1841826171875,10.169888268864154,3.2924382016032934,-1.6454449015587567
1780625511778211300,1.19421142578125,10.716571718543767,5.062905321103334,1.777054096674919
1780625511788241400,1.204241455078125,9.91108886411786,6.492391011732816,4.684853513988852
1780625511798270500,1.2142705078125,8.336245439004898,8.285094512960315,7.967838243070244
1780625511808300500,1.224300537109375,7.918801532700657,7.507834713456035,9.542202944755553
1780625511818329300,1.234329345703125,6.219460205781459,6.29918782249093,9.433430435347557
1780625511828359400,1.244359375,3.219619633629918,5.366519434610009,8.89225551995635
1780625511838388500,1.254388427734375,-1.638506626728177,6.16527970278263,7.849809245017171
1780625511848418600,1.26441845703125,-5.283584546291828,6.763020555004477,6.278137435677647
1780625511858447400,1.274447265625,-5.884983921021223,6.124540280637144,5.565032420697808
1780625511868477400,1.2844775390625,-2.5723031418561932,4.929075527328252,6.043767538788915
1780625511878506500,1.294506591796875,1.7696990577369927,3.7559400947272774,6.195948397290707
1780625511888536600,1.30453662109375,5.54684502210021,1.693572972650826,5.439353784674406
1780625511898565600,1.314565673828125,5.432561640316248,1.5845549640491603,5.469263769769668
1780625511908595200,1.32459521484375,7.162361818385124,0.0281835996940732,5.212384519430994
1780625511918624500,1.33462451171875,8.801118035960197,-3.1083485854044555,4.812447043722868
1780625511928653600,1.344653564453125,6.390035383629798,-0.8948486525744199,2.492640407076478
1780625511938683400,1.354683349609375,0.45408086156696076,-0.4770622164428234,-2.1849486688673494
1780625511948712400,1.36471240234375,-3.8315079614087937,-2.8804394089624283,-8.368105389124155
1780625511958742300,1.3747421875,-6.2884267745018,-5.391662059172988,-12.888771964997053
1780625511968771600,1.384771484375,-6.153495156964659,-5.711541078782081,-13.26278531037569
1780625511978801400,1.394801513671875,-3.887438815206289,-2.995820230594277,-9.328615139132738
1780625511988830200,1.404830322265625,-0.5677665697187185,1.0502081411123274,-2.9404180768460035
1780625511998860300,1.4148603515625,-0.6366361078053713,0.9619944356083869,-2.9676047744572163
1780625512008889300,1.424889404296875,2.5717528144970534,9.263570127770304,7.802413287591934
1780625512018919400,1.43491943359375,4.177007744486629,10.186909546291828,9.94182302507758
1780625512028948200,1.4449482421875,6.661902359741926,8.077738295203448,8.535110307270289
1780625512038978300,1.454978271484375,9.234397224777936,7.103973926824331,7.752533112135529
1780625512049007400,1.46500732421875,11.8889671464324,9.832705647754668,10.607678797626495
1780625512059037400,1.475037353515625,13.151693418109415,14.24327518761754,15.796168646728992
1780625512069066500,1.48506640625,7.929747874128818,17.733816625463962,18.844757759958505
1780625512079096300,1.495096435546875,-0.5622958832226693,18.72042644689083,17.36807426482439
1780625512089126000,1.5051259765625,-5.473182404518127,18.696635236936807,15.347473277592657
1780625512099156000,1.515156005859375,-7.691901825562119,16.00824604778886,9.271622501322627
1780625512109185000,1.52518505859375,-10.389605371022224,13.343138365507125,1.8980133029609918
1780625512119214800,1.53521484375,-10.72438210003376,9.023507572197914,-7.236999418479204
1780625512129244000,1.545243896484375,-9.492890340054034,5.302370495304465,-17.401229515451192
1780625512139274000,1.55527392578125,-7.347770992749929,-0.6332002881377935,-26.71309927148819
1780625512149303000,1.565302978515625,-4.768849309536814,-8.813569521254301,-34.87765660296678
1780625512159332900,1.575332763671875,-0.43394349794536824,-13.801133477908373,-36.269580916965005
1780625512169362000,1.58536181640625,3.7105253742471334,-15.735004276192187,-33.129613496720786
1780625512179391000,1.595390869140625,4.001120723965764,-14.83302737917304,-27.85548651460409
1780625512189421000,1.605421142578125,2.5508777842506767,-13.610858743333816,-22.675757479584217
1780625512199449900,1.615449951171875,3.3652509243577717,-13.216089025652408,-18.77732380763292
1780625512209480000,1.62547998046875,5.238422631528973,-13.700316311419009,-15.778892517757415
1780625512219509000,1.635509033203125,5.990779460445046,-12.898256417179107,-11.844322533541916
1780625512229538800,1.645538818359375,7.384292504939436,-10.054463900351523,-6.967306279274821
1780625512239568000,1.65556787109375,9.600825814116,-6.958538450929522,-1.7306617633342742
1780625512249597700,1.66559765625,9.504465627035499,-4.239555970597267,2.783057185357809
1780625512259626800,1.675626708984375,9.561126840934158,-3.9951790589570995,2.9581483793258667
1780625512269656800,1.68565673828125,7.588542573374509,7.360838564115762,13.136473637145757
1780625512279686000,1.695685791015625,11.030947464561462,16.05973424296379,23.997562547695637
1780625512289715700,1.7057158203125,13.016744849437474,14.887101499187946,22.33229007911682
1780625512299744800,1.715744873046875,9.036528381812571,11.043078631860016,14.564517896795271
1780625512309774800,1.72577490234375,1.7953174831181764,10.167409896051883,10.398541541671753
1780625512319804000,1.735803955078125,-3.6232355055898426,8.257802016887068,6.5659396475464105
1780625512329834000,1.745833984375,-4.214303748179972,5.1045443224370475,2.8316934982329607
1780625512339862800,1.75586279296875,-4.274093323232234,5.115175606566667,2.875572971969843
1780625512349892900,1.765892822265625,-2.775207348640263,-0.18698446085751055,-1.2305991950541735
1780625512359922000,1.775921875,-2.843208579459786,-0.21656009943187235,-1.2139128486692905
1780625512369952000,1.785951904296875,-1.7427859163701533,-1.8208394623875617,-0.8259709311813116
1780625512379980800,1.795980712890625,-1.8541285685271023,-0.34049276857078076,-0.6712824737727642
1780625512390011000,1.806010986328125,-3.076931995138526,0.6125894617855548,-1.723192742627859
1780625512400040000,1.8160400390625,-1.8326009195908903,1.0551678093463182,-1.2451830162018538
1780625512410070000,1.826070068359375,-0.057436874446272844,1.2893787162810564,-1.2157026546955108
1780625512420098800,1.836098876953125,0.3508472815856337,0.14768880777955054,-1.683796551784873
1780625512430129000,1.84612890625,0.9623781742289662,-1.8355477866977452,-1.3895219290316103
1780625512440158000,1.856157958984375,1.3852157562702894,-3.1339252174705265,-1.1457885759919881
1780625512450188000,1.86618798828125,0.19648148026019333,-2.2172002486526963,-1.3924872085779905
1780625512460216800,1.876216796875,0.4628530738264322,-1.7071616452813148,-1.3102958321034908
1780625512470247000,1.886246826171875,2.482016721731424,-4.764343230289221,-2.681296600538492
1780625512480276000,1.89627587890625,1.442155202588439,-6.696432405853271,-6.847402719521522
1780625512490305800,1.906305908203125,-1.0154320112854243,-4.3764264472424985,-3.65968219897747
1780625512500335000,1.916335205078125,-0.9820739315629005,-1.2442448585689068,-2.6528023274600505
1780625512510364000,1.926364013671875,-1.4506374919906257,-1.6317524762928486,-0.701105949628353
1780625512520393700,1.936393798828125,1.203115268062055,-4.015468982791901,-3.564479949760437
1780625512530423000,1.946423095703125,3.3111414407685396,-5.777537691780925,-6.4277271086424586
1780625512540452900,1.956452880859375,3.905326061813533,-6.191374513503908,-6.533626108440757
1780625512550482000,1.96648193359375,4.540113034620881,-4.284847649219632,-4.6585208028584715
1780625512560511700,1.97651171875,3.3340178739652035,3.353842810636759,2.624481072860956
1780625512570540800,1.986540771484375,4.888585696029663,1.5308593219578266,3.8954654697954654
1780625512580571000,1.99657080078125,3.7314898363426328,3.2111312067478894,2.4713947899520394
1780625512590599700,2.006599609375,1.627601786354184,2.0073843627840278,2.9309342091858386
1780625512600629800,2.016629638671875,0.6536927488073706,3.681532211735844,5.987815349942445
1780625512610658800,2.026658935546875,1.6861287941247223,6.900033070468902,9.747525610858201
1780625512620689000,2.03668896484375,2.7856208983659743,8.579147017395496,10.317112966263293
1780625512630717700,2.0467177734375,2.0767994059242305,8.433680561840534,9.759677236422895
1780625512640747800,2.056747802734375,-0.39156478416025636,8.51145587543845,8.139383727255463
1780625512650776800,2.06677685546875,-2.420833938755095,8.65545401200652,6.583705021339655
1780625512660807000,2.076806884765625,-3.1419805136322974,8.252804354730248,5.295752538469434
1780625512670836000,2.0868359375,-1.6094155568003654,7.132279983854294,3.913847514182329
1780625512680865800,2.09686572265625,-0.35967151629328725,4.744046876713633,1.7896061197340487
1780625512690894800,2.106894775390625,-1.4059947787962852,1.8178601543158293,-0.9678004915386438
1780625512700925000,2.116925048828125,-2.774541285946965,-0.8613643161237239,-2.734921223220229
1780625512710954000,2.1269541015625,-4.818508535718918,-2.262858422499895,-4.860146368008852
1780625512720984000,2.136984130859375,-3.76132529489696,-2.024693224981427,-7.402426127523183
1780625512731012900,2.147012939453125,-0.9242932121150195,-2.774794383925199,-8.30023012277186
1780625512741043000,2.15704296875,2.979866874659061,-2.9327824674010277,-8.175807039767504
1780625512751072000,2.167072021484375,7.886088180622458,-1.5175725548833607,-4.872648122185469
1780625512761102000,2.17710205078125,10.671383500295876,0.06871873143911361,-3.1624428714245556
1780625512771131000,2.187130859375,8.073596957615017,-3.6900381742745636,-1.6541700598061084
1780625512781160700,2.19716064453125,3.3905595531374213,-2.0546400349557397,0.006176642808318138
1780625512791190000,2.20718994140625,0.6457775917686521,-3.126779437369108,2.7764070798188447
1780625512801219800,2.2172197265625,1.9043863451242447,-3.5972248660206794,4.0166508860528465
1780625512811249000,2.227248779296875,0.40100715076625343,-1.0175912351459264,3.099552407747507
1780625512821278700,2.23727880859375,-3.5330274113982916,-2.821374933314323,2.6118852106601
1780625512831307800,2.247307861328125,-3.715153326308727,-2.926217117536068,2.4657810417234898
1780625512841337900,2.257337890625,-2.960905569079518,-2.3706384137392043,2.26952547917366
1780625512851366700,2.26736669921875,-1.5202321294814347,-3.3070664464145896,2.8714906710922716
1780625512861396700,2.277396728515625,-0.6813000099182128,-4.951666129320859,3.5959690207406876
1780625512871425800,2.28742578125,-1.155365967154503,-5.555408852306008,3.72214128549993
1780625512881455900,2.297455810546875,-1.488133109909296,-5.205539183580875,3.440421316154301
1780625512891485000,2.30748486328125,-1.4559353061378002,-4.695847201690078,3.2365812898248434
1780625512901514800,2.3175146484375,-0.8339584228038788,-4.119634290665388,3.0705224203571677
1780625512911543800,2.327543701171875,-0.6316659181773662,-2.4625340226262806,1.841074441164732
1780625512921574000,2.337573974609375,0.8222825980573892,1.973795396915078,-1.0895300976753235
1780625512931603000,2.34760302734375,2.1753496503949163,-0.49557636277675626,-1.5351824458539485
1780625512941633000,2.357633056640625,2.4012071550041436,-0.5661889451384544,-1.7130714538469909
1780625512951661800,2.367661865234375,-3.5838445754438637,-1.2054805358886718,-1.736816486571729
1780625512961692000,2.37769189453125,-1.0203040012359619,4.805683540937304,-2.368331890362501
1780625512971721000,2.387720947265625,-2.7183687323480843,11.928760227638483,-5.190309465745091
1780625512981751000,2.3977509765625,-6.490770132532716,10.853236443483828,-6.368154391211271
1780625512991779800,2.40777978515625,-9.499377363985776,11.272516333043574,-6.258958687955141
1780625513001810000,2.417809814453125,-4.579167572419345,10.414700064790248,-5.8544005667090415
1780625513011839000,2.4278388671875,0.849359113292396,10.060516039997339,-5.4359875231117005
1780625513021869000,2.437869140625,1.272937284567952,6.909886355963349,-5.471022596135735
1780625513031897900,2.44789794921875,0.8941483953505754,1.797476122456789,-4.475605491136014
1780625513041928000,2.457927978515625,0.3151147278167307,-1.8818495191454887,-2.889870377391577
1780625513051957000,2.46795703125,-0.6873860518336296,-4.421781254228949,-0.9244685686819255
1780625513061986800,2.47798681640625,-0.42463527911305426,-5.325694672268629,0.4159478225275874
1780625513072016000,2.488015869140625,-0.1317348673224449,-4.81365466594696,0.8851675087764859
1780625513082044400,2.49804443359375,0.13094517824947832,-4.359502200448513,1.025001511402428
1780625513092074200,2.50807421875,0.2503162385612726,-3.440922543674707,1.1137699281796813
1780625513102104000,2.51810400390625,0.3408744978973642,-2.274350707373023,1.1308740615852177
1780625513112133400,2.52813330078125,1.1349578968327492,-1.7890888178616762,1.4161936628580092
1780625513122162400,2.538162353515625,1.0296347241610289,-1.4474696756094694,1.7935643558405339
1780625513132192300,2.548192138671875,0.7174649637550116,-0.5160416431784629,2.0156294824294743
1780625513142221300,2.55822119140625,1.8134096046477555,1.9817098233014343,2.479773326718807
1780625513152251100,2.568251220703125,1.6740210077017545,4.603525476345419,2.6094857483029363
1780625513162280400,2.578280517578125,0.9706775813449173,4.7804473928719755,1.7795120112210512
1780625513172310300,2.588310302734375,2.033634656327963,2.06405785164237,0.33291283483579753
1780625513182339000,2.598339111328125,2.0327087736546994,-0.2913578585237264,-0.7695701217845082
1780625513192369200,2.608369140625,1.912123661378026,-0.30454642592072484,-0.8190981228023767
1780625513202398200,2.618398193359375,0.6504477755367756,1.045927102792263,-0.7002494789294899
1780625513212428300,2.62842822265625,0.9269617006719112,1.1782084980815648,-0.22875571026876568
1780625513222457000,2.63845703125,1.2019582069814205,0.07521218511164188,0.6543588115006684
1780625513232487200,2.648487060546875,1.6415753666490316,-0.8796756333619355,1.187194791483134
1780625513242516200,2.65851611328125,1.8646014472246168,-0.9123492379516362,1.7065343071632086
1780625513252546300,2.66854638671875,1.6034060872524976,-2.9099188936859366,1.7138379081748425
1780625513262575000,2.6785751953125,1.4514432554155587,-2.780411054763198,1.802012450712174
1780625513272605200,2.688605224609375,1.064577442726493,-1.244540626645088,1.5115059483207762
1780625513282634200,2.69863427734375,0.6562438945949077,0.662366176867485,0.8403115912228822
1780625513292664300,2.708664306640625,0.25999592105448244,2.0193869352668523,0.043488428592681885
1780625513302693000,2.718693115234375,0.048152913272380825,2.139506768119335,-0.598381488212943
1780625513312723200,2.72872314453125,0.17799268756322562,1.5822025557041168,-0.8697313085831702
1780625513322752300,2.738752197265625,0.4038081065963953,1.2173591897308826,-0.9027199704714118
1780625513332782300,2.7487822265625,0.42137613118663425,1.0842127020448447,-0.8635365455962717
1780625513342811400,2.758811279296875,0.4555290145486593,1.0925585055857896,-0.8411891047097743
1780625513352841200,2.76884130859375,-0.9165244778096675,0.3659299921661615,-0.2063448487572372
1780625513362870300,2.778870361328125,-1.3964204563736915,-0.5615303056776523,0.2961176202714443
1780625513372900400,2.788900390625,-1.6038000550061464,-1.33886901563704,0.8881136452309787
1780625513382929400,2.798929443359375,-1.5586001463204622,-1.1159995869278907,1.4057187383338807
1780625513392959200,2.808959228515625,-1.5349907226741313,-0.3476338724970817,1.8964758642606436
1780625513402988300,2.81898828125,-1.0049826595939695,0.37311844236552716,2.34383720831424
1780625513413018000,2.82901806640625,1.3939578656524418,0.20631518427133558,2.31828658747226
1780625513423047400,2.83904736328125,3.4504338838636874,-0.12986848892867564,1.838506782633811
1780625513433077200,2.8490771484375,3.317150033533573,0.1889864483296871,1.0773526070170103
1780625513443106000,2.85910595703125,1.432718096679449,0.9878238733917474,0.1486754807293415
1780625513453136100,2.86913623046875,0.054923284190148115,1.3389666307926178,-0.7330240596756339
1780625513463165200,2.879165283203125,-0.15547113221883774,1.4666881708204746,-1.2799527162879705
1780625513473195300,2.8891953125,0.2512807727444917,1.3857283819675446,-1.5000636400692164
1780625513483224000,2.89922412109375,0.5566507169425488,0.9398188441574573,-1.4590020002320407
1780625513493254100,2.909254150390625,0.36904023314118384,0.13675649487674235,-1.0509934462711215
1780625513503283200,2.919283203125,0.00622033581957221,-0.5533692110538483,-0.3645430678524077
1780625513513313300,2.929313232421875,-0.13772329408228395,-0.48953649809062477,0.3479049445234239
1780625513523342000,2.939342041015625,-0.26586802795827386,0.2806295437604189,0.8272717846468091
1780625513533372200,2.9493720703125,-0.23569077022895216,1.1083090324252842,1.1350159836955367
1780625513543401200,2.959401123046875,-0.1602330859236419,1.4597095639795064,1.2098866618931292
1780625513553431300,2.969431396484375,0.03397299675047397,1.247750236341357,1.213036211965233
1780625513563460400,2.97946044921875,0.180343269277364,0.7111983045756817,1.216271102233231
1780625513573490200,2.989490234375,0.3855512229591608,0.15622808806598185,1.1226232428513467
1780625513583519200,2.999519287109375,0.6000900456964969,-0.2752460971564054,0.9506823296077549
1780625513593549300,3.00954931640625,0.6368759079106152,-0.4971025494307279,0.7590384986370802
1780625513603578400,3.019578369140625,0.6173381906826049,-0.5031634569048882,0.7417923264123499
1780625513613608400,3.0296083984375,0.407057098454982,-0.6438894399344921,0.48103491946607824
1780625513623637200,3.03963720703125,0.26712540760822595,-0.5000163910508155,0.436484122338891
1780625513633667300,3.049667236328125,-0.15502397297322748,-0.09659750296771526,0.3177604200199246
1780625513643696400,3.0596962890625,-0.46299854671172797,0.1734714838117361,0.18261106807887553
1780625513653726500,3.0697265625,-0.3073286770503968,-0.34354689544439315,0.06773176622837782
1780625513663755300,3.07975537109375,-0.2959001781284809,-0.344119726896286,0.05761661492735147
1780625513673785000,3.08978515625,-0.17658873904943465,-1.294625384762883,-0.22190219111219048
1780625513683814400,3.099814453125,-0.3995789445940405,-1.0296949299156666,-0.42118820739910007
1780625513693844200,3.10984423828125,-0.8654869490116834,-0.569611905324459,-0.5289997628204525
1780625513703873300,3.119873291015625,-1.173401974582672,-0.11866788047850131,-0.5995984627872705
1780625513713903000,3.129903076171875,-1.173286969900876,0.06969722108244895,-0.5501427963532507
1780625513723932200,3.13993212890625,-1.1408768385529517,0.07066226672232151,-0.5675682706676424
1780625513733962200,3.149962158203125,-0.18247882000133395,-0.7502157252341508,-0.4045927541680634
1780625513743991000,3.159990966796875,0.4497252967059612,-1.5126947197139262,-0.5195367918178438
1780625513754021000,3.170021240234375,-0.009673983404785393,-0.8702198227524757,-0.6513106759764253
1780625513764050200,3.18005029296875,-0.17147008086144924,-0.3197200296550989,-0.8038423937425017
1780625513774080300,3.190080322265625,0.7940396693915128,-1.388174021553993,-0.9941266267977654
1780625513784109300,3.200109375,0.7701083203144371,-1.3832307199329137,-0.9522878651082515
1780625513794139100,3.21013916015625,1.2774867645658552,-1.3277403033792972,-1.0834442018903792
1780625513804168200,3.220168212890625,0.5594308491803706,-0.2654389888912439,-1.1612569248892366
1780625513814198300,3.2301982421875,-1.131077913594246,1.0631330891370772,-1.7610909499980507
1780625513824227300,3.240227294921875,-0.9321208370007574,1.7415566668361424,-1.7307526564881204
1780625513834257400,3.25025732421875,-0.3367793010056019,1.3339303901910782,-1.2959065106146037
1780625513844286200,3.2602861328125,-0.21736842014007268,-0.2715267843723297,-0.49691827890500423
1780625513854316300,3.27031640625,-0.44657764632999897,-1.3566753059625625,0.14623627088367938
1780625513864345300,3.280345458984375,-0.969955550680682,-1.1780319724708794,0.48697687673568724
1780625513874375400,3.29037548828125,-1.3485796777904033,-0.4097720565021038,0.6556696018382907
1780625513884404200,3.300404296875,-1.6137147152990101,0.3561480183422565,0.7871655458383262
1780625513894434300,3.310434326171875,-1.6970406487613916,0.9894915143430233,0.8809623121716081
1780625513904463400,3.32046337890625,-1.3248644556820393,1.5859247910976408,0.8762098569475114
1780625513914493400,3.330493408203125,-0.1744686781555414,2.026561941462755,0.804249367108196
1780625513924522200,3.340522216796875,0.15143690826669334,1.795463613590598,0.5606026694387197
1780625513934552300,3.35055224609375,0.2968934269495308,0.50918403236866,1.0548254256494343
1780625513944581400,3.360581298828125,0.23882234625294804,-0.17928455400466917,1.173239039105922
1780625513954611200,3.370611083984375,-0.1157318270266056,0.2532575527101755,1.2068706750728189
1780625513964640300,3.38064013671875,-0.57264542780146,-0.2868804208487272,1.089801315832138
1780625513974670000,3.390670166015625,-0.2287047107338905,-0.951587607884407,0.9167124015972018
1780625513984699100,3.40069921875,0.45285891855657096,-1.0532505775481462,0.8194672483757138
1780625513994729200,3.410729248046875,0.5437907969780266,-0.648710576480627,0.6503340860292315
1780625514004758300,3.42075830078125,0.5657179666258394,-0.12262100201845168,0.4326150258205831
1780625514014788000,3.4307880859375,0.635941841930896,0.009503741404414177,0.2710002762801945
1780625514024817200,3.440817138671875,0.6938052712261676,-0.26685236282050606,0.1465085119538009
1780625514034847200,3.45084716796875,0.6155052031017839,-0.6002800153106451,-0.002264876192063093
1780625514044876300,3.460876220703125,0.8427059390135109,-1.527325887134671,-0.06952011094987393
1780625514054906000,3.470906005859375,0.9728232881367206,-1.0002490552008152,-0.4452183406755328
1780625514064935200,3.48093505859375,0.879429403515905,1.05057638990283,-1.0842064184345304
1780625514074965200,3.49096533203125,1.0417181067951022,2.492750297191739,-1.4893528609625994
1780625514084994600,3.50099462890625,1.266696198221296,2.3381734834641215,-1.433304518265277
1780625514095024600,3.511024658203125,1.2545597702257334,1.0125134934902191,-1.005348131905496
1780625514105053400,3.521053466796875,0.4328238462656736,0.012508768439292908,-0.6342746393710375
1780625514115083500,3.53108349609375,-0.884313960687071,-0.11048106689155102,-0.4798158990651369
1780625514125112600,3.541112548828125,-2.038436357521266,-0.04148994825184345,-0.33969211971238256
1780625514135142700,3.551142578125,-2.5803619451493023,-0.3140413994967937,-0.027909020536392926
1780625514145171500,3.56117138671875,-2.642331786850095,-0.7900304337501526,0.374537953774631
1780625514155201500,3.571201416015625,-2.1378062478117643,-1.2756336840450764,0.72275035681203
1780625514165230600,3.581230712890625,-1.2785562934935093,-1.888072339183092,0.9057203213311731
1780625514175260400,3.591260498046875,-0.48207390712499615,-1.7489917852729557,0.7634617219068109
1780625514185289500,3.60128955078125,-0.12428045966327189,-1.0219546910524369,0.5868358657173812
1780625514195319300,3.6113193359375,0.09067220457196234,-0.40038814208507534,0.3816843183979392
1780625514205348600,3.6213486328125,0.4298204266659915,-0.3283820595383644,0.21460180497094988
1780625514215378400,3.63137841796875,0.5350976413041353,-0.2751730319201946,0.1353033734589815
1780625514225407500,3.641407470703125,0.3851455647677183,-0.022222937723994255,0.08244652027934789
1780625514235437300,3.651437255859375,-0.04704509816095233,0.3355892144382,0.13504106926098466
1780625514245466400,3.66146630859375,-0.6592055208794773,0.38203766188025473,0.24077976393103598
1780625514255496400,3.671496337890625,-0.9731336692601442,0.23722236371040342,0.33944939699769017
1780625514265525500,3.681525390625,-1.16362862245664,0.24893325977027414,0.3223797503836453
1780625514275555600,3.6915556640625,-0.9338976374149321,0.05148994874060154,0.2932875114120543
1780625514285584400,3.70158447265625,-0.9223743728816509,0.04923720137774944,0.27149405114650726
1780625514295614500,3.711614501953125,-0.3133329589664936,-0.8347200548261403,0.10783552081882954
1780625514305643500,3.7216435546875,0.023088760773092507,-0.8684826236963271,-0.1323315180413425
1780625514315673600,3.731673583984375,0.39180166165605185,-0.6596995880067348,-0.3800027950517833
1780625514325702400,3.741702392578125,0.5394723492570221,0.13005436688959598,-0.716808399542421
1780625514335732500,3.751732421875,0.5808756421387196,0.9495745144963263,-1.0400583568893373
1780625514345761500,3.761761474609375,0.7666561340339482,0.39697570329308507,-1.0521579600058495
1780625514355791600,3.77179150390625,0.6655204031147063,-0.4718377597928047,-0.9369947266474365
1780625514365820400,3.7818203125,0.5309066193550824,-0.744133774971962,-0.7135198793910443
1780625514375850500,3.7918505859375,0.5500675391599535,-0.738941467025876,-0.7033078435868024
1780625514385879600,3.801879638671875,-0.1324491530716419,-1.729205719307065,-0.374125865842402
1780625514395909600,3.81190966796875,-0.07456205063983798,-1.276663611614704,-0.29426351683735846
1780625514405938400,3.8219384765625,-0.1159060145497322,-0.6108224521130323,-0.34635333116725087
1780625514415968500,3.831968505859375,-0.4714313709490001,0.4740682953238487,-0.41134690460339185
1780625514425997600,3.84199755859375,-0.6635182695120573,1.6232921064615249,-0.4575488299384713
1780625514436027600,3.852027587890625,-0.44569531053751704,2.0400445233702658,-0.35688612335845826
1780625514446056700,3.862056640625,-0.1734391889773309,1.5003075318276882,-0.06775602388679981
1780625514456086300,3.872086181640625,0.04071034218147397,0.7286591424643993,0.25516221728771926
1780625514466115600,3.882115478515625,0.16272621791362762,0.011616203513741492,0.5071393747985363
1780625514476145400,3.8921455078125,0.1361477153286338,-0.7565987042695284,0.6638678136020898
1780625514486174500,3.902174560546875,-0.22294234781488775,-1.0181734189480542,0.6859748698614537
1780625514496204500,3.91220458984375,-0.35248043574541804,-0.954993032413721,0.645128041818738
1780625514506233300,3.9222333984375,-0.26457769588679075,-0.8459206632763147,0.6040352761909366
1780625514516263400,3.932263427734375,-0.34141046793758867,-0.6281050108253955,0.5107942440442741
1780625514526292500,3.94229248046875,-0.3320990342348814,-0.09058101915717125,0.4303391898430884
1780625514536322600,3.952322509765625,-0.14776654919087887,0.3689017014533281,0.33202801482528443
1780625514546351400,3.962351318359375,0.5800245782673359,0.2945481789976358,0.10390578015446662
1780625514556381400,3.97238134765625,1.3568573845311998,0.3524146770328283,-0.46307329244837164
1780625514566410500,3.982410400390625,1.105461826300621,0.5980512333452701,-1.0027205598808824
1780625514576440600,3.992440673828125,0.6945389923281967,0.6301321327388286,-1.3203764966130256
1780625514586469400,4.002469482421875,0.5448597413837909,0.4861795888781547,-1.421393861849606
1780625514596499500,4.01249951171875,0.25367168646901844,0.12851941240727902,-1.1986107962496577
1780625514606528500,4.022528564453125,-0.13265402799397708,-0.7718547255903482,-0.7291141927555203
1780625514616558600,4.03255859375,-0.5252811806887387,-1.0743114857554434,-0.2383873158365488
1780625514626587400,4.04258740234375,-0.3906275033101439,-0.9115525346159934,0.10609861402362585
1780625514636617500,4.052617431640625,-1.315541331541538,0.24672376702725887,0.4765861233636737
1780625514646646500,4.062646484375,-1.5471926171213388,0.5646078134268522,0.6652030077286064
1780625514656676600,4.072676513671875,-0.41051995225995774,0.5045218857765198,0.775407011244446
1780625514666705700,4.08270556640625,0.17263342555239797,-0.20700901175439357,0.6995427919648587
1780625514676735500,4.092735595703125,0.6565398088015616,-0.8491887251615524,0.43217678053379055
1780625514686764500,4.1027646484375,0.7821670068986714,-0.8139116600751877,0.04839022915959358
1780625514696794600,4.112794677734375,0.7744061636388302,-1.3625205248594283,-0.45404695929735894
1780625514706823700,4.12282373046875,0.9325336555853485,-1.742570227792859,-0.7144226734496653
1780625514716853500,4.132853515625,0.3865729672223329,-0.954916460046172,-0.8460049805589019
1780625514726883300,4.14288330078125,-0.6478653578281403,0.004997077634930611,-0.8212018170833587
1780625514736912400,4.152912353515625,-0.29826120817139745,-1.426354991388321,-0.5611940594606101
1780625514746942500,4.1629423828125,0.4082546376764774,-1.59329327403903,-0.21914602427184582
1780625514756971500,4.172971435546875,-0.4898781511351466,-0.6376110903173685,-0.15408376951366662
1780625514767001300,4.18300146484375,-0.797381381034851,-0.07631225530803203,0.11156506273597479
1780625514777030400,4.193030517578125,-0.4708908343315124,0.3557739243328571,0.3057686611920595
1780625514787060500,4.203060546875,-0.43146191026270386,0.3734410984486341,0.33951325601413845
1780625514797089500,4.213089599609375,0.31013328614234925,0.41967210374772546,0.3625529169484973
1780625514807119600,4.22311962890625,-0.09981105818673967,0.5796183355540037,0.1868525050409138
1780625514817148400,4.2331484375,-0.7526512818180024,0.5601800601124763,0.1048554820947349
1780625514827178500,4.243178466796875,-1.440495160421729,0.24027298345267772,0.2907048014424741
1780625514837207600,4.25320751953125,-1.8781462807133793,-0.1626741954654455,0.6460154921777546
1780625514847237600,4.263237548828125,-1.8423674035847186,-0.3011661358326673,1.0221008215248584
1780625514857266400,4.273266357421875,-1.7211606522783636,-0.05825754317939281,1.2642843147739766
1780625514867296500,4.283296630859375,-1.4184408572629092,0.462543861746788,1.3701967585757373
1780625514877325600,4.29332568359375,-0.42895109648555513,0.9545505493432282,1.4166685868933797
1780625514887355600,4.303355712890625,1.3739379909306764,1.07687286067605,1.1699378056034444
1780625514897384400,4.313384521484375,1.9629180290699004,1.2088836223304271,0.6672633012592792
1780625514907414500,4.32341455078125,0.9692737789615988,1.0859738664984702,0.030645021371543405
1780625514917443600,4.333443603515625,0.15456190841943024,0.37415012350082394,-0.3469961591154337
1780625514927473700,4.3434736328125,0.002468143679201603,-0.10110475125908851,-0.38275837737023827
1780625514937502500,4.35350244140625,-0.24261516266465186,-0.11899345917105673,-0.23903671965599058
1780625514947532300,4.3635322265625,-0.5890367367625237,0.12370002942681312,0.02015694510489702
1780625514957561600,4.3735615234375,-1.1614674988999962,0.3282289148032665,0.37307869487702844
1780625514967591400,4.38359130859375,-1.872698828962445,0.22981997849941252,0.7472840556964278
1780625514977620500,4.393620361328125,-2.43393482786864,0.025742928543686865,1.1267258558645843
1780625514987650300,4.403650390625,-2.1131252494111656,-0.19412614930570124,1.5434537228539584
1780625514997679400,4.413679443359375,-2.1207722570329905,-0.1943628806710243,1.5499714341849087
1780625515007709400,4.42370947265625,0.5377320814609527,-0.1612374406605959,1.3350555948287248
1780625515017738500,4.433738525390625,0.9281450652375817,0.3542413079380989,0.5599190710887313
1780625515027768600,4.4437685546875,0.39288463458716866,0.19196809448897836,0.12572189064323902
1780625515037797400,4.45379736328125,0.5221019661307335,-0.16891045950651168,-0.1481044028431177
1780625515047827500,4.463827392578125,0.8898132887557149,-0.7770785977184772,-0.2570271343767643
1780625515057856500,4.4738564453125,0.24506314033865928,-1.2722972330987452,-0.11613748521804809
1780625515067886600,4.483886474609375,-0.40508419094681736,-0.3689601536422968,-0.013891747230291365
1780625515077915400,4.493915283203125,0.411314025247097,0.045430794832110405,-0.4145923162654042
1780625515087945500,4.503945556640625,2.3537749572217463,-0.6723609166592359,-1.2457844892263412
1780625515097974500,4.513974609375,1.9661548190340399,-1.0921674604415892,-1.8503294685050844
1780625515108004600,4.524004638671875,1.099191659989953,-1.0601450132369994,-2.0480179864674803
1780625515118033400,4.534033447265625,0.27264059083312747,-0.609981909635663,-1.869987231916189
1780625515128063500,4.5440634765625,-0.07486088745594024,-0.4485837254554033,-1.4048276347130537
1780625515138092500,4.554092529296875,-0.39915655446350573,-0.16681027235686777,-0.8113029388815164
1780625515148122600,4.56412255859375,-0.36128041279464956,-0.17435177377760408,-0.869678555482626
1780625515158151400,4.5741513671875,-1.7546604785591362,-0.5485638565987349,-0.004823182372748851
1780625515168181500,4.584181396484375,-1.6154299947842954,0.2760971610277891,0.014536767135560512
1780625515178210600,4.59421044921875,-1.5189920662924647,0.1893961981743574,0.2010474730014801
1780625515188240600,4.60424072265625,-0.6671323683559894,-0.8470511286109685,0.2987657966926694
1780625515198269700,4.614269775390625,-1.0238239920556544,-0.6795628108620643,0.3157408968910575
1780625515208299500,4.624299560546875,-1.4980729046434162,-0.6870563814878463,0.26164748765379187
1780625515218328600,4.63432861328125,-0.9888964710593223,0.00027706337571144104,-0.03343494435101747
1780625515228358400,4.6443583984375,-0.3417293246284127,0.292498260730505,-0.4984978031814098
1780625515238387700,4.6543876953125,0.24056290630996227,0.1922194389015436,-0.83651585220173
1780625515248417500,4.66441748046875,-0.05858370639383793,-0.2058785464197397,-0.7717730386562645
1780625515258446300,4.6744462890625,-0.8439429334625601,-0.8254390162616968,-0.2759749959528446
1780625515268476400,4.684476318359375,-1.4195733684241771,-1.0938386085242033,0.2646044377632439
1780625515278505500,4.69450537109375,-1.390855807983875,-0.8232195866465568,0.8014128285080194
1780625515288535600,4.70453564453125,0.16326602387875316,-0.13405191209316253,1.368089849424362
1780625515298564400,4.714564453125,2.259288747319579,-0.016491116073727607,1.425318487947434
1780625515308594400,4.724594482421875,1.8325652637556193,-0.38335634326338763,0.6192809222482144
1780625515318623500,4.73462353515625,-0.11817045235037803,-0.17343115180134772,-0.19110563244074583
1780625515328653600,4.744653564453125,-0.9973644396752118,0.10151625466942786,-0.7029526004083454
1780625515338682400,4.754682373046875,-0.3548030334740877,0.24327158074676988,-1.1901157934963702
1780625515348712400,4.76471240234375,0.32836437775120136,0.6288748261541128,-1.738091182682663
1780625515358741500,4.774741455078125,-1.246729222730547,-0.07596446478366851,-0.7087694699935615
1780625515368771600,4.784771484375,-0.5999262334369123,-0.31834055799543853,0.01995192405208945
1780625515378800400,4.79480029296875,-0.44613618617281314,0.832654354467988,0.286188931453228
1780625515388830500,4.80483056640625,-0.493719336733222,1.0057722025364637,0.06203750010952353
1780625515398859500,4.814859619140625,0.0377070687122643,0.7614642644792795,-0.6433345825307071
1780625515408889600,4.8248896484375,-0.0456400536686182,0.7411456990718841,-0.6770121034659445
1780625515418918700,4.834918701171875,0.334279885405302,0.21643092009425163,-0.8272277993746101
1780625515428948500,4.844948486328125,0.42352410300076004,-0.006552490383386612,-0.655510319623351
1780625515438977500,4.8549775390625,0.6863869577936828,-0.6753174283772707,-0.7114534483805298
1780625515449007600,4.865007568359375,0.6588017623841762,-1.0385837542921303,-0.589390372505784
1780625515459036700,4.87503662109375,0.6102579500980675,-1.0961918936520814,-0.273814603048563
1780625515469066500,4.88506640625,0.7797504472762345,-0.9206389273911714,0.1033946157619357
1780625515479095600,4.895095458984375,1.449559341365099,-0.6453513291805982,0.4946972418546676
1780625515489125400,4.90512548828125,1.645674034139514,-0.4767342996627092,0.8301734974376856
1780625515499155500,4.915155517578125,1.1868610294841229,-0.5004588741213083,0.8805483976084738
1780625515509184500,4.9251845703125,0.47473508866950864,-0.1376297705799341,0.6902581732038409
1780625515519214300,4.93521435546875,-0.3220627933889627,0.5308855765670538,0.5865351292051375
1780625515529243400,4.945243408203125,-0.6556774928838014,0.906806801393628,0.7770686608463525
1780625515539273500,4.9552734375,-0.8286094629913568,0.5935358017474412,1.0293215665586293
1780625515549302500,4.965302490234375,-1.1673474968492985,0.38565117620229716,1.2995048273675143
1780625515559332600,4.97533251953125,-1.235549510937929,0.1984334911108017,1.5707812902405858
1780625515569361400,4.985361328125,-0.9154361711163074,-0.1104945108950138,1.8057430155426262
1780625515579391500,4.9953916015625,-0.6835924317043274,0.20884090335667133,2.1283761561654506
1780625515589420500,5.005420654296875,-0.3750455379705876,0.36479894230961796,2.222507853541523
1780625515599450600,5.01545068359375,0.09680383919477462,0.09610533553659915,2.009853675507009
1780625515609479400,5.0254794921875,0.5146580433329567,-0.2847802336990833,1.512415610511601
1780625515619509500,5.035509521484375,0.35252164453864093,-0.5504816729187965,0.9712514357101172
1780625515629538600,5.04553857421875,-0.19442191738188266,-0.6733499276965856,0.6505722786992788
1780625515639568600,5.055568603515625,-0.2250327442228794,-1.0676309850782155,0.3270148263057694
1780625515649597400,5.065597412109375,0.2066915981019847,-1.1685340762853622,0.17948763882871716
1780625515659627500,5.07562744140625,0.9414800553679465,-1.0483914470791815,0.019727869505248963
1780625515669656600,5.085656494140625,1.4731377853512764,-0.8554436939030885,-0.14303758444022385
1780625515679686700,5.095686767578125,1.4950199468135832,-0.7145411852627992,-0.24635990215092896
1780625515689715500,5.105715576171875,1.951773534721136,-0.4909346744507551,-0.253292039501667
1780625515699745500,5.11574560546875,2.134820071607828,0.06366144804954528,-0.39760676773823794
1780625515709774600,5.125774658203125,1.6327321349799633,0.48875908397734164,-0.5599102301951497
1780625515719804400,5.135804443359375,0.8791910647153854,0.7250865446746348,-0.669970295195654
1780625515729833700,5.145833740234375,0.08671740253157913,0.8175573231011629,-0.6765284846674651
1780625515739863300,5.15586328125,-0.1529413214802742,0.32214404193162915,-0.5488968879453837
1780625515749892400,5.165892333984375,-0.006489362019300461,-0.311476517444849,-0.2701362798620015
1780625515759922400,5.17592236328125,0.4191898001234978,-0.7602431982517242,0.14521825294755397
1780625515769951500,5.185951416015625,0.7608266241628676,-0.927357421991229,0.3938327290922403
1780625515779981600,5.195981689453125,0.9080793055474757,-0.6406944432854652,0.5467678400274366
1780625515790010400,5.20601025390625,0.908044380364567,-0.34436581061184407,0.5719061537414789
1780625515800040400,5.21604052734375,0.6703834791064262,-0.3147989398658275,0.7105415942326188
1780625515810069500,5.226069580078125,0.12222104291543363,-0.4163578646332025,0.7172672492258251
1780625515820099600,5.236099609375,-0.2660814515132457,-0.4003945718258619,0.623817396634072
1780625515830128400,5.24612841796875,-0.09267229234799743,-0.24790450124442576,0.39195831352248783
1780625515840158500,5.256158447265625,0.22535905356779692,0.07023615026473999,0.04384864020720124
1780625515850187500,5.2661875,0.3950947118520736,0.32867958118021484,-0.41978462421149015
1780625515860217600,5.276217529296875,0.42682241389378905,0.5700450360447168,-0.7281368721559643
1780625515870246400,5.286246337890625,0.18039974870495498,0.7505746216744184,-0.591625438081473
1780625515880276500,5.2962763671875,-0.16642726438865066,0.5077829333990812,-0.07982976190969347
1780625515890305500,5.306305419921875,-0.544472641762346,0.026571196061372756,0.4490498816624284
1780625515900335600,5.316335693359375,-0.7589363534368574,-0.3383621862828731,0.8469131814450025
1780625515910364400,5.326364501953125,-0.5480490389443934,-0.7900052993088961,1.0191836189039052
1780625515920394500,5.33639453125,-0.11814502564817667,-1.0890957979112863,1.0182115590013563
1780625515930423600,5.346423583984375,0.3942471551120281,-0.8784609968751669,1.0031713723883031
1780625515940453600,5.35645361328125,1.0281458007775246,-0.4891343470305204,0.9586378186568617
1780625515950482700,5.366482666015625,1.4066073577366769,-0.20852643058001993,0.7372016376212239
1780625515960512500,5.376512451171875,1.2945989351473748,0.06234276666641235,0.29868133327960966
1780625515970541600,5.38654150390625,0.9292353446923196,0.26083763257563114,-0.519626954319328
1780625515980571400,5.3965712890625,0.5637725316464901,0.4366466194242239,-0.9151227943181991
1780625515990600700,5.4066005859375,0.5164437942385673,0.3264771026998758,-0.758052117948234
1780625516000630300,5.41663037109375,0.6291314312636852,-0.004904138654470444,-0.52153030372262
1780625516010659600,5.42665966796875,0.6379014515660703,-0.07221884851455689,-0.4398461461178958
1780625516020689400,5.436689453125,0.49961409386023875,0.15411036525964736,-0.5309272237516939
1780625516030719500,5.446719482421875,0.42414048133343457,0.1309825876504183,-0.667930386865884
1780625516040748500,5.45674853515625,0.4339572342097759,0.13454875569939612,-0.6955800258137286
1780625516050778400,5.4667783203125,0.3040181642629206,0.2602291452884674,-0.6405763698637486
1780625516060807400,5.476807373046875,0.2291711592018604,0.2912245875328779,-0.4823354806706309
1780625516070837500,5.48683740234375,-0.0296235693693161,0.2882581389427185,-0.41592663360908627
1780625516080866600,5.496866455078125,-0.4317934803046286,0.17493688018918035,-0.4012476815238595
1780625516090896600,5.506896728515625,-0.6580467062331735,0.14748013346493244,-0.24561902065575122
1780625516100925400,5.516925537109375,-0.6002595570445061,-0.05265431634485721,0.12409297426715492
1780625516110955500,5.52695556640625,-0.01929053753390908,-0.16138766278624533,0.15295914939790964
1780625516120984300,5.536984375,0.3916716055355966,-0.1299842242628336,-0.1895993195310235
1780625516131014400,5.547014404296875,0.9533622163414954,-0.7722492778658866,-0.8356605505466461
1780625516141043500,5.55704345703125,0.8864613479793071,-0.9826327344894409,-1.2819250392742454
1780625516151073500,5.567073486328125,0.5696155585862696,-0.12486088989973068,-1.48204107664451
1780625516161102300,5.577102294921875,0.2973310877144337,0.7338415135383606,-1.0883056704469025
1780625516171132400,5.58713232421875,-0.23327333382368087,0.552090277159214,-0.21634557989835737
1780625516181162200,5.597162353515625,-0.3949554495118558,0.1775625525176525,0.08235854973495006
1780625516191191600,5.607191650390625,-0.2922643058441579,-0.06535831509530544,0.08876827064678072
1780625516201220400,5.617220458984375,-0.40936537539735435,-0.1663824023336172,0.10822042848318815
1780625516211250400,5.62725048828125,-0.7686217350184917,-0.15548282265663146,0.2571723880663514
1780625516221279500,5.637279541015625,-0.8065129281260073,-0.37209903618991375,0.41109205305948854
1780625516231309300,5.647309326171875,-0.6159750125706196,-0.44862230390012264,0.6282577171690762
1780625516241338400,5.65733837890625,-0.4714953760959208,-0.26269816575050353,0.7822201983906328
1780625516251368200,5.6673681640625,-0.32152912490367885,-0.14918752190470694,0.7847855188339948
1780625516261397200,5.677397216796875,-0.3869758489347994,0.07621873180568217,0.780462102676928
1780625516271427300,5.68742724609375,-0.3059973553813994,0.3920622122883796,0.6632124184332787
1780625516281456400,5.697456298828125,-0.10275558720603585,0.5402876111626624,0.5270400070548057
1780625516291486200,5.707486328125,-0.2589079796873033,1.209482172745466,0.6071589611694216
1780625516301515300,5.717515380859375,-0.17721534651517867,1.9446803615897892,0.8172713457666337
1780625516311545300,5.72754541015625,0.2206710418820381,1.6037977169185875,0.8561103411182761
1780625516321574400,5.737574462890625,0.02433715339899063,1.0043863011360168,0.8477988782383501
1780625516331604500,5.7476044921875,-0.5936065288960933,0.17106500719189643,0.4454387054279446
1780625516341633300,5.75763330078125,-0.7111446746923029,-0.7288076110243797,-0.3476378180198371
1780625516351663400,5.767663330078125,-0.7996646696664392,-0.8506862702429294,-0.7868345603182911
1780625516361692400,5.7776923828125,-0.5077649593509733,-1.279136723729968,-1.0982584707930683
1780625516371722500,5.787722412109375,-0.4812487083472311,-1.1164432390421628,-1.0934852650418876
1780625516381751300,5.797751220703125,-0.38042920377030964,-0.6607867987215519,-0.8616726514205336
1780625516391781400,5.807781494140625,-0.41660993969812987,-0.0038560909062623975,-0.3479186807878315
1780625516401810400,5.817810546875,-0.4809587854899466,0.36059681444466113,0.1332328507952392
1780625516411840500,5.827840576171875,-0.1952897862575948,-0.014192191481590271,0.6738356653869152
1780625516421870600,5.83787060546875,0.16010405271649358,-0.7213350831866264,1.1168722781091929
1780625516431899400,5.8478994140625,0.28584304062500593,-1.3150579319387674,1.4885598108887672
1780625516441929200,5.85792919921875,-0.04646715214252472,-1.2345768665134906,1.6978849906310438
1780625516451958500,5.86795849609375,-0.268463889670372,-1.1593038911253213,1.1896060904085635
1780625516461988400,5.87798828125,-0.45158977540358897,-0.5291501310765743,0.5243070749595761
1780625516472017400,5.888017333984375,-0.3629167818248272,0.3221072170525789,-0.08391074761301279
1780625516482047200,5.898047119140625,0.12514949758276342,0.48255263055264946,-0.6878583455204963
1780625516492076300,5.908076171875,-0.14142273312211037,0.9595476269781589,-0.8718512233465909
1780625516502106400,5.9181064453125,-0.33057986184358595,0.863175164937973,-0.9142200002595782
1780625516512135200,5.92813525390625,-0.45911870960369705,0.6864467251569032,-0.5199348512247205
1780625516522165200,5.938165283203125,-0.625611586574465,-0.10951602125167846,0.10157704494595526
1780625516532194300,5.9481943359375,-0.8216324635855853,0.6187094059705733,0.8812012354940175
1780625516542224400,5.958224365234375,-0.17947174713984132,1.2301064431011677,1.1042881063461303
1780625516552253400,5.96825341796875,0.14221198380365968,1.971447372484207,1.4089718949109316
1780625516562283300,5.978283203125,-0.005313303977251053,3.5977018358826633,1.6796642742857335
1780625516572312300,5.988312255859375,0.6339117974080145,2.9245594134569166,1.0256249039977787
1780625516582342400,5.99834228515625,0.4920039111174643,4.292326022276282,1.0103402411043643
1780625516592371500,6.008371337890625,-0.17562997701987623,4.9980426805704825,0.3305924290642142
1780625516602401300,6.0184013671875,0.385764427318424,3.802790108707547,-0.2813502592504024
1780625516612430300,6.028430419921875,0.7409327869735658,0.601872837460041,-1.0959285665407776
1780625516622460400,6.03846044921875,0.41079613885283467,-0.7423854699999094,-0.5099202376887202
1780625516632489500,6.048489501953125,0.14317512974739074,4.7264732261002065,1.7537720052868127
1780625516642519600,6.05851953125,0.4987748665571212,3.649846449139714,1.879685619109869
1780625516652548400,6.06854833984375,1.5269534005604684,6.079204178351164,3.063583561004698
1780625516662578400,6.078578369140625,1.544818727596849,8.97949891912341,4.050490319551527
1780625516672607500,6.088607421875,0.772125359225273,8.69827316303551,4.013458227491379
1780625516682637600,6.098637451171875,0.23720475498847662,7.817078357282281,2.7285572411462664
1780625516692666400,6.108666259765625,-0.29206454548835753,1.8626397917628288,-0.06656885992884636
1780625516702696400,6.118696533203125,0.2889595652103424,-4.954717333585023,-2.2190166504248974
1780625516712725500,6.1287255859375,0.3294049728453159,-9.66263198968768,-4.39165061212033
1780625516722755300,6.13875537109375,0.7596388756830245,-12.334764456039666,-5.308812511050701
1780625516732784400,6.148784423828125,1.5264134484648704,-13.215417994523047,-5.111523513799906
1780625516742814200,6.158814208984375,1.0662381424803287,-11.41437745758295,-3.6597131786376234
1780625516752843300,6.16884326171875,1.0845733520507812,-9.343354443103074,-2.2705101062968374
1780625516762873300,6.178873291015625,1.2351380075275897,-9.962665906620025,-3.7834172997176645
1780625516772902400,6.18890234375,0.7773474047224969,-11.41139405785799,-5.77032878331542
1780625516782932200,6.19893212890625,0.7537023252408951,-11.639511908614635,-4.070139022873342
1780625516792962300,6.20896240234375,0.5376700490754097,-10.894646312236786,-2.7523192250058055
1780625516802991400,6.218991455078125,0.6917021614670753,-10.213711043977737,-2.0549726279109715
1780625516813021400,6.229021484375,1.4735294150173663,-8.660764977896212,-1.7358645926743745
1780625516823050200,6.23905029296875,1.5684136843264103,-7.019477196016907,-1.7504560126066206
1780625516833080300,6.249080322265625,1.9919734431624412,-3.3179841462701556,-1.08628220179528
1780625516843109400,6.259109375,3.0247698462247845,0.4967682029098272,-0.4695315286770463
1780625516853139500,6.269139404296875,2.419563042036444,0.8715589624017477,-0.8060024943858385
1780625516863168500,6.27916845703125,2.196890304943174,3.3277550141781567,-0.3955187824830413
1780625516873198300,6.2891982421875,0.5592002552948891,10.857550215029717,1.2260393397927283
1780625516883227400,6.299227294921875,-4.929280109989643,18.292741132557392,2.3189161175474524
1780625516893257500,6.309257568359375,-6.3062500159621235,19.751184037601945,2.5872747932776807
1780625516903286500,6.31928662109375,0.9617604807220399,17.69887039976716,3.1316543499290943
1780625516913316600,6.329316650390625,2.60548761857748,14.38876385500431,3.865674434904754
1780625516923345400,6.339345458984375,-0.29444807962402697,8.434677756184339,4.901430272294581
1780625516933375200,6.349375244140625,-2.523804191625118,1.6371961286514995,3.8015152664661405
1780625516943404500,6.359404541015625,-4.104923920528591,-3.254247294896841,2.383261163946986
1780625516953434400,6.369434326171875,-4.6134065266296265,-6.8845672057896845,1.1062734349444507
1780625516963463400,6.37946337890625,-4.502580299562216,-9.252081934550404,0.10310790777504443
1780625516973493200,6.3894931640625,-3.852404618965089,-10.609897642719744,-0.47164925148338077
1780625516983522300,6.399522216796875,-3.228226426194608,-11.219331855344771,-0.8746963836446404
1780625516993552400,6.409552490234375,-2.627813724415004,-11.122030003499985,-1.4381085575461388
1780625517003581200,6.419581298828125,-1.8394974011063574,-10.714622922563553,-1.896707188798487
1780625517013611300,6.429611328125,-1.0187959347605704,-9.910118557780981,-2.4056930682465434
1780625517023640300,6.439640380859375,0.13761398848891257,-8.883374878886341,-2.673651931004226
1780625517033670400,6.44967041015625,1.754863161524385,-7.737432573637366,-2.9484733730077743
1780625517043699200,6.45969921875,2.8828996615961193,-6.472163047218323,-3.45569779574126
1780625517053729300,6.469729248046875,2.7631752578020095,-4.873141458660364,-3.872319572007656
1780625517063758300,6.47975830078125,2.15114430668205,-1.9762305151075124,-3.195518042552471
1780625517073788400,6.489788330078125,2.453652797034383,1.8659002548635004,-2.0605174025565383
1780625517083817500,6.4998173828125,4.057215243892371,6.215778886920213,-0.23667788157016037
1780625517093847300,6.509847412109375,3.617315175630152,9.567454290390014,1.4638105695575474
1780625517103876400,6.51987646484375,2.816299529746175,11.6510643992424,3.4569907581612465
1780625517113906400,6.529906494140625,3.0276012702584265,11.099467458558083,4.881186525689065
1780625517123936500,6.5399365234375,1.2885916575565934,6.686701285433768,3.656137073716521
1780625517133965300,6.54996533203125,1.062374671985209,0.6929851870149374,1.550176016846299
1780625517143995400,6.559995361328125,1.2071803255438804,-3.8132349303543567,-0.6796703628897667
1780625517154024400,6.5700244140625,-0.028213410310447214,-6.30603257381916,-2.1533672434285283
1780625517164054300,6.58005419921875,-1.0247893299564719,-6.469172633230686,-2.9714184875264764
1780625517174083600,6.59008349609375,-1.1907125903457403,-4.165536210140585,-2.179306863588095
1780625517184113200,6.600113037109375,-0.4654582878887653,-1.3517699982643128,-0.0909291019424796
1780625517194142500,6.610142578125,0.44160657991915936,2.0014660786509513,2.2359175163432954
1780625517204172300,6.62017236328125,0.65894380120337,5.376293809649348,4.473375247865915
1780625517214201300,6.630201416015625,0.46227673524320123,6.707134417131543,5.862226145768165
1780625517224231400,6.6402314453125,1.128056227685511,5.5010377951711416,5.730140565311908
1780625517234260200,6.65026025390625,2.111731749226153,2.782142993122339,4.322353496271371
1780625517244290300,6.660290283203125,1.7624664761349558,0.6716881319642066,2.2570868533611295
1780625517254319400,6.6703193359375,0.5631725199267268,0.06298807883262635,0.4577779625192284
1780625517264349400,6.680349365234375,-0.004546411257982254,0.6735884126275777,-0.2818473951175809
1780625517274378200,6.690378173828125,-0.15692659172415732,1.8887468774437903,0.08501783207207918
1780625517284408300,6.700408203125,-0.7829507046222687,2.6702795319616794,0.7162289922192693
1780625517294437400,6.710437255859375,-1.4204679791763424,2.9802935756385325,0.9445113858878612
1780625517304467500,6.720467529296875,-1.8663517980232833,2.8001076888799665,0.6557064267173409
1780625517314496300,6.730496337890625,-2.1020520667329428,2.165456617411971,0.17028993116617203
1780625517324526300,6.7405263671875,-1.562923562477529,1.677813385722041,0.1784840512767434
1780625517334555400,6.750555419921875,-0.5760618121162057,1.488064136326313,0.7328320442348718
1780625517344585500,6.76058544921875,0.18151333597004413,1.5338994203060865,1.1925716622158884
1780625517354614300,6.7706142578125,0.8288879876717925,1.2758072870463133,1.1487135235279797
1780625517364644400,6.780644287109375,1.1386679303318261,1.056956446328759,0.537834080530703
1780625517374673400,6.79067333984375,1.0354650377497077,0.7911901251792908,-0.33862405208945273
1780625517384703500,6.800703369140625,0.6547390429899096,0.5667237826675177,-1.0278773590996861
1780625517394732500,6.810732666015625,0.04195464315414429,0.6376946769475936,-1.2570429653435944
1780625517404762400,6.820762451171875,-0.46193245185017584,0.7840531129062175,-0.9271443637624383
1780625517414791400,6.83079150390625,-0.6742366474032402,0.878115544438362,-0.26619799056500193
1780625517424821500,6.840821533203125,-0.6971534126102924,0.9930845703989267,0.438934730361402
1780625517434851300,6.850851318359375,-0.5818655299589037,0.9978601142376661,0.852874720197916
1780625517444880400,6.86088037109375,-0.24597207187712192,0.9151245478838682,0.8130591348990798
1780625517454910200,6.87091015625,0.1868131959438324,0.9611001171171665,0.47017333371192216
1780625517464939300,6.880939208984375,0.39136487767398354,1.046111811709404,-0.12313099736720323
1780625517474969300,6.89096923828125,0.2870107692301273,1.2293220147252082,-0.7133318094730376
1780625517484998400,6.900998291015625,0.1587526381075382,1.7515636815875768,-1.0944576172053813
1780625517495028200,6.9110283203125,0.07210545126795768,2.3767530972272155,-1.2230144390136002
1780625517505057300,6.921057373046875,0.1643152406707406,2.760586994874477,-1.0822364335358141
1780625517515087400,6.93108740234375,0.2626519885212183,2.6289731235831972,-0.6706856769233942
1780625517525116400,6.941116455078125,-0.09691650578901172,1.9444816241472958,0.07703355531990527
1780625517535146500,6.951146484375,-0.5862555816113948,1.0255991850346327,0.9057081925019621
1780625517545175300,6.96117529296875,-0.7061632330179214,0.13517419412136078,1.6922449389174579
1780625517555205400,6.971205322265625,-0.5417267040550708,-0.5759907927066087,2.296642910940945
1780625517565234400,6.981234375,-0.35883214285969733,-0.9136696729004382,2.437968028907478
1780625517575264500,6.991264404296875,-0.18431085773408412,-0.787763657861948,1.9129601122021673
1780625517585293300,7.001293212890625,0.14598083481788635,-0.4027957877486944,1.052073934984207
1780625517595323400,7.011323486328125,0.4358510851323604,0.0016074351966381072,0.39517391456812617
1780625517605352400,7.0213525390625,0.5734579132281243,0.35190789655447,0.01555120487511158
1780625517615382500,7.031382568359375,0.6800108468905091,0.4927858552753925,-0.1872311290949583
1780625517625411300,7.041411376953125,0.5346683099761605,0.489151882687211,-0.33292584044784307
1780625517635441400,7.05144140625,0.24900281787514686,0.45917818470597266,-0.4464239170730114
1780625517645470500,7.061470458984375,-0.18319383640289305,0.36462650835216043,-0.4747919334232807
1780625517655500300,7.071500244140625,-0.5481330639660358,0.21543489479422567,-0.6104509884521365
1780625517665529600,7.081529541015625,-0.626883506206423,0.0004763853400945663,-0.676588763487339
1780625517675559200,7.09155908203125,-0.697581282633543,-0.34788638595342636,-0.7007751102387905
1780625517685588500,7.10158837890625,-0.7242543316341936,-0.7485293795824051,-0.7393430335640907
1780625517695618300,7.111618408203125,-0.8258733160257339,-1.0117062687605618,-0.7759922637864947
1780625517705648400,7.1216484375,-0.9627787178538739,-1.1688432883650064,-0.6697448889419436
1780625517715677200,7.13167724609375,-1.0805296296179294,-1.3296668875277042,-0.3509235616922378
1780625517725707300,7.141707275390625,-1.1937972584880887,-1.4638818812280892,-0.046556876252591604
1780625517735736300,7.151736328125,-1.218216098821163,-1.4662579627096652,0.2722182737678289
1780625517745766400,7.161766357421875,-1.1236920411266387,-1.412497730949521,0.6038564124926924
1780625517755795500,7.17179541015625,-0.9000034049890935,-1.3319307408064602,0.6744640264183283
1780625517765825300,7.1818251953125,-0.6118624626852571,-1.2298217809408902,0.5737170025557279
1780625517775854300,7.191854248046875,-0.17620185862369833,-1.1175742888987064,0.2759393401175737
1780625517785884400,7.201884521484375,0.49409299235120413,-0.9400462231725454,-0.23116028719246387
1780625517795913500,7.21191357421875,1.001927802067995,-0.6501683740735054,-0.7222787937775254
1780625517805943600,7.221943603515625,0.8640449335098266,-0.4032394398629665,-1.164394200001657
1780625517815972400,7.231972412109375,0.483728031007573,-0.24552023645639418,-1.4426386021912097
1780625517826002400,7.24200244140625,0.1200071662582457,-0.02221124728620052,-1.4982456308618186
1780625517836031500,7.252031494140625,-0.23126265158839523,0.12858780146837234,-1.2524305031120777
1780625517846061600,7.2620615234375,-0.5507611474473029,0.22948738554418086,-0.6635328825592994
1780625517856090400,7.27209033203125,-0.6933632265470921,0.3147171068012714,-0.09789309573620557
1780625517866120400,7.282120361328125,-0.8743464011631905,0.14633037890791892,0.30727292827516794
1780625517876149500,7.2921494140625,-1.00793771000728,-0.25233517716825005,0.6925918037831783
1780625517886179300,7.302179443359375,-0.9208429985959082,-0.6682821229130029,1.1211571158215403
1780625517896208400,7.31220849609375,-0.9128266462050377,-1.0296031599789857,1.5138444742709398
1780625517906238200,7.32223828125,-0.9403390686392784,-1.3421908535361289,1.7277555204987525
1780625517916267500,7.332267578125,-0.923389175947383,-1.6271037737041711,1.863200348255038
1780625517926297300,7.34229736328125,-0.62454863351807,-1.857325903263688,1.7396818128749727
1780625517936326100,7.352326171875,0.0006289455533027648,-1.7799024718433618,1.4586436883136629
1780625517946356200,7.362356201171875,0.542707531785965,-1.272094404003024,0.9737988551706075
1780625517956385300,7.37238525390625,0.6869499985039234,-0.4580728538125753,0.16110300062596797
1780625517966415400,7.382415283203125,0.8925951014939695,0.35595454159677026,-0.6797568721294402
1780625517976444400,7.3924443359375,1.2869256240405142,0.940220410695672,-1.343843296918273
1780625517986474200,7.40247412109375,1.48310855974555,1.299457627224922,-1.7826988245636224
1780625517996504300,7.41250439453125,1.3413853823721409,1.330189450097084,-2.0539158123344183
1780625518006533400,7.422533447265625,1.048106346527487,1.0479273366987705,-2.110387056618929
1780625518016563500,7.4325634765625,0.5645030378781258,0.6171300278246402,-2.0438558983519672
1780625518026592300,7.44259228515625,0.030678046858310697,0.151938281917572,-1.8795000334098935
1780625518036622300,7.452622314453125,-0.36532735009789463,-0.18589082040190696,-1.5394816043525934
1780625518046651400,7.4626513671875,-0.7242191872555762,-0.3940466641038656,-1.0874161742612718
1780625518056681500,7.472681396484375,-1.0497920345921068,-0.5044400527119636,-0.6215314776539802
1780625518066710500,7.48271044921875,-1.3123907585561274,-0.4384177207499742,-0.19916735834330318
1780625518076740400,7.492740234375,-1.0412194365579635,-0.2472673723846674,0.19738544336259364
1780625518086769400,7.502769287109375,-0.6856091052889823,-0.05175707524418831,0.452924092747271
1780625518096799700,7.5127998046875,-0.7380605194728821,0.15789339092969892,0.5775947207719088
1780625518106828800,7.522828857421875,-1.0966051506280898,0.3237590759128332,0.6359221143171191
1780625518116859000,7.53285888671875,-1.6124983252465723,0.2556073307067156,0.45450727028548715
1780625518126887700,7.5428876953125,-1.99341136701107,0.2043190420180559,0.3805602828040719
1780625518136917800,7.552917724609375,-1.951055741840601,-0.04609598074257373,0.47100452383905644
1780625518146946800,7.56294677734375,-1.611152755856514,-0.3378267642319202,0.671096303550899
1780625518156977000,7.572976806640625,-1.2184161514379084,-0.4052320749849081,0.7323927760347724
1780625518167005700,7.583005615234375,-1.0873861444491892,-0.1742114885240793,0.6709998574391007
1780625518177035800,7.593035888671875,-1.060763510461524,0.26695816128253935,0.5193760482981801
1780625518187064800,7.60306494140625,-0.9597264176111667,0.7779594722062348,0.3569523204624653
1780625518197095000,7.613094970703125,-0.6735329561132938,1.2032137600004673,0.3252306097701192
1780625518207123700,7.623123779296875,-0.3802876033425331,1.3894377578794956,0.37953503140956163
1780625518217153800,7.63315380859375,-0.31286884858608244,1.2377344537615775,0.41161008558422324
1780625518227183900,7.643183837890625,-0.25644853077121077,0.818248812496662,0.394044033755362
1780625518237213000,7.653212890625,-0.04860416417121887,0.3775397659391165,0.38350890347659583
1780625518247243000,7.663242919921875,0.34043139377236364,-0.2929536032825708,0.28328911835849285
1780625518257271800,7.673271728515625,0.6477298218149692,-0.9998848980635404,0.0019037877947092054
1780625518267302000,7.683302001953125,0.8001824099302292,-1.3923732268095015,-0.2619911865249276
1780625518277331000,7.6933310546875,0.9569441664814948,-1.4974176556050776,-0.4621253440737724
1780625518287361000,7.703361083984375,1.3008148870527743,-1.436615688639879,-0.6001616496279836
1780625518297390000,7.71339013671875,1.6294307553470133,-1.1526742438524962,-0.5988426759839057
1780625518307420000,7.723419921875,1.6673042666673659,-0.8385089257150888,-0.6174973998323082
1780625518317449000,7.733448974609375,1.501353826010227,-0.35638650327324867,-0.6453282405659556
1780625518327478800,7.743478759765625,1.3431763574421405,-0.2391016015857458,-0.6495680700927973
1780625518337507800,7.7535078125,1.1602058084011078,-0.5097533566892147,-0.697693218575418
1780625518347537700,7.76353759765625,1.1493149965524674,-1.1808365084975958,-0.7190516484245657
1780625518357566700,7.773566650390625,1.2562930237591265,-1.936059248238802,-0.7108584050968288
1780625518367596800,7.7835966796875,1.1655249575972557,-2.5760055035054683,-0.686115301245451
1780625518377625900,7.7936259765625,1.003490813601017,-2.9909558394283056,-0.5623439601480961
1780625518387656000,7.803656005859375,0.6462392179310321,-3.3508570728242395,-0.47244916968941686
1780625518397684700,7.813684814453125,0.023220716589689255,-3.6737083862423896,-0.38871231733858586
1780625518407714800,7.82371484375,-0.28614092759303744,-3.532835688218474,-0.20368746611624955
1780625518417744000,7.833743896484375,-0.18376549881100654,-2.9662989525556562,0.24791736072599888
1780625518427774000,7.84377392578125,0.08497307961490005,-2.314656998798251,0.772297208660841
1780625518437802800,7.853802734375,-0.13915478819012642,-1.544633580288291,1.1849535884276032
1780625518447832800,7.863832763671875,-0.596453150498867,-0.7433236276328563,1.5378692007198929
1780625518457862000,7.87386181640625,-1.089737602946162,-0.2401730302095413,1.7350532762914894
1780625518467892000,7.88389208984375,-1.1696183643907307,0.11381401070654391,1.987198337715119
1780625518477922000,7.893922119140625,-0.9314034825116395,0.5537877287268639,2.30552998175174
1780625518487950800,7.903950927734375,-0.5756231284379959,0.9000877222716808,2.573294198720157
1780625518497981000,7.91398095703125,0.049783217887952924,1.2657295451462267,2.751493587836623
1780625518508010000,7.924010009765625,0.42721068255901334,1.8495926786631345,2.61324597761929
1780625518518040000,7.9340400390625,0.47616015303656456,2.5506208868801594,2.3379238926172254
1780625518528068900,7.94406884765625,-0.6310216289244592,2.7689900815606117,2.3319972790472208
1780625518538098700,7.9540986328125,-1.9652875346802174,2.44448223310709,2.3441430593930184
1780625518548128000,7.9641279296875,-2.093255158423632,2.0690140127450225,2.1483954463653263
1780625518558157800,7.97415771484375,-1.411244516018033,1.3280869248598812,1.7855616666488348
1780625518568187000,7.984186767578125,-0.788446087168157,0.27062194448709487,0.9352638112016022
1780625518578216700,7.994216796875,-0.6559072099864482,-0.8805676137655973,0.08552417415902018
1780625518588245800,8.004245849609376,-0.7387168644897639,-1.910930067679286,-0.3240479758568108
1780625518598275800,8.01427587890625,-1.0522902080833911,-2.390325695505738,-0.5051945243410766
1780625518608305000,8.024304931640625,-1.2230686534188686,-2.304296932825446,-0.6344453197628259
1780625518618334700,8.034334716796875,-1.1268082734510303,-1.7151222488969564,-0.9915385100007057
1780625518628363800,8.04436376953125,-0.8440857029341161,-0.7963292416334152,-1.5727831315822898
1780625518638393900,8.054393798828125,-0.541573559319973,0.06381283921897411,-2.268293745421618
1780625518648423000,8.0644228515625,-0.3931520533517003,0.7280500706553459,-2.9886636368378996
1780625518658453000,8.074452880859376,-0.1309711894735694,1.3109113336533307,-3.5371097122758623
1780625518668481800,8.084481689453124,0.07684972318559885,2.0073925460904833,-3.7712253421425816
1780625518678511900,8.094511962890625,0.20463439157754182,2.559184132564068,-3.8842075782001015
1780625518688542000,8.1045419921875,0.43079146365523335,2.890352607950568,-3.4313343388572335
1780625518698571000,8.114571044921876,0.42235885861366984,2.655261411049962,-2.6052760216534137
1780625518708600800,8.124600830078125,-1.5978516679957508,1.902895229783654,-2.5813462800115343
1780625518718630000,8.1346298828125,-3.216599993547797,0.7199398294359445,-2.3655704628251493
1780625518728660000,8.144659912109375,-2.507162561164796,-0.602124766394496,-1.705242367656529
1780625518738689000,8.15468896484375,0.4031307187914848,-1.8804513427853584,-1.3998795107863842
1780625518748719000,8.164718994140625,-6.929957668611407,-1.5180319890886544,-0.6404674295965582
1780625518758748000,8.174747802734375,-5.060701673579215,-1.6924451376646756,0.09834273919984697
1780625518768777700,8.18477783203125,-2.073825212419033,-0.8488502869874238,-0.06652622636351734
1780625518778807000,8.19480712890625,-3.2505376267239448,-0.7671358803749084,0.2779677772052586
1780625518788836900,8.2048369140625,-3.4256007636412975,-2.029694978791475,-0.570081130271405
1780625518798866000,8.214865966796875,-1.6601986724458633,-0.8689899886965751,-0.9375077176708727
1780625518808895700,8.224895751953126,-1.42656191213727,0.5138233826071024,0.6261691473919898
1780625518818924800,8.2349248046875,-1.6501362742453813,-1.0902449679464101,-0.11879223751053214
1780625518828955000,8.244954833984375,0.2662615573205054,-1.4756231724262237,0.43201611007936297
1780625518838983700,8.254983642578125,0.4023281702369451,-2.154626595839858,0.7842811495084315
1780625518849013800,8.265013671875,-1.5269763430446386,-1.7041595408558845,-2.7680612762778996
1780625518859042800,8.275042724609374,2.843047251418233,0.09673369656801223,1.4938212385483085
1780625518869073000,8.285072998046875,5.821531147286295,-1.1114438233196735,0.4835656069874763
1780625518879101700,8.295101806640625,4.316784171706438,-0.38621523982584477,-1.5959817824706435
1780625518889131800,8.3051318359375,4.379268977192044,0.20377368309497831,-0.24889424293413756
1780625518899161900,8.315161865234375,5.5987873907834285,-1.430394037646055,-0.6864888107329606
1780625518909191000,8.32519091796875,4.212667379149794,-0.9512649518013,-1.6805213295064865
1780625518919221000,8.335220947265626,3.107121966218948,-0.346546077260375,-1.4848659248068927
1780625518929249800,8.345249755859374,2.1672177818655967,-0.8136170610427856,-2.331475154869258
1780625518939280000,8.35527978515625,1.3815905515104532,-0.27758827636837957,-2.4191864638090133
1780625518949309000,8.365308837890625,2.092395472854376,0.00005962123274803161,-2.667512405335903
1780625518959339000,8.375339111328126,0.996575335124135,0.392414094465971,-2.100098156186193
1780625518969368000,8.3853681640625,-0.5962865617603064,0.1774059006512165,-1.6973394855774937
1780625518979398000,8.39539794921875,0.98339904268682,0.40519875723719595,-1.250975335867703
1780625518989427000,8.405427001953125,1.5734037476986646,0.35125440108180045,-0.7167845802754164
1780625518999456800,8.415456787109376,1.6664403433144093,0.16025836649537087,-0.4461190889075398
1780625519009486000,8.425486083984374,1.8428747685849665,0.09827858792245388,-0.0316616510681808
1780625519019516000,8.435515869140625,1.7924919043034313,-0.0026537293791770934,0.2977412759505212
1780625519029544700,8.445544677734375,1.599632413932681,-0.019299159231781958,0.6492769781917334
1780625519039574800,8.45557470703125,1.6487638168483971,-0.06315466757118701,1.0047726701050996
1780625519049603800,8.465603759765624,1.8071476216435431,-0.11690496245920658,1.3262211309880017
1780625519059634000,8.475634033203125,1.3906459646254776,-0.3807850314706564,1.4994780952662228
1780625519069662700,8.485662841796875,1.0635030914932488,-0.4975479551106691,1.5208827023446558
1780625519079692800,8.49569287109375,1.0373347771443426,-0.39856384926736355,1.4710256155028938
1780625519089721900,8.505721923828125,1.1211639108885079,-0.4457119694113731,1.1059610079944133
1780625519099752000,8.515751953125,0.8223281907647848,-0.7215922728180885,0.6765715200915933
1780625519109780700,8.52578076171875,0.31775545158386226,-0.9661825349479913,0.5079781637102365
1780625519119810800,8.535810791015624,0.2975929535210132,-1.3561626802653073,0.48345630139410495
1780625519129841000,8.5458408203125,0.46212359050810337,-1.7768313938349485,0.4431865425869822
1780625519139870000,8.555869873046875,0.2970914337396621,-1.9556144280582666,0.4844473582580685
1780625519149900000,8.565900146484376,-0.09139452749714255,-1.984644123187661,0.6407815370470284
1780625519159928800,8.5759287109375,-0.3569019054494798,-1.7835902204453944,0.8216539447650313
1780625519169959000,8.585958984375,-0.30775588948652144,-1.4025918384850025,0.9613801031023264
1780625519179988000,8.595988037109375,-0.1169125612437725,-1.0116320344805716,1.1693857246786354
1780625519190018000,8.60601806640625,0.034591859301179646,-0.5849000753492116,1.3598250021651386
1780625519200046800,8.616046875,0.01983107415139675,0.05889467203915119,1.4497259301036596
1780625519210077000,8.626076904296875,-0.22594445224031803,0.6334557242035865,1.5443874965727329
1780625519220106000,8.63610595703125,-0.5901135722137987,0.7830611792594194,1.4355030512228608
1780625519230135800,8.6461357421875,-0.5097470730789005,0.6596241846829652,1.0506991394996643
1780625519240164900,8.656164794921875,-0.006312105756253004,0.35698330012261864,0.2901505285605788
1780625519250194700,8.666194580078125,0.6875526405721902,0.11896949377357958,-0.4339890906527638
1780625519260223700,8.6762236328125,1.189337648730725,0.03328092283308506,-1.1310919421195984
1780625519270253800,8.68625390625,1.2697960639327763,0.22409517111182212,-1.6621859007403255
1780625519280283000,8.696282958984375,0.9835160931952297,0.5647065976262092,-2.1145272251635787
1780625519290312700,8.706312744140625,0.6057470485448837,0.7996797211050987,-2.5707211333617566
1780625519300341800,8.716341796875,0.2610265792764723,0.9011661651581525,-2.8313641201481223
1780625519310371800,8.726371826171874,-0.10402151548862457,0.732191992765665,-2.625360193783045
1780625519320402000,8.73640185546875,-0.5813064347714185,0.18793956962525843,-2.032906634314358
1780625519330431000,8.746430908203125,-1.1207796608112752,-0.3760626791238785,-1.4220441424518824
1780625519340460800,8.756460693359376,-1.2358363650552928,-0.7605985875606537,-0.682597940774262
1780625519350489900,8.76648974609375,-1.1495208943881094,-1.0122609800338744,0.15382131918519734
1780625519360520000,8.77652001953125,-1.3500972427465021,-1.1309522413879631,0.7711717117622494
1780625519370549000,8.786549072265625,-1.5334582524098455,-1.0291711983025074,1.1510554104790092
1780625519380578800,8.796578857421874,-1.5117080467641353,-0.6618114655941725,1.3832459175020455
1780625519390608000,8.80660791015625,-1.7629343859076498,-0.6145709909915924,1.4128262322515248
1780625519400638000,8.816637939453125,-1.9906202749878168,-1.230577567744255,1.2010580432713032
1780625519410667000,8.8266669921875,-1.6376859579950571,-2.199142029392719,0.9628291328668593
1780625519420697000,8.836697021484374,-1.1247843664079904,-3.1126971360027786,0.6261088685721159
1780625519430726000,8.846725830078125,-0.7643055523198098,-3.360410498589277,0.4881459205150604
1780625519440756000,8.856755859375,0.13400642898362128,-2.7895950626939534,0.5499018272042274
1780625519450785000,8.866784912109376,0.8150164795119315,-2.551654321581125,1.1065788476318121
1780625519460814800,8.87681494140625,1.3210241468667983,-2.2374264596015214,1.5983154861152171
1780625519470844000,8.886843994140625,1.7407862669855356,-1.8482091153502462,1.8292700216025113
1780625519480873700,8.896873779296875,2.2543957145810127,-1.0075275217711925,1.6933482239842415
1780625519490902800,8.90690283203125,2.4764509042978284,0.6322808352053165,0.759727065423131
1780625519500932900,8.916932861328124,2.723999431711435,2.231839599379897,-0.013341712132096289
1780625519510961700,8.926961669921875,2.728252412980795,2.9460014299362896,-0.28304595725238324
1780625519520991700,8.93699169921875,2.3174457527339456,2.9344378333926198,-0.4024041580826044
1780625519531021800,8.947021728515624,1.7605892840862274,2.2172207069188357,-0.5264069698482752
1780625519541051000,8.95705078125,0.8488730833411217,1.1774708314567803,-0.833417155534029
1780625519551081000,8.9670810546875,0.40610359712243077,0.3772451669067144,-0.936423356500268
1780625519561109800,8.97710986328125,0.0677600790074095,-0.27702012109160423,-0.6666074676990509
1780625519571139800,8.987139892578124,-0.2529097987184301,-0.6460813970208168,-0.2481295421719551
1780625519581169000,8.9971689453125,-0.5707166516959666,-0.583666734161973,0.11129822849333286
1780625519591199000,9.007198974609375,-0.44072132151722904,0.3719523211956024,0.35967151629328725
1780625519601227800,9.017227783203126,-0.6039443830370903,1.5915069751441477,0.3975105408221483
1780625519611257900,9.0272578125,-0.8467734807133674,2.1612346158027647,0.35030806014239785
1780625519621287000,9.037286865234375,-0.6967582758128643,2.1231033303290605,0.3137543992489576
1780625519631317000,9.04731689453125,-0.37768527535703034,1.9579799881458282,0.3225532072544098
1780625519641346000,9.057345947265626,-0.2102536927640438,1.5630010116279125,0.44217268936932086
1780625519651375900,9.0673759765625,-0.2090425999412313,0.7452841140508651,0.6029553719997406
1780625519661405000,9.077405029296875,-0.16264321580529212,-0.2318950312077999,0.8672007671922445
1780625519671434800,9.087434814453125,-0.1711749703723937,-0.9665484456509351,1.2533522941321134
1780625519681464000,9.097464111328126,-0.02998487696237862,-1.0527309375882148,1.4216554353952406
1780625519691494000,9.107493896484375,0.08694058029558509,-0.44121348894834517,1.3993413122564553
1780625519701523000,9.11752294921875,0.16568967082910238,0.36426819643378255,1.4832313093423843
1780625519711552800,9.127552734375,0.19061722786929458,0.8302040387064218,1.5216273832321165
1780625519721582800,9.137582763671874,0.1563654141774401,1.0310457600027323,1.2623521776676176
1780625519731612000,9.14761181640625,0.10356551534943283,1.3602239383548498,0.980237948307395
1780625519741641700,9.157641845703125,-0.05672901843786239,1.6852426589399576,0.7384516376823187
1780625519751670800,9.1676708984375,-0.43972770736999806,1.497501242235303,0.6449082615882158
1780625519761700900,9.177700927734374,-0.7110195139426737,0.9266986658215522,0.6296843889713287
1780625519771730000,9.18772998046875,-0.6172073308445513,0.18045885848104953,0.8304021916270256
1780625519781760000,9.197760009765625,-0.36379582968167956,-0.4483616071373224,1.171264962553978
1780625519791788800,9.207788818359376,0.22984913152866066,-0.36738662071526046,1.5100544343382118
1780625519801819000,9.21781884765625,0.6440075133562088,0.40088907734453677,1.6622095738768576
1780625519811848000,9.227847900390625,0.8921310641787946,1.8349743707239627,1.5826713422596455
1780625519821878000,9.2378779296875,0.9135678199611603,3.3300907636493444,1.3100795590043066
1780625519831906800,9.24790673828125,0.48419791354164476,4.1552714212358,0.7675584897011518
1780625519841937000,9.25793701171875,-0.17314692803248763,4.1522769155949355,0.18964871163070202
1780625519851966000,9.267966064453125,-0.890329713845253,4.0038019258737565,-0.2121528043836355
1780625519861996000,9.27799609375,-1.3646550526700914,3.5837832006454464,-0.359634691414237
1780625519872024800,9.28802490234375,-1.3597943147659302,2.3817694640845057,-0.07801438305079937
1780625519882055000,9.298054931640625,-1.1417165042474866,0.6337088221818208,0.32316753976047036
1780625519892084000,9.308083984375,-0.8171675931312143,-1.0952870537668467,0.578131311866641
1780625519902113800,9.31811376953125,-0.5633969763323664,-2.6747867802530525,0.7656430114686489
1780625519912142800,9.328142822265624,-0.4282885409235954,-3.834448398774862,0.7967670485287904
1780625519922172700,9.338172607421875,-0.48602235248982906,-4.228575726899504,0.639290421706438
1780625519932202800,9.34820263671875,-0.22818565529584883,-3.8549306303113697,0.2647796481996775
1780625519942231800,9.358231689453126,0.36194852131456134,-3.1122856325924393,0.058218964734673494
1780625519952262000,9.368261962890625,0.9366928210914135,-2.389843464946747,0.1023860232412815
1780625519962290700,9.378290771484375,1.3587301926657556,-1.942674282464385,0.30714404119849203
1780625519972320800,9.38832080078125,1.2520011717841029,-1.6973878547638654,0.48260056134760376
1780625519982349800,9.398349853515626,0.8700725232362747,-1.4840204138934612,0.5207920525759459
1780625519992380000,9.4083798828125,0.3609761691510677,-1.2570610855221747,0.29828093578517434
1780625520002409000,9.418408935546875,0.011552198366820811,-1.244206864646077,-0.04014496338367462
1780625520012438800,9.428438720703125,-0.16362755066752432,-1.5138959121972322,-0.33795126739442344
1780625520022467800,9.4384677734375,-0.29105887557715177,-2.013878400978446,-0.6760942579686642
1780625520032498000,9.448497802734375,-0.3907543445602059,-3.184732444643974,-1.2301315775424242
1780625520042528000,9.458528076171875,-0.36282705771476026,-3.2342870414078235,-1.1679513079613446
1780625520052556800,9.468556884765626,-0.4197054214954376,-3.2981337828963992,-1.3588386214762926
1780625520062587000,9.4785869140625,-0.2857429412513971,-3.3607378308475018,-1.131530918058753
1780625520072616000,9.488615966796875,-0.02172550959587097,-3.3595927524656055,-0.8863605179533361
1780625520082646000,9.49864599609375,0.24124621239900587,-3.1490631653696295,-0.66461366353333
1780625520092675000,9.508675048828126,0.7254922028660774,-2.625908475315571,-0.5392597294196486
1780625520102704600,9.51870458984375,1.460959856301546,-1.5702368081003426,-0.366374813324213
1780625520112733700,9.528733642578125,1.883685794661939,-0.1445014099150896,0.14866437481343744
1780625520122763500,9.538763427734375,1.7294371899753809,1.1526888568997382,0.9365110347837209
1780625520132792600,9.54879248046875,1.7743112277075648,1.323131932801008,1.478836289253831
1780625520142822400,9.558822509765625,2.4162869429752227,1.2229904736161232,1.9782675738930702
1780625520152851500,9.5688515625,3.2198011276766656,2.1354232981979844,2.5351833715125918
1780625520162881500,9.578881591796875,3.1466160644784567,4.8531700992554425,2.8732512510240076
1780625520172910300,9.588910400390626,1.479173266123235,7.674376690265536,3.31623262642771
1780625520182940400,9.5989404296875,-0.10909896488338708,6.933619113728404,2.9521541073471305
1780625520192970500,9.608970458984375,-1.799910071605444,1.150197624605894,1.8615107877328991
1780625520202999600,9.61899951171875,-0.6133320968464017,-3.762664434546232,0.9217220464527607
1780625520213028400,9.6290283203125,1.5031860098734497,-4.937595518392325,0.10310147803425788
1780625520223058400,9.639058349609375,1.6288783821612596,-4.6114714669138195,-0.3579685117676854
1780625520233087500,9.64908740234375,-0.29156302570700643,-4.3572132127285,-0.12505641247183083
1780625520243117600,9.65911767578125,-1.5459157290533183,-3.78557067835927,-0.0008703530937433242
1780625520253146400,9.669146484375,-1.4170203229404985,-2.4452713376581667,0.12510843492001295
1780625520263176400,9.679176513671875,-0.3243888982489705,0.37412089740633964,0.3959200567603111
1780625520273205500,9.68920556640625,0.3290753024995327,3.4147897390305992,0.3755944770902395
1780625520283235600,9.699235595703126,0.24476035799980161,5.082019771417976,0.13381985690295695
1780625520293264400,9.709264404296874,-0.3320351752184331,4.689679911231995,-0.1564139660269022
1780625520303294500,9.71929443359375,-0.894347571184486,3.259019331604242,-0.40452947967350483
1780625520313324500,9.729324462890625,-1.020222241236642,1.4109545931607483,-0.5265206593558192
1780625520323353600,9.739353515625,-1.2858967193841933,-0.15320494085252284,-0.6554480680420994
1780625520333383700,9.7493837890625,-1.37749363758564,-1.0096534278839826,-0.6892085910856723
1780625520343412500,9.75941259765625,-0.8008955266356468,-1.5648358258396386,-0.5720856019616126
1780625520353442300,9.7694423828125,-0.5097792217828333,-2.211305929917097,-0.4356146460279822
1780625520363471600,9.7794716796875,-0.3900444427251816,-2.7882839800953865,-0.24823037219792604
1780625520373501400,9.78950146484375,-0.1803716185890138,-2.843285151827335,0.09089724549949169
1780625520383530500,9.799530517578125,0.11751461879014968,-2.1663053431957957,0.44134412959069014
1780625520393560300,9.809560302734376,0.6014086540143937,-1.0846136840611695,0.684052523496747
1780625520403589400,9.81958935546875,1.1625251912593841,0.23203823907077312,0.8036641145661473
1780625520413619500,9.829619384765625,1.2052011344254017,1.486312908744812,0.6925219534173608
1780625520423648500,9.8396484375,0.448671988260746,2.312646828019619,0.38398558107763525
1780625520433678300,9.84967822265625,-0.5055857521483674,2.5511931338101625,0.07688669419512152
1780625520443707400,9.859707275390624,-1.3431143981218336,2.317446921777725,-0.11842866489514708
1780625520453737500,9.869737548828125,-1.9285458038687704,1.8083353701233862,-0.14093158860430122
1780625520463766500,9.8797666015625,-2.1599217796385286,0.876881034207344,-0.17846666175052522
1780625520473796600,9.889796630859376,-1.923973673647642,0.21551029811799524,-0.10771306348294019
1780625520483825400,9.899825439453124,-1.3098638704270125,-0.02028115600645542,0.2574574155528098
1780625520493855500,9.90985546875,-0.657640317389369,-0.20618132875859735,0.7432929402336478
1780625520503885600,9.919885498046876,-0.2331797737887129,-0.3631207799643278,1.0455451177373527
1780625520513914600,9.92991455078125,-0.4333001950731501,-0.6992869175076484,1.0792574177250265
1780625520523944700,9.93994482421875,-0.8968816197067498,-0.8349228839218616,0.9177255972277373
1780625520533973500,9.949973388671875,-1.1839292138159274,-0.7420633984386921,0.628113851718977
1780625520544003600,9.960003662109376,-1.1233967114418744,-0.2918669770896435,0.5479832436991855
1780625520554032600,9.97003271484375,-0.8702310017336159,0.2630336813151836,0.5110380627375096
1780625520564062700,9.980062744140625,-0.6077981358557939,0.49429567531645296,0.5551828363470733
1780625520574091500,9.990091552734375,0.10865443598628044,0.48184068289101123,0.5943653844393789
1780625520584121300,10.000121337890626,0.8166911347258835,0.3922159415453672,0.6005547405987978
1780625520594150700,10.010150634765624,1.121289436964318,0.2762590735912323,0.8589047941423952
1780625520604180500,10.020180419921875,1.0767243921160696,-0.39417408987581726,0.9489557980760931
1780625520614209500,10.03020947265625,0.9348422978539019,-1.2185925309181214,0.8216621280714869
1780625520624239400,10.0402392578125,0.8466068919748068,-1.860798547810316,0.9545239535972475
1780625520634268400,10.050268310546874,0.9381692503195256,-2.7851982890397307,1.1478227121680975
1780625520644298500,10.060298583984375,1.0879191553473473,-3.932688408252597,1.2162141113489866
1780625520654327300,10.070327392578125,1.1758774247854948,-4.904381815576553,1.304500882089138
1780625520664357400,10.080357421875,1.0327648388803004,-5.599371328151226,1.2930705565363168
1780625520674386400,10.090386474609375,0.5460936670929193,-5.8677282503157855,1.2139572723329066
1780625520684416500,10.10041650390625,0.06961947967112064,-5.485995124340057,1.064957381954789
1780625520694446600,10.110446533203126,-0.14012567904889583,-4.234733080485463,1.044192241823673
1780625520704475400,10.120475341796874,0.06999357368052006,-2.4382366167157885,0.7703317538067698
1780625520714505500,10.13050537109375,0.6613724896550178,-0.4306874187588691,0.18964228188991544
1780625520724534500,10.140534423828125,1.425094177672267,1.462047067016363,-0.35602526874542234
1780625520734564600,10.150564697265626,2.026586491382122,3.080515698844194,-0.7893342681795358
1780625520744593400,10.160593505859374,1.589984880143404,3.995214130270481,-1.1787801604896784
1780625520754623500,10.17062353515625,0.3457351992689073,3.55934550948143,-1.3155728957235813
1780625520764652500,10.180652587890625,-0.5435316345851868,1.9290356332123277,-1.0289040717989206
1780625520774682600,10.1906826171875,-0.8282498358987271,0.0621358459174633,-0.3673503803580999
1780625520784711700,10.200711669921875,-0.8947288255870341,-1.4530360775649547,0.23682079717218874
1780625520794741500,10.210741455078125,-0.7984070708207786,-2.347513558739424,0.5003998374104499
1780625520804770600,10.2207705078125,-0.46066973843798037,-2.658691385498643,0.4242681993663311
1780625520814800400,10.23080029296875,-0.14379063129723071,-2.2593419388115406,0.149150112503767
1780625520824829700,10.24082958984375,-0.11414952627122402,-1.578729326635599,-0.40072833382487294
1780625520834859500,10.250859619140625,-0.5312976644992828,-0.7535890010595321,-0.9699527011364698
1780625520844888600,10.260888671875,-0.9126672178596258,0.012830840000510215,-1.4112041840076446
1780625520854918400,10.27091845703125,-1.0846170450620352,0.43930970115363593,-1.663050116354227
1780625520864947500,10.280947509765625,-1.034060139387846,0.6290846695125103,-1.7066887670725583
1780625520874977500,10.2909775390625,-0.8087497472673654,0.8495107967227696,-1.5533511397510766
1780625520885006300,10.30100634765625,-0.5831180142380297,0.7679980501621961,-1.2744471046090124
1780625520895036400,10.311036376953124,-0.2043359931528568,0.2181482454061508,-0.7463976282507181
1780625520905066500,10.32106640625,-0.07339549107849598,-0.30164836639165876,-0.3334732451975345
1780625520915095600,10.331095458984375,-0.41483854611143467,-0.46293198428153987,-0.10890928753018378
1780625520925125600,10.341125732421874,-0.5532049604028463,-0.4348287563472986,0.08698270240426063
1780625520935154400,10.351154541015624,-0.1789465542219579,-0.38339901336133475,0.1770569410830736
1780625520945184500,10.3611845703125,0.14742343484163284,-0.2807780123203993,0.2206809787541628
1780625520955213600,10.371213623046875,0.1952005005389452,-0.29119185430705546,0.2604196994245052
1780625520965243600,10.38124365234375,0.3354974445015192,-0.4824515082657337,0.20602643045783042
1780625520975272400,10.3912724609375,0.23923545709848404,-0.6374298885315657,0.24867197848558426
1780625520985302500,10.401302490234375,0.2359212179839611,-0.6131301445335149,0.24371640190482138
1780625520995331600,10.41133154296875,0.16485665407106279,-0.4507932181984186,0.06882511442303657
1780625521005361700,10.421361572265624,0.3205198017306626,-0.02784896091222763,-0.21061726537942885
1780625521015390500,10.431390380859375,0.7050825981743634,0.21936171284914016,-0.4090484184026718
1780625521025420500,10.441420654296875,0.7868490272350609,0.10600479826033114,-0.5021265150725841
1780625521035449600,10.45144970703125,0.6650364189900457,-0.1617208402633667,-0.4430453805506229
1780625521045479400,10.4614794921875,0.6408342901475728,-0.50970601041615,-0.11972001987993716
1780625521055508700,10.4715087890625,0.5712755276877433,-1.0305851567536592,0.23150924676060675
1780625521065538300,10.481538330078125,0.1781470744073391,-1.7344506342232227,0.5201572618037462
1780625521075567400,10.4915673828125,-0.36028365684226155,-2.1603975804567335,0.8239952471941709
1780625521085597400,10.501597412109374,-0.8280956682503223,-1.998646345055103,0.9985381596297025
1780625521095627300,10.511627197265625,-0.5859415472261608,-1.480652398765087,0.8631032687455416
1780625521105656300,10.52165625,-0.5086391118369996,-1.122384904050827,0.4151262770116329
1780625521115686400,10.531686279296874,-1.0944701844260096,-1.0089368040472269,0.03822831610739231
1780625521125715200,10.541715087890625,-1.1438707596719264,-0.8439958326935768,-0.07487257789373397
1780625521135745300,10.551745361328125,-0.7399534205473959,-0.251971604552865,-0.07456161224842071
1780625521145774300,10.5617744140625,-0.6894272022724152,0.3173199827760458,-0.19153671733438968
1780625521155804400,10.571804443359374,-1.314718178590387,0.5652215614110231,-0.19044716853201388
1780625521165833500,10.58183349609375,-1.712214398626238,0.5096820450186729,0.016639000111818313
1780625521175863300,10.59186328125,-1.2559066547900437,0.41525078017413614,0.18548925386369228
1780625521185892400,10.601892333984376,-0.7583364878475666,0.4154518557041883,0.31684768908917904
1780625521195922400,10.61192236328125,-0.6500070460319519,0.1717453906714916,0.3923182328760624
1780625521205951500,10.621951416015625,-0.8089800488919019,-0.29763620814085007,0.4086374995142221
1780625521215981600,10.631981689453125,-1.2430290530383585,-0.5191752650290727,0.40082711802423
1780625521226010400,10.64201025390625,-1.846600511109829,-0.08705226050913334,0.11040507904589175
1780625521236040400,10.65204052734375,-1.7066981194227933,0.5422673868030309,-0.21269114904403685
1780625521246069500,10.662069580078125,-0.8598124105066061,0.6728332103461027,-0.18739421070218085
1780625521256099600,10.672099609375,0.4060356464527547,0.7650257563531399,-0.20741876159906386
1780625521266128400,10.68212841796875,0.5764513959556817,1.4254828847289085,-0.024798341169953345
1780625521276158200,10.692158203125,0.030424802749603984,1.4910802692770957,0.29620296046733857
1780625521286188300,10.702188232421875,-0.5600450355559587,-0.025721885755658147,0.16955752523839474
1780625521296217300,10.71221728515625,-0.8645810862131417,-1.51826404427886,0.08655424785912036
1780625521306247400,10.722247314453124,-0.6010375556796789,-2.107861337533593,0.360270651230216
1780625521316276200,10.732276123046875,-0.38413141928911204,-1.8848826032310724,0.781290077933669
1780625521326306300,10.742306396484375,0.373651087937504,-1.18310386890769,0.5331915154218674
1780625521336335400,10.75233544921875,0.9748767135351896,0.009116203391551971,-0.33751638310849663
1780625521346365400,10.762365478515624,0.5674177562810481,0.8393734335899352,-1.0649696569144724
1780625521356394200,10.772394287109375,0.35941841831505295,0.9718763626754283,-1.5873720672965048
1780625521366424300,10.78242431640625,0.4994213477671146,0.9707195938557386,-1.7707295698285102
1780625521376453400,10.792453369140626,0.9155606742788106,1.0484680194467306,-1.8851561594754456
1780625521386483500,10.8024833984375,1.1507131729125977,0.6253741245567799,-1.784538314950466
1780625521396512300,10.81251220703125,0.8959031300634145,-0.18065701140165327,-1.3012339892476796
1780625521406542300,10.822542236328125,0.3989071828123182,-0.8236614851951599,-0.8554045309364795
1780625521416571400,10.8325712890625,0.028094533171132204,-0.9486012855499982,-0.6340817471474409
1780625521426601500,10.8426015625,0.23666706791520117,-0.48035716633498665,-0.6019885727941989
1780625521436630500,10.852630615234375,0.3613724749922752,0.12241758840084076,-0.651049248561263
1780625521446660400,10.862660400390626,0.2773608973532915,0.26471009009480473,-0.6268582256346941
1780625521456689400,10.872689453125,0.38583603124991056,0.3732850311040878,-0.6853232740849257
1780625521466719500,10.882719482421875,0.5418535453051329,0.7184650807082653,-0.7155547462195158
1780625521476749300,10.892749267578125,0.6169464879512786,0.5038105226367712,-0.53208618452847
1780625521486778400,10.9027783203125,0.5727290144316852,-0.2094955678731203,-0.05184650709331035
1780625521496808200,10.91280810546875,0.42808045113086696,-0.49762335843443867,0.4911065238863229
1780625521506837200,10.922837158203125,0.20904848169274626,-0.15606442193686962,0.6298784502387046
1780625521516867300,10.932867431640625,-0.1874614307194948,0.5432224955707788,0.4332978935182094
1780625521526896400,10.942896484375,-0.2574181064557284,1.2996177862226963,0.1232698213160038
1780625521536926200,10.95292626953125,-0.19939320298843086,1.7671803529143333,-0.23286183041334152
1780625521546955300,10.962955322265625,-0.14122107307016848,1.5296365021646021,-0.4417272836893797
1780625521556985300,10.9729853515625,-0.024981881043314932,0.5980822130054235,-0.4770277296513319
1780625521567014400,10.983014404296876,0.22633513205833733,-0.46927813843786714,-0.3239373550891876
1780625521577044500,10.99304443359375,0.5732102220773696,-0.8190963692367076,-0.18730185624361037
1780625521587073300,11.0030732421875,0.4400999747484922,-0.5886491987496614,-0.211003049826622
1780625521597103400,11.013103271484376,-0.15414061426743864,0.03710486503541469,-0.18989596439003945
1780625521607132400,11.02313232421875,-0.8678430106185376,1.0336936441630125,-0.05686170490682125
1780625521617162500,11.03316259765625,-1.3410200561910868,2.595245626026392,-0.107692897477746
1780625521627191300,11.04319140625,-1.5754260473065078,4.035758906626701,-0.33798867679536343
1780625521637221400,11.053221435546876,-1.4295638704322278,4.467148920696974,-0.32251345976591106
1780625521647250400,11.06325048828125,-1.1056085412949324,3.3445062424927947,-0.07419979319870472
1780625521657280500,11.073280517578125,-0.7610778224449605,1.3292302496761084,0.32449265088438983
1780625521667309300,11.083309326171875,0.10506722514927387,-0.3958236106485128,0.5260235234886408
1780625521677339400,11.09333935546875,1.0395821907449514,-1.2341595178842544,0.5438035103291273
1780625521687369500,11.103369384765625,1.522811770711094,-1.4874562335610388,0.21695348266363143
1780625521697398500,11.1133984375,1.5217933874487877,-1.285369480639696,-0.4368406806915998
1780625521707428400,11.123428466796875,1.3905401661634444,-0.5240244586259126,-0.9352274247139691
1780625521717457400,11.13345751953125,1.184834638223052,0.3560696924090385,-1.003680783215165
1780625521727487200,11.1434873046875,0.7964971455462276,0.8970639905363321,-0.7445861949145793
1780625521737516300,11.153516357421875,0.4125163867741823,0.7942389913558959,-0.21025077015459537
1780625521747546400,11.16354638671875,0.18081936235651372,0.3337929786711931,0.4072276327162981
1780625521757575200,11.1735751953125,0.2660585820943117,-0.07010287927389144,0.8183587026119231
1780625521767605200,11.183605224609375,0.4918884680442512,-0.3099363022655248,1.0457377177000045
1780625521777634300,11.19363427734375,0.669375909499079,-0.3699228611946106,0.9138239866793155
1780625521787664400,11.203664306640626,0.9343237538725138,-0.31637247279286385,0.5623363613635302
1780625521797693400,11.213693359375,1.0824667351603507,-0.3363508464604616,0.1897977647125721
1780625521807723300,11.22372314453125,1.050332059752941,-0.5901017356455326,-0.0477577764749527
1780625521817752300,11.23375244140625,1.092219336759299,-0.8472241470903158,-0.03995908542275429
1780625521827782400,11.243782470703126,1.0350842217385767,-1.0010299764454365,0.0027507600128650663
1780625521837811500,11.2538115234375,1.1451520316541195,-0.7328197692751884,-0.05545885237157344
1780625521847841300,11.26384130859375,1.2278599793486296,-0.4175613952040672,-0.3202466838777065
1780625521857870300,11.273870361328125,0.9190567727662622,-0.32264965336620804,-0.5334995584577321
1780625521867900400,11.283900390625,0.8689496566861867,-0.40535540910363194,-0.5308107577651738
1780625521877930500,11.293930419921875,0.958019248367101,-0.6613397564291954,-0.3481003209650516
1780625521887959600,11.30395947265625,1.1914444117516279,-0.8368488835483789,-0.147546184438467
1780625521897989400,11.3139892578125,1.0646417401343584,-0.9080530020624399,-0.0978068787574768
1780625521908018400,11.324018310546874,0.8274697914369404,-0.6708171943485737,-0.12040741762220859
1780625521918048300,11.33404833984375,0.49826472507789726,-0.032578327521681785,-0.25518472138047216
1780625521928077600,11.34407763671875,0.21084405987262725,0.7269190207988023,-0.4201198475152254
1780625521938107400,11.354107421875,0.028229484662413595,1.2580495120376347,-0.594847468867898
1780625521948136400,11.364136474609374,-0.042778819018602365,1.503722893229127,-0.7963736652970314
1780625521958166300,11.374166259765625,0.08201704282090068,1.2652455610215663,-0.9192997877418995
1780625521968195300,11.3841953125,-0.10963862471804021,0.6059089611083269,-0.8058791602671146
1780625521978225400,11.394225341796876,-0.22091113424822686,-0.09374854327738284,-0.5953425589084624
1780625521988254200,11.404254150390624,-0.14663681450858712,-0.35020343072414395,-0.5540051708698273
1780625521998284300,11.4142841796875,-0.16417466315627097,-0.06564356177747249,-0.79566756285429
1780625522008313300,11.424313232421875,-0.6153156718790531,0.3886930281162262,-1.2330863356947899
1780625522018343400,11.434343505859376,-1.1549223150402306,1.0661720184415577,-1.6717600770324468
1780625522028372200,11.444372314453124,-1.746201277771592,1.5998492715537547,-2.052763719689846
1780625522038402300,11.45440234375,-2.3837176755428313,1.7541449302524328,-2.3656717312425375
1780625522048431400,11.464431396484375,-2.4898481460094453,2.259372333949804,-2.768168243783712
1780625522058461400,11.47446142578125,-2.2394430601209403,3.3449259292095896,-3.230365484049916
1780625522068491500,11.484491455078125,-2.2859223410926757,4.365337482473254,-3.8685505748629567
1780625522078520300,11.494520263671875,-2.3261514756284654,5.233104651376605,-4.554374199685454
1780625522088550400,11.50455029296875,-2.548440620231628,6.066590195971727,-5.030577753472328
1780625522098579200,11.5145791015625,-2.93258226865381,6.096787181314825,-5.248558825618028
1780625522108609300,11.524609375,-3.103998281240463,5.998746493801474,-4.810381927886605
1780625522118638300,11.534638427734375,-3.4844311382725834,5.159871072861552,-3.6630461224526165
1780625522128668400,11.54466845703125,-2.408943886736035,2.666349206775427,-2.1766806067377327
1780625522138697200,11.554697265625,-0.5940943124130368,0.4434516232639551,-0.6985872448056936
1780625522148727300,11.564727294921875,1.2447644985288382,-1.404300980490446,0.2645259656995535
1780625522158756400,11.57475634765625,3.1384950096040964,-2.043658037692308,1.49480250467062
1780625522168786200,11.5847861328125,4.6951069047167895,-3.4757390055119988,2.575731947261095
1780625522178815500,11.5948154296875,6.128554192453622,-7.002964452633261,4.621714628508687
1780625522188845000,11.604844970703125,7.5428896602243185,-11.765005251199007,8.792240317499637
1780625522198874000,11.6148740234375,9.121829999262093,-14.634149651426076,10.940112762904166
1780625522208904200,11.624904296875,8.132105845206976,-10.858698216021061,7.419276724559068
1780625522218933200,11.634933349609375,3.386792309558391,-5.857903606393933,2.732996977159381
1780625522228963000,11.644963134765625,-0.0638249680481851,-4.107334781062603,0.5240174443632364
1780625522238992100,11.6549921875,-1.0673648814879357,-3.189910139542818,0.18273790932893752
1780625522249022200,11.665022216796874,-1.3580920408926904,-2.871186719709635,1.076412257426977
1780625522259051300,11.67505126953125,-1.0952138424001634,-2.9609698664873836,2.4279472778916356
1780625522269081300,11.685081298828125,-0.4012923974484205,-1.913221978008747,3.020177842259407
1780625522279111200,11.695111083984376,0.0034305589705705642,0.4489771086871624,2.799743531742692
1780625522289140200,11.70514013671875,0.3330991511881351,1.9666385108977555,2.436668929007649
1780625522299170300,11.71517041015625,0.8299304824620485,2.272946101272106,2.171885189154744
1780625522309199400,11.725199462890625,0.9859242503155022,1.824708997297287,2.0654244638204573
1780625522319229400,11.7352294921875,0.45168519860208034,0.18271978915035725,1.7779817329138516
1780625522329258200,11.74525830078125,-0.0628548078417778,-0.8944938477873802,0.4991039523810148
1780625522339288300,11.755288330078125,-0.7137532497555017,-0.9766343708574772,-0.3238730576813221
1780625522349317400,11.7653173828125,-0.9413194579787552,-1.9537369437485932,-0.09371873266100883
1780625522359347500,11.775347412109374,-0.6622182928293943,-2.2546184174209833,-0.3663789049774408
1780625522369376300,11.785376220703125,-0.6325076296985149,-0.4124906678110361,-0.3980027082532644
1780625522379406300,11.79540625,-0.6845791777193546,-0.19046645775437354,0.7969558490991592
1780625522389435400,11.805435302734375,-1.0044319669086486,-1.7148288189083336,1.6854145083755254
1780625522399465200,11.81546533203125,-1.0550012206077575,-1.747562629252672,1.6233920597046614
1780625522409494300,11.825494384765625,-0.8142898457378148,-1.4781588283836842,1.584632413199544
1780625522419524000,11.835524169921875,-0.0726408733189106,-1.4709014046013353,1.7103244932264088
1780625522429553200,11.84555322265625,-0.09684884738028049,-2.3806115262210366,1.126720887428522
1780625522439583200,11.855583251953124,-0.7094938387453555,-3.5148382592350242,0.28795068042874333
1780625522449612000,11.865612060546875,-0.8860644576162099,-4.290975192189216,-0.22646014667749403
1780625522459642000,11.87564208984375,0.5966138940185308,-3.4064497807085514,-1.0795242519676684
1780625522469672200,11.885672119140626,1.8440777146339415,-2.486642627966404,-1.2269564546376466
1780625522479701200,11.895701171875,1.7810311836123465,-3.672608900567889,0.9767956988990306
1780625522489731300,11.9057314453125,1.3171113573372364,-4.452885417544842,4.397051886641979
1780625522499760000,11.915760009765625,0.28072829142715783,-4.307877811673284,6.088153208482265
1780625522509790200,11.925790283203124,-0.8188204749047756,-3.948331383064389,4.73523170209527
1780625522519819300,11.9358193359375,0.1540566623110324,-0.1431850666195154,1.9363731364935635
1780625522529849300,11.945849365234375,0.6062288407124579,4.685098720921576,0.499295675560832
1780625522539878100,11.955878173828125,-1.719944992878288,3.5024911110982297,-0.2803139019399881
1780625522549908200,11.965908203125,-3.0255998673081397,0.08717237975746393,0.6648983256936073
1780625522559937300,11.975937255859375,-2.1220133431352672,-1.4453697807207704,1.357256320720911
1780625522569967400,11.98596728515625,-1.18062798031345,-1.539109263908863,0.01907119569480419
1780625522579996400,11.995996337890626,-0.4448668968893587,0.31039895134121176,-1.3881190764963627
1780625522590026200,12.006026123046874,-0.11583119574785232,1.538202962718904,-1.4547323600888251
1780625522600055300,12.01605517578125,-0.12151274851560592,-0.10629735146611928,-0.7773702741414308
1780625522610085400,12.02608544921875,0.10133709871023892,-0.664509034115076,-0.909455270075798
1780625522620114400,12.036114501953126,-0.876096751961857,0.6456935667470097,-1.1702268516778944
1780625522630144300,12.046144287109374,-2.1403601700782775,1.641437273352593,-1.7387679129004479
1780625522640173300,12.05617333984375,-2.7792148307159543,2.4480676903784273,-2.850527962562442
1780625522650203100,12.066203125,-2.498521574069559,3.5133792925983665,-3.811820387381315
1780625522660233200,12.076233154296874,-1.8816110342144965,4.2265468514204025,-4.284351974657178
1780625522670262300,12.08626220703125,-0.613495470714569,4.431210176831484,-4.0836686587929725
1780625522680292000,12.0962919921875,0.26729835302233695,3.149832103915512,-3.0793793882906435
1780625522690321200,12.106321044921875,-0.07183072597980499,0.9145064890507608,-1.868597823384404
1780625522700351200,12.116351318359374,-0.26997224840670825,-0.10635258878469467,-1.8186036661595104
1780625522710380300,12.12638037109375,-0.8054761324241757,0.5120207901645452,-2.0774159303873776
1780625522720410400,12.136410400390625,-1.0198770079955457,1.5018231970876454,-2.6480069098770618
1780625522730439200,12.146439208984376,-0.6621969577804208,2.936397735288739,-3.4329672007560728
1780625522740469200,12.15646923828125,-0.047097266739606854,4.480072407416999,-4.130877569213509
1780625522750498300,12.166498291015625,0.09473989240229129,5.4707595612853765,-4.360950645691156
1780625522760528400,12.1765283203125,-0.2282873621046543,4.988491008371114,-4.010581210750341
1780625522770557200,12.18655712890625,-0.7755939121186732,3.3410449961230158,-2.7675673552811144
1780625522780587300,12.196587158203124,-0.8488397655934095,1.5829412452422083,-0.9312509222984313
1780625522790616300,12.2066162109375,-0.4349862849965691,0.37454252035189417,0.3405027054429054
1780625522800646400,12.216646484375,-0.3036588294312358,0.00085932024307549,0.8384113105595111
1780625522810675200,12.22667529296875,-0.1476648423820734,-0.24489487109966573,0.5067956759274006
1780625522820705300,12.236705322265625,-0.10743103167116641,-0.35040465238466856,-0.21206454157829283
1780625522830734300,12.246734375,-0.17746610640585422,-0.23035751944221555,-0.8980641074895859
1780625522840764200,12.25676416015625,-0.3510428041577339,-0.04079378268122673,-1.2226444366574287
1780625522850793500,12.26679345703125,-0.42546646924018855,-0.09703333710171282,-1.0148486584395169
1780625522860823000,12.276822998046875,-0.3658437751874327,-0.2892991724282503,-0.31186931615471836
1780625522870853000,12.28685302734375,-0.4748270047366619,-0.5204401703983546,0.4354477650284767
1780625522880882200,12.296882080078126,-0.6079468966767192,-0.72738261972256,0.8886609038501977
1780625522890912300,12.306912353515624,-0.760131846831739,-0.8001740804933011,1.1646949365139008
1780625522900941000,12.316941162109375,-0.8459951898172497,-0.9134619484338908,1.2110668115884065
1780625522910971100,12.32697119140625,-0.8900432981193065,-1.0601768696799874,1.0387257931113243
1780625522921000200,12.337000244140626,-0.9611454175636172,-1.3665512416802346,0.6184697519958019
1780625522931030300,12.3470302734375,-1.0355807730838655,-1.2718453976780175,-0.11018062264025211
1780625522941059300,12.357059326171875,-0.760821874922514,-0.13052224012967198,-0.6482751076728105
1780625522951089200,12.367089111328125,-0.3107306675136089,1.1158664620675145,-0.9331137935608624
1780625522961118200,12.3771181640625,0.0974842226743698,1.710459371652454,-1.0811696810871363
1780625522971148300,12.387148193359375,0.4284507457479834,1.8505144696831701,-1.2742413529038428
1780625522981177300,12.39717724609375,0.5261062333360315,1.6359588419415056,-1.7107821738660334
1780625522991207400,12.40720751953125,0.29545974088460203,1.0149076220851392,-2.2838421738177535
1780625523001236200,12.417236328125,0.24086393508315085,0.4599480000346899,-2.8057196835428475
1780625523011266300,12.427266357421875,0.5775505893692374,0.40951000803243365,-3.327861981683969
1780625523021295400,12.43729541015625,0.6849260914608836,0.5856080044228583,-3.7077743219733237
1780625523031325400,12.447325439453126,0.6213838858768344,0.8786533776421099,-3.7838755648791786
1780625523041354200,12.457354248046874,0.7632789126858115,1.3315950791113078,-3.5111914271652696
1780625523051384300,12.46738427734375,0.8027505068525671,2.034206610997021,-2.9777251864552494
1780625523061414100,12.4774140625,0.913727832828462,2.363553423914313,-2.2023908020555973
1780625523071443200,12.487443115234376,0.8848600502625107,2.004224437448382,-1.3967021959245205
1780625523081473300,12.497473388671875,0.5255398316249251,0.9229998113036155,-0.6881137815862893
1780625523091502000,12.507502197265625,0.38091830246150493,-0.4671721791345626,-0.14101649040877817
1780625523101532200,12.5175322265625,0.7292202834784984,-1.6490484790086746,-0.21928806309103965
1780625523111561000,12.52756103515625,1.0649418921247125,-2.21163077795729,-1.0049614706754684
1780625523121591000,12.537591064453125,1.3281830787107347,-2.0763680287696418,-2.1223224090844393
1780625523131620000,12.5476201171875,1.4998162411794065,-1.5118924634203315,-3.0931653370589016
1780625523141650200,12.557650146484375,1.7211910474166272,-0.7809870763991028,-3.8147044183850287
1780625523151679200,12.56767919921875,1.9519743179902433,0.14456649277424438,-4.14812739470005
1780625523161709000,12.577708984375,2.2695801319703457,1.0516486222442238,-4.131231204956769
1780625523171738000,12.587738037109375,2.3698118997871873,1.8461866696119307,-3.8703842200309038
1780625523181768200,12.597768310546876,2.2465131446376443,2.4796421015545724,-3.465268464902043
1780625523191797200,12.60779736328125,1.8820155233621596,2.9274224016726014,-2.687708221146464
1780625523201827000,12.6178271484375,1.4014777397632598,2.738804494394362,-1.6239058544456957
1780625523211856100,12.627856201171875,0.9669257545307278,1.1803809467498212,-0.25746377222836014
1780625523221886200,12.63788623046875,0.1269125617325306,-1.2609898032732307,1.5120155052781103
