time,seconds_elapsed,z,y,x
1780625510637359000,0.053359130859375,-0.949951171875,-0.420806884765625,-0.0554351806640625
1780625510647388200,0.06338818359375,-0.920684814453125,-0.427734375,-0.0424652099609375
1780625510657418200,0.073418212890625,-0.9163360595703125,-0.38934326171875,-0.0313262939453125
1780625510667447300,0.083447265625,-0.920867919921875,-0.3364105224609375,0.0106964111328125
1780625510677477400,0.093477294921875,-0.9422607421875,-0.2747039794921875,0.034149169921875
1780625510687506200,0.103506103515625,-0.9683990478515625,-0.2413330078125,0.033905029296875
1780625510697536300,0.113536376953125,-1.022979736328125,-0.1833038330078125,-0.0005035400390625
1780625510707565300,0.1235654296875,-1.1472015380859375,-0.0989532470703125,-0.06207275390625
1780625510717594000,0.133593994140625,-1.1287994384765625,-0.11279296875,-0.067138671875
1780625510727624200,0.143624267578125,-0.90472412109375,-0.2650146484375,-0.0324554443359375
1780625510737653200,0.1536533203125,-0.7090911865234375,-0.3868255615234375,0.019683837890625
1780625510747683300,0.163683349609375,-0.6510467529296875,-0.457489013671875,0.0407257080078125
1780625510757712400,0.17371240234375,-0.6724700927734375,-0.4642486572265625,0.048614501953125
1780625510767742200,0.1837421875,-0.7468414306640625,-0.4047393798828125,0.049224853515625
1780625510777771300,0.193771240234375,-0.8387603759765625,-0.3110504150390625,0.0280609130859375
1780625510787801300,0.20380126953125,-0.9846649169921875,-0.222381591796875,0.01861572265625
1780625510797830400,0.213830322265625,-1.133758544921875,-0.178070068359375,0.006683349609375
1780625510807860200,0.223860107421875,-1.202301025390625,-0.1831207275390625,-0.0180816650390625
1780625510817889300,0.23388916015625,-1.2112274169921875,-0.2374267578125,-0.0208587646484375
1780625510827919400,0.24391943359375,-1.1598358154296875,-0.314422607421875,0.012237548828125
1780625510837948400,0.253948486328125,-1.0556488037109375,-0.35504150390625,0.0282440185546875
1780625510847977200,0.263977294921875,-0.9162445068359375,-0.350341796875,0.0317840576171875
1780625510858007300,0.27400732421875,-0.834320068359375,-0.35546875,0.04168701171875
1780625510868036400,0.284036376953125,-0.818023681640625,-0.3810882568359375,0.0611419677734375
1780625510878066200,0.294066162109375,-0.84478759765625,-0.384490966796875,0.071502685546875
1780625510888095200,0.30409521484375,-0.9178619384765625,-0.3839874267578125,0.078277587890625
1780625510898125000,0.314125,-1.0464630126953125,-0.3575286865234375,0.0547027587890625
1780625510908154400,0.324154296875,-1.1420745849609375,-0.311676025390625,0.00592041015625
1780625510918184200,0.33418408203125,-1.130462646484375,-0.3178558349609375,0.0060577392578125
1780625510928213200,0.344213134765625,-1.0213165283203125,-0.3610687255859375,0.0427093505859375
1780625510938243000,0.3542431640625,-0.8718719482421875,-0.4135894775390625,0.087982177734375
1780625510948272000,0.364272216796875,-0.7391815185546875,-0.4495391845703125,0.1320953369140625
1780625510958302200,0.37430224609375,-0.6945037841796875,-0.459442138671875,0.1520843505859375
1780625510968331300,0.384331298828125,-0.749359130859375,-0.472625732421875,0.1559600830078125
1780625510978360000,0.394360107421875,-0.8583984375,-0.4860992431640625,0.14044189453125
1780625510988390100,0.40439013671875,-0.937774658203125,-0.4251861572265625,0.1035614013671875
1780625510998419200,0.414419189453125,-0.9881134033203125,-0.3635711669921875,0.103546142578125
1780625511008449300,0.42444921875,-1.0026397705078125,-0.344451904296875,0.1408538818359375
1780625511018478000,0.43447802734375,-0.971282958984375,-0.32293701171875,0.1147613525390625
1780625511028508200,0.444508056640625,-0.8816375732421875,-0.3475494384765625,0.0859527587890625
1780625511038537200,0.454537109375,-0.8044586181640625,-0.4083709716796875,0.0857086181640625
1780625511048567300,0.4645673828125,-0.7586517333984375,-0.4618072509765625,0.0919647216796875
1780625511058596000,0.47459619140625,-0.7313232421875,-0.483795166015625,0.130584716796875
1780625511068626200,0.484626220703125,-0.755126953125,-0.4812164306640625,0.1452789306640625
1780625511078655200,0.4946552734375,-0.8267974853515625,-0.4375,0.1209869384765625
1780625511088685600,0.504685546875,-0.8899993896484375,-0.34259033203125,0.102813720703125
1780625511098714400,0.51471435546875,-0.9464874267578125,-0.2562713623046875,0.091217041015625
1780625511108744400,0.524744384765625,-1.001068115234375,-0.236083984375,0.0547027587890625
1780625511118773500,0.5347734375,-1.0170745849609375,-0.3003692626953125,0.020294189453125
1780625511128802300,0.54480224609375,-1.0058746337890625,-0.369354248046875,-0.00836181640625
1780625511138832400,0.554832275390625,-0.98370361328125,-0.408935546875,-0.017730712890625
1780625511148861400,0.564861328125,-0.92803955078125,-0.416412353515625,0.0091705322265625
1780625511158891500,0.5748916015625,-0.86651611328125,-0.38006591796875,0.0343170166015625
1780625511168920600,0.584920654296875,-0.787689208984375,-0.3332672119140625,0.05157470703125
1780625511178950400,0.594950439453125,-0.724700927734375,-0.302337646484375,0.075469970703125
1780625511188979500,0.6049794921875,-0.71148681640625,-0.2836456298828125,0.078948974609375
1780625511199009500,0.615009521484375,-0.752197265625,-0.2659759521484375,0.045013427734375
1780625511209038600,0.62503857421875,-0.799652099609375,-0.2030487060546875,-0.0294647216796875
1780625511219068400,0.635068359375,-0.8984375,-0.207550048828125,-0.089263916015625
1780625511229097500,0.645097412109375,-0.96954345703125,-0.2530670166015625,-0.1333160400390625
1780625511239127300,0.655127197265625,-0.940673828125,-0.2269134521484375,-0.1504058837890625
1780625511249156400,0.66515625,-0.999176025390625,-0.2654571533203125,-0.160308837890625
1780625511259186400,0.6751865234375,-0.95623779296875,-0.262451171875,-0.155792236328125
1780625511269215200,0.68521533203125,-0.8742218017578125,-0.17547607421875,-0.138458251953125
1780625511279244500,0.69524462890625,-0.8381195068359375,-0.0325164794921875,-0.122283935546875
1780625511289274400,0.7052744140625,-0.920013427734375,0.050811767578125,-0.198394775390625
1780625511299303400,0.715303466796875,-0.931854248046875,0.0463104248046875,-0.25982666015625
1780625511309333200,0.725333251953125,-0.8714752197265625,0.01092529296875,-0.26483154296875
1780625511319362300,0.7353623046875,-0.78912353515625,-0.0296478271484375,-0.273193359375
1780625511329392400,0.745392333984375,-0.7144775390625,-0.0071868896484375,-0.2673187255859375
1780625511339421400,0.75542138671875,-0.64349365234375,0.093841552734375,-0.2544097900390625
1780625511349451300,0.765451171875,-0.6016845703125,0.1880950927734375,-0.24127197265625
1780625511359480300,0.775480224609375,-0.631256103515625,0.23126220703125,-0.3092498779296875
1780625511369510400,0.785510498046875,-0.7747039794921875,0.177978515625,-0.3982696533203125
1780625511379539500,0.79553955078125,-0.8771820068359375,0.1701812744140625,-0.4339141845703125
1780625511389569500,0.805569580078125,-0.9095916748046875,0.22528076171875,-0.4524078369140625
1780625511399598300,0.815598388671875,-0.902740478515625,0.285400390625,-0.4223785400390625
1780625511409628400,0.82562841796875,-0.7776031494140625,0.4129486083984375,-0.32666015625
1780625511419657500,0.835657470703125,-0.5571441650390625,0.5859222412109375,-0.197265625
1780625511429687600,0.8456875,-0.3253936767578125,0.7648468017578125,-0.1497344970703125
1780625511439716400,0.85571630859375,-0.1583099365234375,0.863922119140625,-0.1749725341796875
1780625511449745400,0.865745361328125,-0.0863800048828125,0.912078857421875,-0.2389068603515625
1780625511459775500,0.875775390625,-0.0931854248046875,0.95880126953125,-0.346588134765625
1780625511469804500,0.885804443359375,-0.209014892578125,0.998809814453125,-0.552520751953125
1780625511479834400,0.89583447265625,-0.5045623779296875,1.02001953125,-0.763946533203125
1780625511489863400,0.905863525390625,-0.82952880859375,1.1066741943359375,-0.8949127197265625
1780625511499893500,0.9158935546875,-1.02960205078125,1.2053070068359375,-0.9423370361328125
1780625511509922600,0.925922607421875,-1.0697021484375,1.2728729248046875,-0.9523773193359375
1780625511519952400,0.935952392578125,-1.0580596923828125,1.388336181640625,-1.0478363037109375
1780625511529981400,0.9459814453125,-1.06964111328125,1.4505462646484375,-1.186981201171875
1780625511540011500,0.956011474609375,-1.0554962158203125,1.36627197265625,-1.3610076904296875
1780625511550040600,0.96604052734375,-1.05303955078125,1.248077392578125,-1.6237945556640625
1780625511560070400,0.9760703125,-1.1305694580078125,1.0604400634765625,-1.95672607421875
1780625511570099500,0.986099365234375,-1.3472900390625,0.7811431884765625,-2.3829498291015625
1780625511580129300,0.99612939453125,-1.607513427734375,0.4593048095703125,-2.822174072265625
1780625511590158300,1.006158447265625,-1.6631927490234375,0.17230224609375,-3.149810791015625
1780625511600188400,1.0161884765625,-1.55120849609375,-0.015899658203125,-3.364776611328125
1780625511610217200,1.02621728515625,-1.3068695068359375,-0.2050933837890625,-3.555694580078125
1780625511620246500,1.03624658203125,-1.0007171630859375,-0.380706787109375,-3.56756591796875
1780625511630276400,1.0462763671875,-0.680755615234375,-0.434814453125,-3.4759521484375
1780625511640305400,1.056305419921875,-0.39898681640625,-0.471038818359375,-3.274871826171875
1780625511650335200,1.066335205078125,-0.1703643798828125,-0.4065093994140625,-3.0621185302734375
1780625511660364300,1.0763642578125,0.03240966796875,-0.3192596435546875,-2.8166046142578125
1780625511670394400,1.086394287109375,0.2724609375,-0.2902374267578125,-2.55023193359375
1780625511680423400,1.09642333984375,0.506072998046875,-0.2824859619140625,-2.2526092529296875
1780625511690453500,1.10645361328125,0.6234588623046875,-0.2222137451171875,-1.975738525390625
1780625511700482300,1.116482421875,0.7136688232421875,-0.23382568359375,-1.782196044921875
1780625511710512400,1.126512451171875,0.7837066650390625,-0.32720947265625,-1.6904296875
1780625511720541400,1.13654150390625,0.8472442626953125,-0.2572021484375,-1.59783935546875
1780625511730571500,1.146571533203125,0.7806854248046875,-0.118316650390625,-1.510986328125
1780625511740600300,1.156600341796875,0.522308349609375,0.0209808349609375,-1.4378509521484375
1780625511750630400,1.16663037109375,0.35028076171875,0.24810791015625,-1.3180389404296875
1780625511760659500,1.176659423828125,0.313629150390625,0.419769287109375,-1.1095733642578125
1780625511770689500,1.186689453125,0.3193206787109375,0.6790771484375,-0.773590087890625
1780625511780718300,1.19671826171875,0.3798065185546875,0.8503265380859375,-0.4352874755859375
1780625511790748400,1.20674853515625,0.3050079345703125,0.988983154296875,-0.150909423828125
1780625511800777500,1.216777587890625,0.1542510986328125,1.1682586669921875,0.17120361328125
1780625511810806500,1.226806640625,0.1248626708984375,1.0892486572265625,0.3178558349609375
1780625511820836400,1.23683642578125,-0.0311126708984375,0.9690093994140625,0.2906494140625
1780625511830865400,1.246865478515625,-0.3162078857421875,0.8786773681640625,0.217742919921875
1780625511840895500,1.2568955078125,-0.790740966796875,0.9662322998046875,0.09539794921875
1780625511850924500,1.266924560546875,-1.14434814453125,1.035186767578125,-0.07666015625
1780625511860954600,1.27695458984375,-1.19268798828125,0.9793243408203125,-0.1556854248046875
1780625511870983400,1.2869833984375,-0.8465576171875,0.8668365478515625,-0.1089630126953125
1780625511881013500,1.297013427734375,-0.3973236083984375,0.757659912109375,-0.0933074951171875
1780625511891042600,1.30704248046875,-0.0041656494140625,0.55889892578125,-0.1707305908203125
1780625511901072400,1.317072265625,0.1890411376953125,0.410003662109375,-0.20416259765625
1780625511911101400,1.327101318359375,0.3042755126953125,0.2466888427734375,-0.2414703369140625
1780625511921131300,1.33713134765625,0.3800201416015625,0.099029541015625,-0.2570648193359375
1780625511931160600,1.34716064453125,0.1652984619140625,0.33587646484375,-0.5081024169921875
1780625511941190400,1.3571904296875,-0.406219482421875,0.3949432373046875,-0.99639892578125
1780625511951219200,1.36721923828125,-0.81256103515625,0.1702728271484375,-1.6322479248046875
1780625511961249300,1.377249267578125,-1.0399017333984375,-0.06622314453125,-2.093536376953125
1780625511971278300,1.3872783203125,-1.0117340087890625,-0.08343505859375,-2.1291961669921875
1780625511981308400,1.397308349609375,-0.772918701171875,0.2048492431640625,-1.72442626953125
1780625511991337200,1.407337158203125,-0.429534912109375,0.626678466796875,-1.0691986083984375
1780625512001367300,1.4173671875,-0.146942138671875,1.068878173828125,-0.459197998046875
1780625512011396400,1.427396240234375,-0.09222412109375,1.4826507568359375,0.030853271484375
1780625512021426400,1.437426513671875,0.08489990234375,1.5858612060546875,0.24932861328125
1780625512031455500,1.44745556640625,0.352935791015625,1.3770751953125,0.1040191650390625
1780625512041484300,1.457484375,0.6289215087890625,1.2802581787109375,0.02032470703125
1780625512051514400,1.467514404296875,0.9130096435546875,1.559600830078125,0.30694580078125
1780625512061543400,1.47754345703125,1.0609893798828125,2.015411376953125,0.833221435546875
1780625512071573500,1.487573486328125,0.5562896728515625,2.38702392578125,1.146087646484375
1780625512081602300,1.497602294921875,-0.2786407470703125,2.512847900390625,1.0053253173828125
1780625512091633000,1.5076328125,-0.752655029296875,2.54412841796875,0.819610595703125
1780625512101662000,1.517661865234375,-0.960357666015625,2.3076171875,0.2291412353515625
1780625512111692000,1.527692138671875,-1.228271484375,2.0717010498046875,-0.4889984130859375
1780625512121720800,1.537720947265625,-1.268280029296875,1.6610870361328125,-1.38641357421875
1780625512131751000,1.5477509765625,-1.16082763671875,1.3043670654296875,-2.39056396484375
1780625512141780000,1.557780029296875,-0.9702606201171875,0.714447021484375,-3.3107452392578125
1780625512151810000,1.56781005859375,-0.74163818359375,-0.1145172119140625,-4.122039794921875
1780625512161838800,1.5778388671875,-0.3361358642578125,-0.628448486328125,-4.2535858154296875
1780625512171869000,1.587868896484375,0.054168701171875,-0.8385772705078125,-3.9334564208984375
1780625512181898000,1.59789794921875,0.0572052001953125,-0.7640533447265625,-3.403228759765625
1780625512191927800,1.607927734375,-0.1150054931640625,-0.6585845947265625,-2.884429931640625
1780625512201956900,1.617956787109375,-0.0558624267578125,-0.6380767822265625,-2.4954986572265625
1780625512211986700,1.627986572265625,0.1114959716796875,-0.708740234375,-2.1985626220703125
1780625512222015700,1.638015625,0.165435791015625,-0.6505279541015625,-1.8075408935546875
1780625512232045800,1.6480458984375,0.287200927734375,-0.385223388671875,-1.3215179443359375
1780625512242075000,1.658074951171875,0.497314453125,-0.093963623046875,-0.8001708984375
1780625512252104700,1.668104736328125,0.4769439697265625,0.1590118408203125,-0.35498046875
1780625512262133800,1.6781337890625,0.3062896728515625,0.431640625,-0.1353912353515625
1780625512272163800,1.688163818359375,0.273468017578125,1.2966766357421875,0.6676483154296875
1780625512282193000,1.69819287109375,0.6273956298828125,2.1783294677734375,1.7686920166015625
1780625512292223000,1.708222900390625,0.840362548828125,2.066009521484375,1.59710693359375
1780625512302251800,1.718251708984375,0.4498748779296875,1.67987060546875,0.7989349365234375
1780625512312281900,1.72828173828125,-0.27142333984375,1.591064453125,0.363067626953125
1780625512322311000,1.738310791015625,-0.8105010986328125,1.393951416015625,-0.0382080078125
1780625512332339700,1.748339599609375,-0.8618927001953125,1.0695953369140625,-0.4266204833984375
1780625512342369800,1.758369873046875,-0.8163604736328125,0.78240966796875,-0.6563262939453125
1780625512352398800,1.76839892578125,-0.703521728515625,0.53057861328125,-0.847320556640625
1780625512362429000,1.778428955078125,-0.6171417236328125,0.3767242431640625,-0.896881103515625
1780625512372458000,1.7884580078125,-0.5823516845703125,0.3701171875,-0.8104248046875
1780625512382487800,1.79848779296875,-0.5816192626953125,0.523956298828125,-0.7990570068359375
1780625512392516900,1.808516845703125,-0.692657470703125,0.6228485107421875,-0.912200927734375
1780625512402547000,1.818546875,-0.55340576171875,0.6685028076171875,-0.869293212890625
1780625512412576000,1.828575927734375,-0.3610382080078125,0.6939544677734375,-0.87060546875
1780625512422606000,1.838606201171875,-0.310638427734375,0.5808868408203125,-0.919921875
1780625512432635000,1.848634765625,-0.242767333984375,0.382720947265625,-0.8893585205078125
1780625512442665000,1.8586650390625,-0.1966094970703125,0.2541046142578125,-0.8629913330078125
1780625512452694000,1.868694091796875,-0.31787109375,0.3518524169921875,-0.88482666015625
1780625512462724000,1.87872412109375,-0.2938232421875,0.4102325439453125,-0.8700103759765625
1780625512472753000,1.8887529296875,-0.089324951171875,0.1060638427734375,-1.003082275390625
1780625512482782700,1.89878271484375,-0.1927490234375,-0.0843963623046875,-1.42376708984375
1780625512492812000,1.90881201171875,-0.4401092529296875,0.1567840576171875,-1.096405029296875
1780625512502841900,1.918841796875,-0.4308013916015625,0.4773406982421875,-0.9954833984375
1780625512512871000,1.928870849609375,-0.4736328125,0.4355926513671875,-0.8005523681640625
1780625512522900700,1.938900634765625,-0.1982421875,0.1857147216796875,-1.1002044677734375
1780625512532929800,1.9489296875,0.0195770263671875,-0.0051727294921875,-1.402313232421875
1780625512542959900,1.9589599609375,0.079742431640625,-0.06060791015625,-1.423095703125
1780625512552988700,1.96898876953125,0.1449127197265625,0.119903564453125,-1.2423553466796875
1780625512563018800,1.979018798828125,0.0224609375,0.888824462890625,-0.507080078125
1780625512573047800,1.9890478515625,0.1852569580078125,0.69476318359375,-0.3849029541015625
1780625512583078000,1.999077880859375,0.076873779296875,0.8556365966796875,-0.5409698486328125
1780625512593107000,2.00910693359375,-0.12451171875,0.719146728515625,-0.5079498291015625
1780625512603136800,2.01913671875,-0.2105255126953125,0.87432861328125,-0.210540771484375
1780625512613165800,2.029165771484375,-0.0919036865234375,1.1892547607421875,0.16058349609375
1780625512623196000,2.03919580078125,0.03466796875,1.35247802734375,0.2096405029296875
1780625512633225000,2.049224853515625,-0.0224609375,1.3370361328125,0.1481170654296875
1780625512643254800,2.0592548828125,-0.259735107421875,1.352508544921875,-0.016693115234375
1780625512653283800,2.069283935546875,-0.4539794921875,1.382843017578125,-0.169403076171875
1780625512663314000,2.07931396484375,-0.5165557861328125,1.3626708984375,-0.290618896484375
1780625512673343000,2.089343017578125,-0.348968505859375,1.272247314453125,-0.418731689453125
1780625512683373000,2.099373046875,-0.20794677734375,1.0539703369140625,-0.6209564208984375
1780625512693401900,2.10940185546875,-0.300048828125,0.7806549072265625,-0.88677978515625
1780625512703432000,2.119431884765625,-0.4266357421875,0.53179931640625,-1.050506591796875
1780625512713461000,2.1294609375,-0.62890625,0.4134674072265625,-1.2479705810546875
1780625512723491000,2.139490966796875,-0.5264129638671875,0.46307373046875,-1.4837493896484375
1780625512733520000,2.149519775390625,-0.2529449462890625,0.4121246337890625,-1.5475921630859375
1780625512743549700,2.1595498046875,0.122100830078125,0.42108154296875,-1.5032958984375
1780625512753579000,2.1695791015625,0.6064605712890625,0.58740234375,-1.1372833251953125
1780625512763608000,2.179608154296875,0.8907623291015625,0.76629638671875,-0.94256591796875
1780625512773638000,2.189637939453125,0.6418914794921875,0.3963165283203125,-0.7771148681640625
1780625512783667000,2.1996669921875,0.1903533935546875,0.5748443603515625,-0.5998992919921875
1780625512793696800,2.20969677734375,-0.0606689453125,0.4770355224609375,-0.3089752197265625
1780625512803726000,2.21972607421875,0.0970916748046875,0.4390716552734375,-0.174468994140625
1780625512813756000,2.229755859375,-0.0272369384765625,0.7121429443359375,-0.258087158203125
1780625512823784700,2.23978466796875,-0.4034881591796875,0.5384368896484375,-0.29547119140625
1780625512833814800,2.249814697265625,-0.452117919921875,0.627471923828125,-0.331787109375
1780625512843843800,2.25984375,-0.31317138671875,0.6063690185546875,-0.29827880859375
1780625512853874000,2.2698740234375,-0.1558837890625,0.5222015380859375,-0.21844482421875
1780625512863902700,2.27990283203125,-0.0615081787109375,0.365020751953125,-0.1263885498046875
1780625512873932800,2.289932861328125,-0.103057861328125,0.31256103515625,-0.0969390869140625
1780625512883961900,2.2999619140625,-0.1338958740234375,0.35565185546875,-0.1116180419921875
1780625512893992000,2.309991943359375,-0.1315460205078125,0.413360595703125,-0.12127685546875
1780625512904020700,2.320020751953125,-0.0726165771484375,0.4762420654296875,-0.1301116943359375
1780625512914050800,2.33005078125,-0.0594329833984375,0.64801025390625,-0.24993896484375
1780625512924079900,2.340079833984375,0.07843017578125,1.1049652099609375,-0.53924560546875
1780625512934110000,2.35010986328125,0.2010040283203125,0.8599700927734375,-0.56951904296875
1780625512944138800,2.360138671875,-0.156646728515625,0.8368682861328125,-0.698760986328125
1780625512954168800,2.3701689453125,-0.43896484375,0.8008880615234375,-0.552825927734375
1780625512964198000,2.380197998046875,-0.210235595703125,1.417877197265625,-0.59906005859375
1780625512974228000,2.39022802734375,-0.4165496826171875,2.1476593017578125,-0.86590576171875
1780625512984257000,2.400257080078125,-0.83148193359375,2.0415496826171875,-0.9613494873046875
1780625512994286800,2.410286865234375,-1.15948486328125,2.0886993408203125,-0.9236297607421875
1780625513004316000,2.42031591796875,-0.6647186279296875,2.0071258544921875,-0.8570404052734375
1780625513014346000,2.430345947265625,-0.103851318359375,1.977508544921875,-0.795440673828125
1780625513024375000,2.440375,-0.04412841796875,1.6621856689453125,-0.7876739501953125
1780625513034404900,2.45040478515625,-0.0632781982421875,1.1456298828125,-0.6800994873046875
1780625513044434000,2.460433837890625,-0.103607177734375,0.7741851806640625,-0.514373779296875
1780625513054463700,2.470463623046875,-0.1883697509765625,0.5181121826171875,-0.3111419677734375
1780625513064493000,2.4804931640625,-0.14495849609375,0.4280242919921875,-0.173553466796875
1780625513074523000,2.49052294921875,-0.099578857421875,0.4814453125,-0.12701416015625
1780625513084552000,2.500552001953125,-0.0591278076171875,0.52813720703125,-0.1160125732421875
1780625513094581200,2.510581298828125,-0.036163330078125,0.621490478515625,-0.1115875244140625
1780625513104610300,2.5206103515625,-0.0198974609375,0.7396697998046875,-0.114959716796875
1780625513114640100,2.53064013671875,0.064453125,0.7881011962890625,-0.0910186767578125
1780625513124669400,2.54066943359375,0.0540771484375,0.821807861328125,-0.057220458984375
1780625513134699300,2.55069921875,0.0204925537109375,0.9158172607421875,-0.0380859375
1780625513144728000,2.56072802734375,0.1307220458984375,1.1703338623046875,0.00885009765625
1780625513154758100,2.570758056640625,0.1177978515625,1.4390716552734375,0.0273590087890625
1780625513164787200,2.580787109375,0.0503692626953125,1.4599456787109375,-0.046417236328125
1780625513174817300,2.5908173828125,0.1665191650390625,1.1861114501953125,-0.181610107421875
1780625513184846000,2.60084619140625,0.1777801513671875,0.948333740234375,-0.2847747802734375
1780625513194876200,2.610876220703125,0.066802978515625,0.9862213134765625,-0.2922515869140625
1780625513204905200,2.6209052734375,0.05926513671875,1.0866546630859375,-0.2702789306640625
1780625513214935300,2.630935302734375,0.093170166015625,1.100372314453125,-0.22119140625
1780625513224964000,2.640964111328125,0.121673583984375,0.987945556640625,-0.1309051513671875
1780625513234994200,2.650994140625,0.162261962890625,0.8904876708984375,-0.076934814453125
1780625513245023200,2.661023193359375,0.1776580810546875,0.8871002197265625,-0.02392578125
1780625513255053300,2.67105322265625,0.1419830322265625,0.6832733154296875,-0.0230560302734375
1780625513265082400,2.681082275390625,0.116851806640625,0.6961517333984375,-0.014404296875
1780625513275112200,2.6911123046875,0.0672149658203125,0.852264404296875,-0.044647216796875
1780625513285141200,2.701141357421875,0.01458740234375,1.0460662841796875,-0.1136932373046875
1780625513295171300,2.71117138671875,-0.0372772216796875,1.18365478515625,-0.1954803466796875
1780625513305200400,2.721200439453125,-0.0698699951171875,1.1949005126953125,-0.26202392578125
1780625513315230200,2.731230224609375,-0.066131591796875,1.13677978515625,-0.2921905517578125
1780625513325259300,2.74125927734375,-0.0506439208984375,1.09814453125,-0.2991180419921875
1780625513335289300,2.751289306640625,-0.054412841796875,1.0832977294921875,-0.29852294921875
1780625513345318400,2.761318359375,-0.116668701171875,1.05047607421875,-0.274261474609375
1780625513355348200,2.77134814453125,-0.1959228515625,1.00872802734375,-0.2351837158203125
1780625513365377300,2.781377197265625,-0.2452392578125,0.9138336181640625,-0.185211181640625
1780625513375407000,2.791406982421875,-0.2664337158203125,0.834228515625,-0.1263427734375
1780625513385436400,2.8014365234375,-0.2625274658203125,0.8566131591796875,-0.0747528076171875
1780625513395466200,2.81146630859375,-0.2623748779296875,0.93475341796875,-0.024566650390625
1780625513405495000,2.8214951171875,-0.212493896484375,1.0083160400390625,0.0234222412109375
1780625513415525000,2.831525146484375,0.027496337890625,0.9916229248046875,0.024688720703125
1780625513425554200,2.84155419921875,0.234588623046875,0.9577178955078125,-0.02105712890625
1780625513435584300,2.851584228515625,0.2215423583984375,0.990509033203125,-0.097686767578125
1780625513445613000,2.861613037109375,0.0314483642578125,1.072021484375,-0.1932830810546875
1780625513455643100,2.87164306640625,-0.1078948974609375,1.107635498046875,-0.2847137451171875
1780625513465672200,2.881672119140625,-0.1304473876953125,1.1202392578125,-0.341827392578125
1780625513475702300,2.891702392578125,-0.0920867919921875,1.1113739013671875,-0.3653564453125
1780625513485731300,2.9017314453125,-0.06500244140625,1.0652008056640625,-0.362091064453125
1780625513495761200,2.91176123046875,-0.0880126953125,0.982635498046875,-0.3213043212890625
1780625513505790200,2.921790283203125,-0.127899169921875,0.911712646484375,-0.2520751953125
1780625513515820300,2.9318203125,-0.1441497802734375,0.9178619384765625,-0.1800994873046875
1780625513525849300,2.941849365234375,-0.15765380859375,0.9962921142578125,-0.1314239501953125
1780625513535879200,2.951879150390625,-0.154388427734375,1.08087158203125,-0.0993499755859375
1780625513545908200,2.961908203125,-0.146270751953125,1.1171417236328125,-0.089996337890625
1780625513555938300,2.971938232421875,-0.1259002685546875,1.0961151123046875,-0.08734130859375
1780625513565967400,2.98196728515625,-0.11016845703125,1.042022705078125,-0.0846405029296875
1780625513575997400,2.99199755859375,-0.08807373046875,0.98602294921875,-0.0921478271484375
1780625513586026200,3.002026123046875,-0.064544677734375,0.942596435546875,-0.108001708984375
1780625513596056300,3.012056396484375,-0.05877685546875,0.9205780029296875,-0.1259002685546875
1780625513606085400,3.02208544921875,-0.0658721923828125,0.9096832275390625,-0.14398193359375
1780625513616115500,3.032115478515625,-0.078704833984375,0.90679931640625,-0.150634765625
1780625513626144300,3.042144287109375,-0.0921478271484375,0.92193603515625,-0.1533966064453125
1780625513636174000,3.052174072265625,-0.1350860595703125,0.963409423828125,-0.163909912109375
1780625513646203400,3.062203369140625,-0.1671295166015625,0.9911956787109375,-0.1760711669921875
1780625513656233200,3.072233154296875,-0.15240478515625,0.9386444091796875,-0.18621826171875
1780625513666262300,3.08226220703125,-0.1480712890625,0.854156494140625,-0.19439697265625
1780625513676292000,3.0922919921875,-0.141021728515625,0.841705322265625,-0.21429443359375
1780625513686321200,3.102321044921875,-0.1642913818359375,0.868682861328125,-0.234466552734375
1780625513696351200,3.112351318359375,-0.2126007080078125,0.915557861328125,-0.245147705078125
1780625513706380000,3.122380126953125,-0.24560546875,0.96148681640625,-0.2515716552734375
1780625513716410000,3.13241015625,-0.2481689453125,0.980621337890625,-0.24517822265625
1780625513726439200,3.142439208984375,-0.222381591796875,0.9662933349609375,-0.2339019775390625
1780625513736469200,3.15246923828125,-0.1537017822265625,0.8967742919921875,-0.226959228515625
1780625513746498300,3.162498291015625,-0.0913543701171875,0.818817138671875,-0.2382049560546875
1780625513756528000,3.172528076171875,-0.1387939453125,0.8841094970703125,-0.2523651123046875
1780625513766557200,3.18255712890625,-0.155059814453125,0.940032958984375,-0.269195556640625
1780625513776587300,3.192587158203125,-0.0552978515625,0.8307342529296875,-0.2913360595703125
1780625513786616300,3.2026162109375,-0.0270538330078125,0.86712646484375,-0.305450439453125
1780625513796646400,3.212646484375,-0.0005645751953125,0.8356475830078125,-0.310394287109375
1780625513806675200,3.22267529296875,-0.07061767578125,0.943023681640625,-0.3248748779296875
1780625513816705300,3.232705322265625,-0.24029541015625,1.077606201171875,-0.391815185546875
1780625513826734300,3.242734375,-0.2183685302734375,1.1461334228515625,-0.3926239013671875
1780625513836764400,3.252764404296875,-0.15679931640625,1.10418701171875,-0.3504638671875
1780625513846793200,3.262793212890625,-0.1436614990234375,0.94024658203125,-0.270538330078125
1780625513856823300,3.2728232421875,-0.165313720703125,0.829315185546875,-0.2071075439453125
1780625513866852400,3.282852294921875,-0.2165985107421875,0.84710693359375,-0.1753082275390625
1780625513876882400,3.29288232421875,-0.2538909912109375,0.92486572265625,-0.1612701416015625
1780625513886911200,3.3029111328125,-0.2812652587890625,1.0023193359375,-0.150421142578125
1780625513896941300,3.31294140625,-0.2921905517578125,1.0662994384765625,-0.1421356201171875
1780625513906970400,3.322970458984375,-0.2583465576171875,1.1266937255859375,-0.142242431640625
1780625513917000200,3.333000244140625,-0.1457366943359375,1.1714630126953125,-0.147705078125
1780625513927029200,3.343029296875,-0.11639404296875,1.1480712890625,-0.1696014404296875
1780625513937059000,3.35305908203125,-0.1038360595703125,1.0173492431640625,-0.115966796875
1780625513947088100,3.363088134765625,-0.1102142333984375,0.9476318359375,-0.10150146484375
1780625513957118200,3.3731181640625,-0.146453857421875,0.9921417236328125,-0.09625244140625
1780625513967147300,3.383147216796875,-0.1940155029296875,0.9373321533203125,-0.1063995361328125
1780625513977177000,3.393177001953125,-0.1611785888671875,0.8696746826171875,-0.1220855712890625
1780625513987206100,3.4032060546875,-0.094818115234375,0.8592376708984375,-0.130279541015625
1780625513997236200,3.413236328125,-0.0889739990234375,0.9002532958984375,-0.14630126953125
1780625514007265300,3.423265380859375,-0.0900421142578125,0.9535675048828125,-0.1677398681640625
1780625514017295400,3.43329541015625,-0.0858306884765625,0.966705322265625,-0.1836700439453125
1780625514027324200,3.44332421875,-0.08233642578125,0.938262939453125,-0.195831298828125
1780625514037354200,3.453354248046875,-0.0921478271484375,0.9040985107421875,-0.210418701171875
1780625514047383300,3.46338330078125,-0.0701904296875,0.8094024658203125,-0.217132568359375
1780625514057413400,3.473413330078125,-0.057464599609375,0.8629608154296875,-0.2559051513671875
1780625514067442200,3.483442138671875,-0.0669403076171875,1.072052001953125,-0.321258544921875
1780625514077472300,3.49347216796875,-0.0497283935546875,1.21942138671875,-0.3616485595703125
1780625514087501600,3.50350146484375,-0.0251922607421875,1.2043914794921875,-0.353729248046875
1780625514097531600,3.51353173828125,-0.0236663818359375,1.07025146484375,-0.3072662353515625
1780625514107560400,3.523560546875,-0.10369873046875,0.9693756103515625,-0.2669830322265625
1780625514117590500,3.533590576171875,-0.233917236328125,0.957763671875,-0.249725341796875
1780625514127619600,3.54361962890625,-0.3479461669921875,0.965484619140625,-0.234710693359375
1780625514137649700,3.553649658203125,-0.40069580078125,0.938140869140625,-0.202484130859375
1780625514147678700,3.5636787109375,-0.4058837890625,0.889862060546875,-0.1609649658203125
1780625514157708300,3.573708251953125,-0.354583740234375,0.840423583984375,-0.124969482421875
1780625514167737600,3.583737548828125,-0.268035888671875,0.7778778076171875,-0.1060333251953125
1780625514177767400,3.593767333984375,-0.188385009765625,0.7918853759765625,-0.12030029296875
1780625514187796500,3.60379638671875,-0.1537628173828125,0.8658447265625,-0.1378631591796875
1780625514197826300,3.613826416015625,-0.133819580078125,0.9290771484375,-0.1580963134765625
1780625514207855400,3.62385546875,-0.10107421875,0.93634033203125,-0.1741790771484375
1780625514217885400,3.633885498046875,-0.0918121337890625,0.9417877197265625,-0.181060791015625
1780625514227914500,3.64391455078125,-0.1081390380859375,0.9676971435546875,-0.185089111328125
1780625514237944600,3.653944580078125,-0.1528472900390625,1.00439453125,-0.1781768798828125
1780625514247973400,3.663973388671875,-0.2158966064453125,1.0094146728515625,-0.16546630859375
1780625514258003500,3.67400341796875,-0.2487945556640625,0.994964599609375,-0.153076171875
1780625514268032500,3.684032470703125,-0.26934814453125,0.9965057373046875,-0.152099609375
1780625514278062600,3.6940625,-0.2471771240234375,0.9766998291015625,-0.1522979736328125
1780625514288091400,3.70409130859375,-0.214111328125,0.926025390625,-0.15472412109375
1780625514298121500,3.71412158203125,-0.1859893798828125,0.88665771484375,-0.1676788330078125
1780625514308150500,3.724150634765625,-0.1524658203125,0.8831634521484375,-0.1917724609375
1780625514318180600,3.7341806640625,-0.11572265625,0.90423583984375,-0.21746826171875
1780625514328209400,3.74420947265625,-0.1016845703125,0.9844207763671875,-0.2528076171875
1780625514338239500,3.754239501953125,-0.0988616943359375,1.0675811767578125,-0.2867431640625
1780625514348268500,3.7642685546875,-0.08172607421875,1.010772705078125,-0.288848876953125
1780625514358298600,3.774298583984375,-0.09381103515625,0.9216766357421875,-0.2782135009765625
1780625514368327400,3.784327392578125,-0.109039306640625,0.89337158203125,-0.2569427490234375
1780625514378357500,3.794357421875,-0.1484527587890625,0.900604248046875,-0.2379608154296875
1780625514388386600,3.804386474609375,-0.181793212890625,0.7917327880859375,-0.2239837646484375
1780625514398416600,3.814416748046875,-0.18017578125,0.837066650390625,-0.2161407470703125
1780625514408445700,3.82444580078125,-0.189910888671875,0.9040069580078125,-0.221221923828125
1780625514418475300,3.834475341796875,-0.23272705078125,1.0136260986328125,-0.2266845703125
1780625514428504600,3.844504638671875,-0.2591400146484375,1.1299591064453125,-0.2288970947265625
1780625514438534400,3.854534423828125,-0.2429046630859375,1.171905517578125,-0.2151336669921875
1780625514448563500,3.8645634765625,-0.2193603515625,1.116668701171875,-0.181976318359375
1780625514458593500,3.874593505859375,-0.1994476318359375,1.038116455078125,-0.14605712890625
1780625514468622300,3.884622314453125,-0.1866302490234375,0.9654083251953125,-0.118499755859375
1780625514478652400,3.89465234375,-0.1874847412109375,0.8875732421875,-0.1018829345703125
1780625514488681500,3.904681396484375,-0.2221832275390625,0.86126708984375,-0.0998077392578125
1780625514498711600,3.914711669921875,-0.2347564697265625,0.8677520751953125,-0.1044769287109375
1780625514508740400,3.924740234375,-0.2269744873046875,0.8784942626953125,-0.10943603515625
1780625514518770400,3.9347705078125,-0.2374725341796875,0.8999786376953125,-0.119903564453125
1780625514528799500,3.944799560546875,-0.2398529052734375,0.9539337158203125,-0.1289520263671875
1780625514538829600,3.95482958984375,-0.2243194580078125,1.0000457763671875,-0.139190673828125
1780625514548858400,3.9648583984375,-0.1526641845703125,0.991973876953125,-0.1620635986328125
1780625514558888400,3.974888427734375,-0.0746002197265625,0.9976806640625,-0.21954345703125
1780625514568917500,3.98491748046875,-0.1001129150390625,1.0227813720703125,-0.2744293212890625
1780625514578947600,3.994947509765625,-0.141357421875,1.0262603759765625,-0.3064727783203125
1780625514588976400,4.004976318359375,-0.15582275390625,1.011871337890625,-0.316131591796875
1780625514599006500,4.01500634765625,-0.1848297119140625,0.9757080078125,-0.2925262451171875
1780625514609035500,4.025035400390625,-0.223907470703125,0.8840789794921875,-0.2440032958984375
1780625514619065600,4.035065673828125,-0.2641754150390625,0.8531341552734375,-0.1942596435546875
1780625514629094700,4.0450947265625,-0.2510986328125,0.8693084716796875,-0.16070556640625
1780625514639124500,4.05512451171875,-0.3465576171875,0.9868316650390625,-0.1248016357421875
1780625514649153500,4.065153564453125,-0.3721771240234375,1.0185699462890625,-0.1068572998046875
1780625514659183600,4.07518359375,-0.2584991455078125,1.01177978515625,-0.0965118408203125
1780625514669212700,4.085212646484375,-0.2005767822265625,0.9386138916015625,-0.1056671142578125
1780625514679242500,4.095242431640625,-0.15142822265625,0.8725738525390625,-0.13568115234375
1780625514689271600,4.105271484375,-0.13775634765625,0.8755645751953125,-0.179046630859375
1780625514699301400,4.11530126953125,-0.1373138427734375,0.818878173828125,-0.23553466796875
1780625514709330400,4.125330322265625,-0.1192626953125,0.7792816162109375,-0.2684326171875
1780625514719360500,4.135360595703125,-0.1727447509765625,0.8587188720703125,-0.2884368896484375
1780625514729389300,4.145389404296875,-0.2772064208984375,0.9556884765625,-0.291229248046875
1780625514739419400,4.15541943359375,-0.24224853515625,0.808563232421875,-0.2693328857421875
1780625514749448400,4.165448486328125,-0.1718597412109375,0.7900238037109375,-0.2395477294921875
1780625514759478500,4.175478515625,-0.2661895751953125,0.885772705078125,-0.23760986328125
1780625514769507300,4.18550732421875,-0.30133056640625,0.9412078857421875,-0.2144775390625
1780625514779537400,4.195537353515625,-0.272308349609375,0.9834442138671875,-0.1981048583984375
1780625514789566500,4.20556640625,-0.2077484130859375,0.983062744140625,-0.204345703125
1780625514799596500,4.215596435546875,-0.1999053955078125,0.9864044189453125,-0.1996612548828125
1780625514809625300,4.225625244140625,-0.2443084716796875,1.00103759765625,-0.2216644287109375
1780625514819655400,4.235655517578125,-0.3134765625,0.99749755859375,-0.233551025390625
1780625514829684500,4.2456845703125,-0.38671875,0.9633636474609375,-0.217376708984375
1780625514839714600,4.255714599609375,-0.43499755859375,0.9207305908203125,-0.1834259033203125
1780625514849743600,4.26574365234375,-0.4352264404296875,0.9050445556640625,-0.147125244140625
1780625514859773400,4.2757734375,-0.4267120361328125,0.9282684326171875,-0.124359130859375
1780625514869802500,4.285802490234375,-0.3998260498046875,0.9798431396484375,-0.1152191162109375
1780625514879832600,4.29583251953125,-0.303070068359375,1.02850341796875,-0.11181640625
1780625514889861600,4.305861572265625,-0.1223602294921875,1.0395660400390625,-0.1389007568359375
1780625514899891700,4.3158916015625,-0.0630645751953125,1.0518951416015625,-0.1934356689453125
1780625514909920500,4.32592041015625,-0.1634368896484375,1.0384368896484375,-0.2625579833984375
1780625514919950600,4.33595068359375,-0.2458038330078125,0.9647674560546875,-0.305511474609375
1780625514929979600,4.345979736328125,-0.2619781494140625,0.91485595703125,-0.313446044921875
1780625514940009500,4.356009521484375,-0.2890625,0.9112701416015625,-0.3026885986328125
1780625514950038500,4.36603857421875,-0.3272552490234375,0.9341583251953125,-0.2796630859375
1780625514960068400,4.376068359375,-0.3885040283203125,0.9533233642578125,-0.2464447021484375
1780625514970097700,4.38609765625,-0.46337890625,0.9419708251953125,-0.210296630859375
1780625514980127500,4.39612744140625,-0.522186279296875,0.92034912109375,-0.172698974609375
1780625514990156300,4.40615625,-0.49005126953125,0.8975982666015625,-0.130706787109375
1780625515000186400,4.416186279296875,-0.38250732421875,0.8780517578125,-0.1127471923828125
1780625515010215400,4.42621533203125,-0.2165069580078125,0.901214599609375,-0.1541748046875
1780625515020245500,4.43624560546875,-0.1730499267578125,0.9541473388671875,-0.2354278564453125
1780625515030274300,4.4462744140625,-0.2241058349609375,0.9379119873046875,-0.28192138671875
1780625515040304400,4.456304443359375,-0.2080078125,0.9012451171875,-0.3120269775390625
1780625515050333400,4.46633349609375,-0.1681060791015625,0.8391571044921875,-0.3254547119140625
1780625515060363500,4.476363525390625,-0.2319183349609375,0.7883453369140625,-0.3137054443359375
1780625515070392600,4.486392578125,-0.297149658203125,0.8801116943359375,-0.30523681640625
1780625515080422400,4.49642236328125,-0.213714599609375,0.9223175048828125,-0.346405029296875
1780625515090451500,4.506451416015625,-0.0150909423828125,0.849334716796875,-0.4309844970703125
1780625515100481500,4.5164814453125,-0.0537109375,0.806793212890625,-0.492584228515625
1780625515110510600,4.526510498046875,-0.141876220703125,0.81024169921875,-0.51239013671875
1780625515120540400,4.53654052734375,-0.2273712158203125,0.856414794921875,-0.492401123046875
1780625515130569500,4.546569580078125,-0.2655792236328125,0.873291015625,-0.441314697265625
1780625515140599600,4.556599609375,-0.3023834228515625,0.9026336669921875,-0.3756103515625
1780625515150628600,4.566628662109375,-0.3605499267578125,0.8821563720703125,-0.311370849609375
1780625515160658700,4.57665869140625,-0.4474639892578125,0.8654937744140625,-0.2812957763671875
1780625515170687500,4.5866875,-0.43487548828125,0.95098876953125,-0.273101806640625
1780625515180717600,4.596717529296875,-0.4259490966796875,0.9437408447265625,-0.2477569580078125
1780625515190747400,4.606747314453125,-0.3388519287109375,0.8395233154296875,-0.23291015625
1780625515200776700,4.616776611328125,-0.37353515625,0.8581390380859375,-0.22747802734375
1780625515210806500,4.626806640625,-0.419342041015625,0.8590087890625,-0.229766845703125
1780625515220835300,4.63683544921875,-0.364288330078125,0.93084716796875,-0.2567291259765625
1780625515230865400,4.646865478515625,-0.2942352294921875,0.9626007080078125,-0.3011322021484375
1780625515240894500,4.65689453125,-0.22943115234375,0.9545135498046875,-0.3331756591796875
1780625515250924500,4.666924560546875,-0.2533111572265625,0.916229248046875,-0.3245391845703125
1780625515260953300,4.676953369140625,-0.326629638671875,0.8554534912109375,-0.271514892578125
1780625515270983400,4.6869833984375,-0.379974365234375,0.830352783203125,-0.21282958984375
1780625515281012500,4.697012451171875,-0.3738861083984375,0.8600006103515625,-0.153045654296875
1780625515291042600,4.70704248046875,-0.21307373046875,0.932373046875,-0.0890350341796875
1780625515301071400,4.7170712890625,0.005279541015625,0.9468994140625,-0.0771942138671875
1780625515311101400,4.727101318359375,-0.0297698974609375,0.912384033203125,-0.1553955078125
1780625515321130500,4.737130615234375,-0.21807861328125,0.936553955078125,-0.236236572265625
1780625515331160600,4.74716064453125,-0.2975006103515625,0.966827392578125,-0.288055419921875
1780625515341189400,4.757189453125,-0.2235107421875,0.9828338623046875,-0.3383636474609375
1780625515351219500,4.767219482421875,-0.147491455078125,1.023101806640625,-0.39544677734375
1780625515361248500,4.77724853515625,-0.3043060302734375,0.9518585205078125,-0.29083251953125
1780625515371278600,4.787278564453125,-0.2349700927734375,0.9278411865234375,-0.2161712646484375
1780625515381307600,4.7973076171875,-0.2147674560546875,1.0463409423828125,-0.187591552734375
1780625515391337500,4.80733740234375,-0.2132415771484375,1.0656280517578125,-0.20806884765625
1780625515401366500,4.817366455078125,-0.1511077880859375,1.0426483154296875,-0.2771759033203125
1780625515411396600,4.827396728515625,-0.119964599609375,1.029296875,-0.311676025390625
1780625515421425700,4.83742578125,-0.1041259765625,0.9913330078125,-0.2878875732421875
1780625515431455500,4.84745556640625,-0.087921142578125,0.970855712890625,-0.2642059326171875
1780625515441484500,4.857484619140625,-0.055694580078125,0.9048614501953125,-0.262451171875
1780625515451514400,4.867514404296875,-0.055023193359375,0.8698272705078125,-0.241790771484375
1780625515461543700,4.877543701171875,-0.058349609375,0.8657989501953125,-0.2005462646484375
1780625515471573500,4.887573486328125,-0.041015625,0.8854522705078125,-0.151885986328125
1780625515481602300,4.897602294921875,0.0268402099609375,0.9152984619140625,-0.1005401611328125
1780625515491632400,4.90763232421875,0.04705810546875,0.9344024658203125,-0.0535430908203125
1780625515501661400,4.917661376953125,0.0015869140625,0.9339752197265625,-0.0346832275390625
1780625515511691500,4.92769140625,-0.068634033203125,0.9729461669921875,-0.0399322509765625
1780625515521720300,4.93772021484375,-0.1464080810546875,1.04302978515625,-0.0360565185546875
1780625515531750400,4.94775048828125,-0.175689697265625,1.083221435546875,-0.0017852783203125
1780625515541779500,4.957779541015625,-0.1871185302734375,1.05303955078125,0.0387725830078125
1780625515551809500,4.9678095703125,-0.2141876220703125,1.0334320068359375,0.08056640625
1780625515561838300,4.97783837890625,-0.212799072265625,1.015716552734375,0.1217041015625
1780625515571868400,4.987868408203125,-0.1710968017578125,0.9853668212890625,0.15814208984375
1780625515581897500,4.9978974609375,-0.137786865234375,1.0188751220703125,0.2028656005859375
1780625515591927600,5.007927490234375,-0.0958099365234375,1.0355377197265625,0.22412109375
1780625515601956600,5.01795654296875,-0.0362548828125,1.008697509765625,0.21368408203125
1780625515611986400,5.027986328125,0.0186614990234375,0.97021484375,0.1728515625
1780625515622015500,5.038015380859375,0.0150909423828125,0.94329833984375,0.125518798828125
1780625515632045600,5.048045654296875,-0.02764892578125,0.9307708740234375,0.0990753173828125
1780625515642074600,5.05807470703125,-0.0182342529296875,0.8903961181640625,0.0714111328125
1780625515652104700,5.068104736328125,0.0375213623046875,0.879791259765625,0.06109619140625
1780625515662133500,5.078133544921875,0.1233978271484375,0.8916015625,0.04925537109375
1780625515672163600,5.08816357421875,0.1876678466796875,0.9107208251953125,0.0372772216796875
1780625515682192600,5.098192626953125,0.198760986328125,0.9244384765625,0.0318450927734375
1780625515692222700,5.10822265625,0.2527618408203125,0.9465179443359375,0.036956787109375
1780625515702251500,5.11825146484375,0.2776031494140625,1.0022735595703125,0.0289459228515625
1780625515712281300,5.12828125,0.2318115234375,1.044769287109375,0.019378662109375
1780625515722310700,5.138310546875,0.1598358154296875,1.0679779052734375,0.015106201171875
1780625515732340500,5.148340576171875,0.0834808349609375,1.0764923095703125,0.0211944580078125
1780625515742369500,5.15836962890625,0.063507080078125,1.0250091552734375,0.0407867431640625
1780625515752399400,5.1683994140625,0.0828399658203125,0.95941162109375,0.0754241943359375
1780625515762428400,5.178428466796875,0.130462646484375,0.912689208984375,0.1233673095703125
1780625515772458500,5.18845849609375,0.1691131591796875,0.894775390625,0.1534271240234375
1780625515782488600,5.198488525390625,0.1875762939453125,0.9232177734375,0.173004150390625
1780625515792517400,5.208517333984375,0.19085693359375,0.952728271484375,0.17877197265625
1780625515802547500,5.21854736328125,0.1698760986328125,0.955078125,0.1956329345703125
1780625515812576500,5.228576416015625,0.1170501708984375,0.9441070556640625,0.1986541748046875
1780625515822606600,5.238606689453125,0.080230712890625,0.9451751708984375,0.191162109375
1780625515832635400,5.248635498046875,0.1005096435546875,0.960205078125,0.1693115234375
1780625515842665500,5.25866552734375,0.1354217529296875,0.9921417236328125,0.1355133056640625
1780625515852694500,5.268694580078125,0.155120849609375,1.0179901123046875,0.0899505615234375
1780625515862724600,5.278724609375,0.1607818603515625,1.0420684814453125,0.060333251953125
1780625515872753400,5.28875341796875,0.1382293701171875,1.0598602294921875,0.07647705078125
1780625515882783500,5.298783447265625,0.1055755615234375,1.03436279296875,0.1315460205078125
1780625515892812500,5.3088125,0.069854736328125,0.9844512939453125,0.1888427734375
1780625515902842600,5.318842529296875,0.0509033203125,0.9463043212890625,0.233184814453125
1780625515912871700,5.32887158203125,0.0754852294921875,0.89923095703125,0.2547760009765625
1780625515922901500,5.338901611328125,0.1226806640625,0.8676605224609375,0.2586212158203125
1780625515932930600,5.3489306640625,0.1783905029296875,0.8880615234375,0.26080322265625
1780625515942960400,5.35896044921875,0.2462615966796875,0.926727294921875,0.2597503662109375
1780625515952989700,5.36898974609375,0.2875823974609375,0.9544830322265625,0.2399139404296875
1780625515963019500,5.37901953125,0.278472900390625,0.981475830078125,0.196868896484375
1780625515973048600,5.389048583984375,0.2433013916015625,1.0012664794921875,0.1142120361328125
1780625515983078400,5.399078369140625,0.2077178955078125,1.01885986328125,0.0743255615234375
1780625515993107500,5.409107421875,0.2038421630859375,1.0073699951171875,0.090972900390625
1780625516003137500,5.419137451171875,0.21551513671875,0.9733428955078125,0.1162872314453125
1780625516013166300,5.429166259765625,0.2159423828125,0.966217041015625,0.12652587890625
1780625516023196400,5.439196533203125,0.2009124755859375,0.988983154296875,0.11981201171875
1780625516034480600,5.450480712890625,0.19207763671875,0.986297607421875,0.1086273193359375
1780625516044509400,5.460509521484375,0.1783447265625,0.9987030029296875,0.1168365478515625
1780625516054539500,5.47053955078125,0.171112060546875,1.0014190673828125,0.135009765625
1780625516064568600,5.480568603515625,0.14630126953125,1.0006103515625,0.1431732177734375
1780625516074598700,5.4905986328125,0.10797119140625,0.9884490966796875,0.145660400390625
1780625516084627500,5.50062744140625,0.0882720947265625,0.9850006103515625,0.1621246337890625
1780625516094657500,5.510657470703125,0.0975799560546875,0.96405029296875,0.19976806640625
1780625516104686300,5.520686279296875,0.1598358154296875,0.95257568359375,0.2021331787109375
1780625516114716400,5.53071630859375,0.204376220703125,0.955535888671875,0.1661529541015625
1780625516124746200,5.540746337890625,0.263824462890625,0.8899383544921875,0.098876953125
1780625516134775300,5.550775390625,0.2584075927734375,0.868377685546875,0.0526580810546875
1780625516144805400,5.560805419921875,0.2268218994140625,0.9556121826171875,0.0328216552734375
1780625516154834200,5.570834228515625,0.1996612548828125,1.0428466796875,0.0741424560546875
1780625516164864300,5.5808642578125,0.146240234375,1.0240325927734375,0.1638946533203125
1780625516174893300,5.590893310546875,0.1299285888671875,0.9857025146484375,0.194915771484375
1780625516184923400,5.60092333984375,0.1397247314453125,0.9609375,0.1961517333984375
1780625516194952400,5.610952392578125,0.12628173828125,0.9507293701171875,0.199005126953125
1780625516204981200,5.620981201171875,0.0874176025390625,0.9519500732421875,0.215606689453125
1780625516215011300,5.63101123046875,0.0809478759765625,0.92987060546875,0.2335052490234375
1780625516225040400,5.641040283203125,0.0979461669921875,0.92181396484375,0.2589569091796875
1780625516235070500,5.651070556640625,0.1111297607421875,0.9401397705078125,0.279022216796875
1780625516245099300,5.661099365234375,0.1261749267578125,0.950714111328125,0.284271240234375
1780625516255129300,5.67112939453125,0.120452880859375,0.9724273681640625,0.289031982421875
1780625516265158400,5.681158447265625,0.13043212890625,1.0032958984375,0.2818603515625
1780625516275188500,5.6911884765625,0.1529998779296875,1.0172119140625,0.2719268798828125
1780625516285217300,5.70121728515625,0.1383056640625,1.0844573974609375,0.2835235595703125
1780625516295247400,5.711247314453125,0.1467742919921875,1.1587982177734375,0.30755615234375
1780625516305276400,5.7212763671875,0.1863555908203125,1.1239166259765625,0.3127593994140625
1780625516315306500,5.731306396484375,0.1647491455078125,1.0630645751953125,0.3119049072265625
1780625516325335300,5.741335205078125,0.1004638671875,0.9785003662109375,0.2700347900390625
1780625516335365400,5.751365478515625,0.087738037109375,0.8870086669921875,0.18853759765625
1780625516345394400,5.76139453125,0.0784149169921875,0.87457275390625,0.1439971923828125
1780625516355424500,5.771424560546875,0.108184814453125,0.8305816650390625,0.113525390625
1780625516365453600,5.78145361328125,0.110748291015625,0.84661865234375,0.116455078125
1780625516375483400,5.7914833984375,0.1202850341796875,0.892333984375,0.14373779296875
1780625516385512400,5.801512451171875,0.11517333984375,0.958404541015625,0.2008514404296875
1780625516395542300,5.811542236328125,0.10699462890625,0.9945220947265625,0.2551727294921875
1780625516405571600,5.821571533203125,0.1350555419921875,0.9551849365234375,0.31536865234375
1780625516415601200,5.83160107421875,0.1712188720703125,0.882080078125,0.3644256591796875
1780625516425630200,5.841630126953125,0.18487548828125,0.820709228515625,0.4049530029296875
1780625516435660300,5.851660400390625,0.152435302734375,0.8282318115234375,0.427978515625
1780625516445689300,5.861689453125,0.1317596435546875,0.8353424072265625,0.377044677734375
1780625516455719400,5.871719482421875,0.115234375,0.8991241455078125,0.30963134765625
1780625516465748200,5.881748291015625,0.126129150390625,0.985565185546875,0.2477874755859375
1780625516475778300,5.8917783203125,0.1773834228515625,1.0015716552734375,0.1865692138671875
1780625516485807400,5.901807373046875,0.1514892578125,1.0497589111328125,0.1686553955078125
1780625516495837400,5.91183740234375,0.13360595703125,1.039337158203125,0.165618896484375
1780625516505866200,5.9218662109375,0.1224365234375,1.0206146240234375,0.2071380615234375
1780625516515896300,5.931896240234375,0.1080780029296875,0.938507080078125,0.2722320556640625
1780625516525925400,5.94192529296875,0.091094970703125,1.0113525390625,0.3548431396484375
1780625516535955500,5.95195556640625,0.1596221923828125,1.071868896484375,0.3820648193359375
1780625516545984300,5.961984375,0.19500732421875,1.1450958251953125,0.419647216796875
1780625516556014300,5.972014404296875,0.181488037109375,1.3081817626953125,0.45550537109375
1780625516566043400,5.98204345703125,0.2469329833984375,1.236724853515625,0.3978118896484375
1780625516576073500,5.992073486328125,0.2318572998046875,1.3729705810546875,0.4067535400390625
1780625516586102500,6.0021025390625,0.162750244140625,1.441650390625,0.34796142578125
1780625516596132400,6.01213232421875,0.2186431884765625,1.317230224609375,0.2937469482421875
1780625516606161400,6.022161376953125,0.2532501220703125,0.989715576171875,0.214752197265625
1780625516616191500,6.03219140625,0.217132568359375,0.85223388671875,0.2769775390625
1780625516626221300,6.04222119140625,0.185394287109375,1.4097747802734375,0.510498046875
1780625516636250400,6.05225048828125,0.2145843505859375,1.300445556640625,0.5256195068359375
1780625516646280200,6.0622802734375,0.3094482421875,1.54803466796875,0.65142822265625
1780625516656309200,6.072309326171875,0.29852294921875,1.8431549072265625,0.759246826171875
1780625516666339300,6.08233935546875,0.205291748046875,1.8130645751953125,0.76470947265625
1780625516676368400,6.092368408203125,0.136199951171875,1.721588134765625,0.642669677734375
1780625516686398200,6.102398193359375,0.067779541015625,1.1136016845703125,0.3637847900390625
1780625516696427300,6.11242724609375,0.1126556396484375,0.419097900390625,0.1461181640625
1780625516706457300,6.122457275390625,0.1035308837890625,-0.0590667724609375,-0.07745361328125
1780625516716486400,6.132486328125,0.13665771484375,-0.3287811279296875,-0.1760711669921875
1780625516726516500,6.1425166015625,0.2087554931640625,-0.4155426025390625,-0.1628265380859375
1780625516736545300,6.152545166015625,0.162200927734375,-0.2290496826171875,-0.022308349609375
1780625516746575400,6.162575439453125,0.1698150634765625,-0.015533447265625,0.1121368408203125
1780625516756604400,6.1726044921875,0.1930999755859375,-0.07720947265625,-0.04766845703125
1780625516766634500,6.182634521484375,0.153472900390625,-0.2237091064453125,-0.2552032470703125
1780625516776663300,6.192663330078125,0.1560516357421875,-0.245330810546875,-0.0876617431640625
1780625516786693400,6.202693359375,0.1376800537109375,-0.1671295166015625,0.0392608642578125
1780625516796722400,6.212722412109375,0.1560211181640625,-0.095123291015625,0.1019744873046875
1780625516806752500,6.22275244140625,0.2376556396484375,0.0654754638671875,0.1270751953125
1780625516816781300,6.23278125,0.2493743896484375,0.2337799072265625,0.122039794921875
1780625516826811400,6.242811279296875,0.2961578369140625,0.609344482421875,0.194580078125
1780625516836840400,6.25284033203125,0.408111572265625,0.9933319091796875,0.270599365234375
1780625516846870500,6.26287060546875,0.3571624755859375,1.02435302734375,0.2534942626953125
1780625516856899300,6.2728994140625,0.350311279296875,1.2654876708984375,0.3150482177734375
1780625516866929400,6.282929443359375,0.2032470703125,2.0211639404296875,0.5034637451171875
1780625516876958500,6.29295849609375,-0.33941650390625,2.76678466796875,0.6374053955078125
1780625516886988300,6.30298828125,-0.4714202880859375,2.906219482421875,0.681671142578125
1780625516897017600,6.313017578125,0.2744293212890625,2.691192626953125,0.7473297119140625
1780625516907047200,6.323047119140625,0.447052001953125,2.35009765625,0.8274078369140625
1780625516917076200,6.333076171875,0.1561279296875,1.7409210205078125,0.93511962890625
1780625516927106300,6.343106201171875,-0.067138671875,1.0469207763671875,0.8229217529296875
1780625516937135400,6.35313525390625,-0.22540283203125,0.5482177734375,0.67681884765625
1780625516947165400,6.36316552734375,-0.275115966796875,0.17877197265625,0.54412841796875
1780625516957194200,6.3731943359375,-0.2612457275390625,-0.0618133544921875,0.4389495849609375
1780625516967224300,6.383224365234375,-0.1905364990234375,-0.19970703125,0.377105712890625
1780625516977254400,6.39325439453125,-0.12017822265625,-0.2615966796875,0.33221435546875
1780625516987283500,6.403283447265625,-0.05084228515625,-0.2515106201171875,0.270294189453125
1780625516997313300,6.413313232421875,0.03753662109375,-0.209716796875,0.2187347412109375
1780625517007342300,6.42334228515625,0.1276702880859375,-0.127197265625,0.162200927734375
1780625517017372400,6.433372314453125,0.249481201171875,-0.0216064453125,0.1306915283203125
1780625517027401500,6.4434013671875,0.41571044921875,0.096588134765625,0.09893798828125
1780625517037431600,6.453431640625,0.5303497314453125,0.227569580078125,0.0430755615234375
1780625517047460400,6.46346044921875,0.5169677734375,0.3929595947265625,-0.0039825439453125
1780625517057490400,6.473490478515625,0.4531707763671875,0.690399169921875,0.0612030029296875
1780625517067519500,6.48351953125,0.48480224609375,1.082550048828125,0.175628662109375
1780625517077549600,6.493549560546875,0.6554107666015625,1.52386474609375,0.3624267578125
1780625517087578400,6.503578369140625,0.624267578125,1.8617095947265625,0.536041259765625
1780625517097608400,6.5136083984375,0.5586090087890625,2.070037841796875,0.7378387451171875
1780625517107637500,6.523637451171875,0.5919647216796875,2.011810302734375,0.8790740966796875
1780625517117667300,6.533667236328125,0.4196014404296875,1.56298828125,0.747711181640625
1780625517127696400,6.5436962890625,0.397430419921875,0.954620361328125,0.5255584716796875
1780625517137726200,6.553726318359375,0.4119415283203125,0.498443603515625,0.2902679443359375
1780625517147755300,6.56375537109375,0.286041259765625,0.2477874755859375,0.131072998046875
1780625517157785300,6.573785400390625,0.1832733154296875,0.234954833984375,0.0388031005859375
1780625517167814100,6.583814208984375,0.1620330810546875,0.4738311767578125,0.112701416015625
1780625517177844200,6.59384423828125,0.2301788330078125,0.764129638671875,0.3214263916015625
1780625517187873300,6.603873291015625,0.3184051513671875,1.108184814453125,0.55645751953125
1780625517197903400,6.6139033203125,0.3390045166015625,1.4534912109375,0.782684326171875
1780625517207932400,6.623932373046875,0.319854736328125,1.590057373046875,0.9211578369140625
1780625517217962200,6.633962158203125,0.39013671875,1.4680023193359375,0.90301513671875
1780625517227991300,6.6439912109375,0.4925537109375,1.1920013427734375,0.7540283203125
1780625517238021400,6.654021484375,0.457366943359375,0.978515625,0.5380096435546875
1780625517248050400,6.664050537109375,0.33331298828125,0.9185791015625,0.349761962890625
1780625517258080500,6.67408056640625,0.27191162109375,0.982940673828125,0.27117919921875
1780625517268110300,6.6841103515625,0.25238037109375,1.1084747314453125,0.3072357177734375
1780625517278139400,6.694139404296875,0.1853179931640625,1.1891937255859375,0.371337890625
1780625517288169500,6.70416943359375,0.1187286376953125,1.2211456298828125,0.3949737548828125
1780625517298198500,6.714198486328125,0.0738372802734375,1.202362060546875,0.36627197265625
1780625517308228400,6.724228271484375,0.052459716796875,1.1365814208984375,0.3176727294921875
1780625517318257400,6.73425732421875,0.1115570068359375,1.0853424072265625,0.319427490234375
1780625517328287500,6.74428759765625,0.2173309326171875,1.0643157958984375,0.376373291015625
1780625517338316500,6.754316650390625,0.2999725341796875,1.0675048828125,0.422760009765625
1780625517348346400,6.764346435546875,0.370697021484375,1.0401611328125,0.4169464111328125
1780625517358375400,6.77437548828125,0.4057464599609375,1.017333984375,0.352874755859375
1780625517368405200,6.7844052734375,0.397186279296875,0.99017333984375,0.2617645263671875
1780625517378434300,6.794434326171875,0.35870361328125,0.9676055908203125,0.190155029296875
1780625517388464400,6.80446435546875,0.295074462890625,0.975433349609375,0.1660919189453125
1780625517398493200,6.8144931640625,0.2415618896484375,0.991058349609375,0.1996612548828125
1780625517408523300,6.824523193359375,0.2171630859375,1.0013885498046875,0.2674560546875
1780625517418552300,6.83455224609375,0.2115020751953125,1.0139617919921875,0.339935302734375
1780625517428582400,6.84458251953125,0.2196502685546875,1.015411376953125,0.382598876953125
1780625517438611200,6.854611083984375,0.250457763671875,1.0079498291015625,0.378753662109375
1780625517448641300,6.864641357421875,0.2915191650390625,1.0135650634765625,0.3437652587890625
1780625517458670300,6.87467041015625,0.3095855712890625,1.023193359375,0.2828521728515625
1780625517468700400,6.884700439453125,0.295989990234375,1.0429840087890625,0.2219085693359375
1780625517478729500,6.8947294921875,0.2792205810546875,1.0974884033203125,0.182464599609375
1780625517488759300,6.90475927734375,0.2658538818359375,1.162353515625,0.169891357421875
1780625517498788400,6.914788330078125,0.270263671875,1.2020721435546875,0.186767578125
1780625517508818400,6.924818359375,0.2753448486328125,1.1885528564453125,0.233184814453125
1780625517518847500,6.934847412109375,0.233978271484375,1.1181488037109375,0.3150634765625
1780625517528877300,6.944877197265625,0.1798248291015625,1.0235748291015625,0.4054718017578125
1780625517538906400,6.95490625,0.1640472412109375,0.9318084716796875,0.4911651611328125
1780625517548936400,6.9649365234375,0.17822265625,0.8583526611328125,0.557373046875
1780625517558965500,6.974965576171875,0.1951751708984375,0.8231353759765625,0.5752105712890625
1780625517568995600,6.98499560546875,0.2115478515625,0.8354949951171875,0.524017333984375
1780625517579025200,6.995025146484375,0.24298095703125,0.8748016357421875,0.437652587890625
1780625517589054500,7.005054443359375,0.2685546875,0.91668701171875,0.3715972900390625
1780625517599084300,7.015084228515625,0.2764129638671875,0.9535369873046875,0.3338775634765625
1780625517609113300,7.02511328125,0.279205322265625,0.9692840576171875,0.3145751953125
1780625517619143400,7.035143310546875,0.2551727294921875,0.9702606201171875,0.301666259765625
1780625517629172200,7.045172119140625,0.2164154052734375,0.9683837890625,0.2924652099609375
1780625517639202300,7.055202392578125,0.1629486083984375,0.959716796875,0.292083740234375
1780625517649231400,7.0652314453125,0.1170501708984375,0.9452362060546875,0.2807769775390625
1780625517659261400,7.075261474609375,0.1012115478515625,0.923858642578125,0.2764129638671875
1780625517669290200,7.085290283203125,0.086944580078125,0.8887939453125,0.2760162353515625
1780625517679320300,7.0953203125,0.077728271484375,0.84832763671875,0.2739410400390625
1780625517689349400,7.105349365234375,0.0613250732421875,0.82171630859375,0.2721710205078125
1780625517699379500,7.11537939453125,0.04168701171875,0.8056793212890625,0.28533935546875
1780625517709408300,7.125408203125,0.0243072509765625,0.789031982421875,0.3205718994140625
1780625517719438300,7.135438232421875,0.0078887939453125,0.774871826171875,0.3546295166015625
1780625517729467400,7.14546728515625,0.0013275146484375,0.7739715576171875,0.3902587890625
1780625517739497500,7.15549755859375,0.007843017578125,0.7786712646484375,0.4271240234375
1780625517749526300,7.1655263671875,0.0283966064453125,0.786102294921875,0.437042236328125
1780625517759556400,7.175556396484375,0.0560302734375,0.7959136962890625,0.4288330078125
1780625517769585400,7.18558544921875,0.0988922119140625,0.80706787109375,0.399688720703125
1780625517779615500,7.195615478515625,0.16571044921875,0.8251800537109375,0.3484344482421875
1780625517789644500,7.20564453125,0.215728759765625,0.8550262451171875,0.298187255859375
1780625517799674400,7.21567431640625,0.199249267578125,0.8807373046875,0.2525177001953125
1780625517809703400,7.225703369140625,0.1573486328125,0.8974151611328125,0.2235870361328125
1780625517819733500,7.2357333984375,0.1169891357421875,0.9205780029296875,0.2178802490234375
1780625517829762600,7.245762451171875,0.0784149169921875,0.936004638671875,0.24359130859375
1780625517839792400,7.25579248046875,0.0439453125,0.9459991455078125,0.3048858642578125
1780625517849822200,7.265822265625,0.0281982421875,0.9541473388671875,0.364227294921875
1780625517859851300,7.275851318359375,0.0089111328125,0.9363555908203125,0.40728759765625
1780625517869881300,7.28588134765625,-0.0052490234375,0.895111083984375,0.4481658935546875
1780625517879910400,7.295910400390625,0.0034942626953125,0.852203369140625,0.49310302734375
1780625517889940200,7.305940185546875,0.004791259765625,0.815032958984375,0.5338134765625
1780625517899969300,7.31596923828125,0.003387451171875,0.7830047607421875,0.555633544921875
1780625517909999400,7.325999267578125,0.00738525390625,0.75390625,0.5689544677734375
1780625517920028400,7.3360283203125,0.04071044921875,0.7303466796875,0.5557861328125
1780625517930058500,7.34605859375,0.1072998046875,0.7380523681640625,0.52679443359375
1780625517940087300,7.35608740234375,0.16510009765625,0.789642333984375,0.4770965576171875
1780625517950117400,7.366117431640625,0.1821441650390625,0.8725738525390625,0.3937225341796875
1780625517960146400,7.376146484375,0.20513916015625,0.95574951171875,0.3069610595703125
1780625517970176500,7.386176513671875,0.246429443359375,1.0158538818359375,0.2376251220703125
1780625517980205300,7.396205322265625,0.2662353515625,1.0532989501953125,0.1909332275390625
1780625517990235400,7.4062353515625,0.250335693359375,1.057403564453125,0.16131591796875
1780625518000264400,7.416264404296875,0.21795654296875,1.0295867919921875,0.153900146484375
1780625518010294500,7.42629443359375,0.16558837890625,0.986480712890625,0.1595306396484375
1780625518020323300,7.4363232421875,0.1077423095703125,0.9396820068359375,0.1756744384765625
1780625518030353400,7.446353515625,0.06365966796875,0.90570068359375,0.210205078125
1780625518040382500,7.456382568359375,0.02294921875,0.8848724365234375,0.25640869140625
1780625518050412500,7.46641259765625,-0.0147857666015625,0.8740692138671875,0.3039398193359375
1780625518060441300,7.47644140625,-0.0464324951171875,0.8813018798828125,0.3469390869140625
1780625518070471200,7.48647119140625,-0.0236968994140625,0.9012451171875,0.3873748779296875
1780625518080500500,7.49650048828125,0.00836181640625,0.92144775390625,0.4136810302734375
1780625518090530800,7.50653076171875,0.0004119873046875,0.9427947998046875,0.4270172119140625
1780625518100560000,7.516559814453125,-0.0368499755859375,0.959503173828125,0.433624267578125
1780625518110590000,7.52658984375,-0.0886993408203125,0.952392578125,0.415374755859375
1780625518120619800,7.536619873046875,-0.126434326171875,0.947113037109375,0.4077301025390625
1780625518130648800,7.54664892578125,-0.1216278076171875,0.921630859375,0.416717529296875
1780625518140679000,7.556678955078125,-0.087432861328125,0.8920135498046875,0.4368896484375
1780625518150708000,7.5667080078125,-0.0485382080078125,0.8852691650390625,0.44305419921875
1780625518160738000,7.576738037109375,-0.036651611328125,0.9088897705078125,0.4369354248046875
1780625518170766800,7.586766845703125,-0.035400390625,0.953857421875,0.42181396484375
1780625518180797000,7.596796875,-0.0263519287109375,1.005859375,0.40576171875
1780625518190826000,7.606825927734375,0.0017852783203125,1.04901123046875,0.40325927734375
1780625518200856000,7.61685595703125,0.030731201171875,1.067718505859375,0.4096832275390625
1780625518210884900,7.626884765625,0.0363922119140625,1.0520477294921875,0.4136810302734375
1780625518220915000,7.6369150390625,0.040313720703125,1.0092620849609375,0.4122467041015625
1780625518230944000,7.646944091796875,0.0590972900390625,0.964508056640625,0.4111328125
1780625518240973800,7.656973876953125,0.0959625244140625,0.8965301513671875,0.4004058837890625
1780625518251003000,7.6670029296875,0.1241607666015625,0.8250274658203125,0.370758056640625
1780625518261032700,7.67703271484375,0.1363372802734375,0.78570556640625,0.3426055908203125
1780625518271062000,7.68706201171875,0.148956298828125,0.7757110595703125,0.3208770751953125
1780625518281091800,7.697091796875,0.181121826171875,0.7825469970703125,0.3055877685546875
1780625518291120600,7.70712060546875,0.2126617431640625,0.8120574951171875,0.3045654296875
1780625518301150700,7.717150634765625,0.215667724609375,0.844635009765625,0.3013916015625
1780625518311179800,7.7271796875,0.1990966796875,0.8944244384765625,0.296905517578125
1780625518321209900,7.7372099609375,0.1847381591796875,0.9072113037109375,0.2941131591796875
1780625518331239000,7.747239013671875,0.1691436767578125,0.880767822265625,0.2857818603515625
1780625518341268700,7.757268798828125,0.171875,0.8138885498046875,0.2789459228515625
1780625518351298800,7.767298828125,0.186737060546875,0.73883056640625,0.2739105224609375
1780625518361327900,7.777327880859375,0.18084716796875,0.6759490966796875,0.26934814453125
1780625518371358000,7.78735791015625,0.1662750244140625,0.636444091796875,0.2737274169921875
1780625518381386800,7.79738671875,0.1297607421875,0.6030120849609375,0.273468017578125
1780625518391416800,7.807416748046875,0.0638275146484375,0.5738067626953125,0.2713623046875
1780625518401446000,7.81744580078125,0.0274505615234375,0.59210205078125,0.2789306640625
1780625518411476000,7.82747607421875,0.0306243896484375,0.6536865234375,0.3139190673828125
1780625518421505000,7.837505126953125,0.0480194091796875,0.7236175537109375,0.3571929931640625
1780625518431534800,7.847534912109375,0.0121612548828125,0.8051300048828125,0.3903350830078125
1780625518441564000,7.85756396484375,-0.05059814453125,0.8892974853515625,0.41851806640625
1780625518451594000,7.867593994140625,-0.1200714111328125,0.94244384765625,0.431793212890625
1780625518461623000,7.877623046875,-0.1499786376953125,0.9795379638671875,0.45196533203125
1780625518471652900,7.88765283203125,-0.14910888671875,1.0243682861328125,0.4805450439453125
1780625518481682000,7.897681884765625,-0.136871337890625,1.058624267578125,0.505523681640625
1780625518491711700,7.907711669921875,-0.0966949462890625,1.093963623046875,0.5226898193359375
1780625518501741000,7.917740966796875,-0.08001708984375,1.15093994140625,0.508636474609375
1780625518511771000,7.92777099609375,-0.0941162109375,1.2197113037109375,0.4808349609375
1780625518521799700,7.937799560546875,-0.2230072021484375,1.23956298828125,0.4798431396484375
1780625518531829800,7.947829833984375,-0.371551513671875,1.2046356201171875,0.479827880859375
1780625518541858800,7.95785888671875,-0.39349365234375,1.1652679443359375,0.4576568603515625
1780625518551889000,7.967888916015625,-0.32989501953125,1.08935546875,0.417510986328125
1780625518561917700,7.977917724609375,-0.27099609375,0.9814910888671875,0.3272247314453125
1780625518571947800,7.98794775390625,-0.2621917724609375,0.8640594482421875,0.2368011474609375
1780625518581977900,7.997977783203125,-0.2762451171875,0.7588348388671875,0.1907806396484375
1780625518592007000,8.0080068359375,-0.3148193359375,0.7096405029296875,0.1675567626953125
1780625518602037000,8.018037109375,-0.33966064453125,0.71795654296875,0.149139404296875
1780625518612065800,8.028065673828126,-0.3379974365234375,0.7774505615234375,0.106903076171875
1780625518622096000,8.038095947265624,-0.318206787109375,0.87042236328125,0.040924072265625
1780625518632125000,8.048125,-0.2976531982421875,0.957244873046875,-0.0381011962890625
1780625518642155000,8.058155029296875,-0.2942047119140625,1.023895263671875,-0.1215057373046875
1780625518652183800,8.068183837890626,-0.280059814453125,1.0820465087890625,-0.1890411376953125
1780625518662214000,8.0782138671875,-0.2709197998046875,1.1517791748046875,-0.22540283203125
1780625518672243000,8.088242919921875,-0.2680206298828125,1.2071380615234375,-0.2501373291015625
1780625518682273000,8.09827294921875,-0.2515716552734375,1.2410888671875,-0.2191619873046875
1780625518692302000,8.108302001953126,-0.2546234130859375,1.2185821533203125,-0.151580810546875
1780625518702332000,8.118331787109375,-0.458587646484375,1.144195556640625,-0.16424560546875
1780625518712361000,8.12836083984375,-0.6190185546875,1.0261688232421875,-0.15423583984375
1780625518722390800,8.138390869140625,-0.5501556396484375,0.891571044921875,-0.1023406982421875
1780625518732419800,8.148419921875,-0.2688751220703125,0.7575836181640625,-0.091064453125
1780625518742449700,8.15844970703125,-1.0235595703125,0.79296875,-0.0290374755859375
1780625518752478700,8.168478759765625,-0.826019287109375,0.777740478515625,0.038421630859375
1780625518762508800,8.1785087890625,-0.50634765625,0.868499755859375,0.023406982421875
1780625518772537900,8.188537841796874,-0.60595703125,0.88250732421875,0.0688934326171875
1780625518782568000,8.19856787109375,-0.601776123046875,0.7592315673828125,-0.0060272216796875
1780625518792596700,8.2085966796875,-0.396270751953125,0.883087158203125,-0.0301666259765625
1780625518802626800,8.218626708984376,-0.344024658203125,1.0290069580078125,0.1463470458984375
1780625518812657000,8.228656982421874,-0.33740234375,0.8693695068359375,0.0875244140625
1780625518822686000,8.23868603515625,-0.111663818359375,0.83319091796875,0.1586761474609375
1780625518832716000,8.248716064453125,-0.0704498291015625,0.7662353515625,0.20440673828125
1780625518842744800,8.258744873046876,-0.24322509765625,0.8134765625,-0.149322509765625
1780625518852775000,8.26877490234375,0.2237091064453125,0.997589111328125,0.2938079833984375
1780625518862804000,8.278803955078125,0.5448150634765625,0.874664306640625,0.1958465576171875
1780625518872834000,8.288833984375,0.4046783447265625,0.9485321044921875,-0.011871337890625
1780625518882862800,8.29886279296875,0.4220428466796875,1.008453369140625,0.12921142578125
1780625518892893000,8.308892822265625,0.5546875,0.8415679931640625,0.0872344970703125
1780625518902922000,8.318921875,0.41900634765625,0.8900909423828125,-0.011566162109375
1780625518912952000,8.3289521484375,0.310394287109375,0.9514312744140625,0.010589599609375
1780625518922980900,8.33898095703125,0.2174072265625,0.90350341796875,-0.0738372802734375
1780625518933011000,8.349010986328125,0.138458251953125,0.957855224609375,-0.0809173583984375
1780625518943040000,8.3590400390625,0.2093048095703125,0.985687255859375,-0.1034393310546875
1780625518953069800,8.36906982421875,0.0955963134765625,1.024993896484375,-0.0415802001953125
1780625518963099000,8.379098876953124,-0.0677490234375,1.002105712890625,0.0048675537109375
1780625518973128700,8.389128662109375,0.0928192138671875,1.02392578125,0.0579833984375
1780625518983157800,8.39915771484375,0.1516571044921875,1.01654052734375,0.1221160888671875
1780625518993187800,8.409187744140626,0.157867431640625,0.9946136474609375,0.1614837646484375
1780625519003218000,8.419218017578125,0.17010498046875,0.985260009765625,0.2172088623046875
1780625519013246700,8.429246826171875,0.1566314697265625,0.971405029296875,0.265228271484375
1780625519023276800,8.43927685546875,0.126495361328125,0.965789794921875,0.3154144287109375
1780625519033305900,8.449305908203126,0.11944580078125,0.957275390625,0.3649139404296875
1780625519043336000,8.4593359375,0.123046875,0.9479217529296875,0.4090118408203125
1780625519053364700,8.46936474609375,0.068603515625,0.9176483154296875,0.4353790283203125
1780625519063394800,8.479394775390626,0.0242919921875,0.90301513671875,0.44366455078125
1780625519073424000,8.489423828125,0.0117950439453125,0.9109039306640625,0.4427947998046875
1780625519083454000,8.499453857421875,0.011993408203125,0.9041290283203125,0.4091339111328125
1780625519093483000,8.50948291015625,-0.0251617431640625,0.87408447265625,0.3690643310546875
1780625519103512800,8.519512939453126,-0.0816497802734375,0.84716796875,0.356201171875
1780625519113542000,8.5295419921875,-0.087554931640625,0.8053131103515625,0.358673095703125
1780625519123572000,8.539572021484375,-0.074005126953125,0.7601776123046875,0.3600921630859375
1780625519133601000,8.54960107421875,-0.0939788818359375,0.739501953125,0.3703155517578125
1780625519143631000,8.559631103515626,-0.137237548828125,0.733856201171875,0.392608642578125
1780625519153660000,8.569659912109374,-0.1689605712890625,0.7513885498046875,0.4176177978515625
1780625519163689700,8.579689697265625,-0.1699066162109375,0.7869415283203125,0.4385833740234375
1780625519173719000,8.589718994140625,-0.15753173828125,0.8231964111328125,0.46661376953125
1780625519183748900,8.599748779296876,-0.1497802734375,0.8628997802734375,0.4927978515625
1780625519193778000,8.60977783203125,-0.1588592529296875,0.9245758056640625,0.5088653564453125
1780625519203807700,8.619807861328125,-0.1902923583984375,0.9791259765625,0.5258026123046875
1780625519213836800,8.6298369140625,-0.2319488525390625,0.99053955078125,0.522064208984375
1780625519223867000,8.639866943359374,-0.2261810302734375,0.9745330810546875,0.4899139404296875
1780625519233897000,8.64989697265625,-0.1753997802734375,0.9408111572265625,0.4188232421875
1780625519243925800,8.65992578125,-0.103759765625,0.91424560546875,0.3506622314453125
1780625519253955800,8.669955810546876,-0.0506744384765625,0.9036102294921875,0.2847137451171875
1780625519263985000,8.67998486328125,-0.039886474609375,0.9213714599609375,0.235443115234375
1780625519274015000,8.690014892578125,-0.0663299560546875,0.95452880859375,0.1939239501953125
1780625519284043800,8.700043701171875,-0.1020355224609375,0.97711181640625,0.1515350341796875
1780625519294073900,8.710073974609376,-0.1339263916015625,0.98626708984375,0.1287994384765625
1780625519304103000,8.72010302734375,-0.166748046875,0.9678802490234375,0.1539306640625
1780625519314133000,8.730133056640625,-0.20941162109375,0.9110870361328125,0.21923828125
1780625519324161800,8.740161865234375,-0.257232666015625,0.851898193359375,0.2874603271484375
1780625519334191900,8.75019189453125,-0.2614593505859375,0.8103485107421875,0.370025634765625
1780625519344221000,8.760220947265625,-0.24542236328125,0.7814178466796875,0.4639892578125
1780625519354251000,8.7702509765625,-0.2590484619140625,0.7649688720703125,0.5372772216796875
1780625519364280000,8.780280029296875,-0.2716064453125,0.77001953125,0.587646484375
1780625519374310000,8.790309814453124,-0.264068603515625,0.8015289306640625,0.62347412109375
1780625519384339000,8.8003388671875,-0.284759521484375,0.8003997802734375,0.63812255859375
1780625519394368800,8.81036865234375,-0.3022918701171875,0.7322998046875,0.626800537109375
1780625519404398000,8.820398193359376,-0.2589263916015625,0.629241943359375,0.611114501953125
1780625519414427600,8.830427734375,-0.196807861328125,0.53253173828125,0.58428955078125
1780625519424457700,8.840457763671875,-0.1474456787109375,0.5035400390625,0.5780792236328125
1780625519434486800,8.85048681640625,-0.0403594970703125,0.5569305419921875,0.5937957763671875
1780625519444516900,8.860516845703126,0.046905517578125,0.575225830078125,0.6612548828125
1780625519454546000,8.8705458984375,0.1171722412109375,0.6006622314453125,0.72222900390625
1780625519464575700,8.88057568359375,0.177459716796875,0.6340484619140625,0.755279541015625
1780625519474604800,8.890604736328125,0.2445526123046875,0.7148590087890625,0.7482757568359375
1780625519484635000,8.900634765625,0.278839111328125,0.8791656494140625,0.656768798828125
1780625519494664000,8.910663818359374,0.312530517578125,1.041412353515625,0.578704833984375
1780625519504694000,8.920694091796875,0.3188934326171875,1.1147613525390625,0.550079345703125
1780625519514722800,8.930722900390625,0.280975341796875,1.1147308349609375,0.5359954833984375
1780625519524753000,8.9407529296875,0.22625732421875,1.04296875,0.521240234375
1780625519534782000,8.950781982421875,0.13385009765625,0.9381256103515625,0.4882049560546875
1780625519544812000,8.96081201171875,0.087921142578125,0.8571319580078125,0.476898193359375
1780625519554840800,8.9708408203125,0.051239013671875,0.790313720703125,0.504730224609375
1780625519564871000,8.980870849609374,0.0154266357421875,0.752197265625,0.5483245849609375
1780625519574900000,8.99089990234375,-0.0203399658203125,0.75799560546875,0.5860137939453125
1780625519584930000,9.000929931640625,-0.01019287109375,0.8548583984375,0.61236572265625
1780625519594958800,9.010958740234376,-0.0289306640625,0.978851318359375,0.6168670654296875
1780625519604989000,9.020989013671874,-0.054412841796875,1.036895751953125,0.6121673583984375
1780625519615018800,9.031018798828125,-0.038421630859375,1.03302001953125,0.6083831787109375
1780625519625047800,9.0410478515625,-0.003936767578125,1.0160675048828125,0.6093292236328125
1780625519635078000,9.051077880859374,0.0160064697265625,0.97564697265625,0.621551513671875
1780625519645106700,9.061106689453124,0.0194244384765625,0.8921966552734375,0.6378173828125
1780625519655136800,9.07113671875,0.0274658203125,0.7926483154296875,0.6643829345703125
1780625519665165800,9.081165771484375,0.029632568359375,0.718109130859375,0.7029876708984375
1780625519675196000,9.09119580078125,0.046661376953125,0.7099456787109375,0.7190399169921875
1780625519685224700,9.101224609375,0.0608367919921875,0.7729644775390625,0.7156219482421875
1780625519695254800,9.1112548828125,0.0709381103515625,0.8556671142578125,0.723175048828125
1780625519705283800,9.121283935546876,0.0756072998046875,0.903564453125,0.7263336181640625
1780625519715314000,9.13131396484375,0.0745849609375,0.9240875244140625,0.6995849609375
1780625519725343000,9.141343017578125,0.0723876953125,0.95721435546875,0.671112060546875
1780625519735372800,9.151372802734375,0.060302734375,0.9895782470703125,0.6470947265625
1780625519745401900,9.16140185546875,0.0267333984375,0.9696502685546875,0.6380157470703125
1780625519755432000,9.171431884765624,0.0056610107421875,0.910736083984375,0.6366119384765625
1780625519765461000,9.1814609375,0.0226287841796875,0.83392333984375,0.65704345703125
1780625519775490800,9.19149072265625,0.0556488037109375,0.7690582275390625,0.691741943359375
1780625519785519900,9.201519775390626,0.122802734375,0.77642822265625,0.7264404296875
1780625519795550000,9.211550048828125,0.171356201171875,0.8537139892578125,0.7423248291015625
1780625519805579800,9.221579833984375,0.2032470703125,0.9986724853515625,0.734771728515625
1780625519815609000,9.231609130859376,0.2132720947265625,1.1496124267578125,0.7075347900390625
1780625519825638700,9.241638671875,0.1798248291015625,1.232086181640625,0.652313232421875
1780625519835668000,9.25166796875,0.12652587890625,1.2299652099609375,0.5926513671875
1780625519845697800,9.26169775390625,0.07025146484375,1.2126922607421875,0.5501861572265625
1780625519855726800,9.271726806640626,0.04022216796875,1.167205810546875,0.533416748046875
1780625519865757000,9.2817568359375,0.0583953857421875,1.04144287109375,0.5607757568359375
1780625519875785700,9.29178564453125,0.096038818359375,0.8594818115234375,0.6013336181640625
1780625519885815800,9.30181591796875,0.1416778564453125,0.679229736328125,0.6280059814453125
1780625519895844900,9.311844970703126,0.1776123046875,0.5144195556640625,0.64825439453125
1780625519905875000,9.321875,0.20025634765625,0.3930206298828125,0.65203857421875
1780625519915903700,9.33190380859375,0.2034759521484375,0.35040283203125,0.635345458984375
1780625519925933800,9.341933837890625,0.23919677734375,0.3866729736328125,0.59539794921875
1780625519935963000,9.351962890625,0.3082122802734375,0.4611358642578125,0.5719146728515625
1780625519945993000,9.361992919921875,0.37359619140625,0.53436279296875,0.57373046875
1780625519956021800,9.372021728515625,0.4204864501953125,0.58062744140625,0.591766357421875
1780625519966051800,9.3820517578125,0.4107208251953125,0.6075592041015625,0.606414794921875
1780625519976081000,9.392080810546876,0.370941162109375,0.6323394775390625,0.606475830078125
1780625519986111000,9.402111083984375,0.3170623779296875,0.6593017578125,0.579345703125
1780625519996139800,9.412139892578125,0.278839111328125,0.6649322509765625,0.5399169921875
1780625520006169900,9.422169921875,0.2580413818359375,0.64202880859375,0.504302978515625
1780625520016200000,9.432199951171874,0.2419891357421875,0.5957794189453125,0.464324951171875
1780625520026229000,9.44222900390625,0.230133056640625,0.53057861328125,0.4302978515625
1780625520036258800,9.4522587890625,0.2288818359375,0.4812164306640625,0.402008056640625
1780625520046289000,9.462288818359376,0.220367431640625,0.4798736572265625,0.3758087158203125
1780625520056317700,9.472317626953124,0.231231689453125,0.4787445068359375,0.391998291015625
1780625520066347800,9.48234765625,0.255157470703125,0.4843292236328125,0.4095916748046875
1780625520076376800,9.492376953125,0.27886962890625,0.511505126953125,0.42425537109375
1780625520086407000,9.502406982421874,0.3256683349609375,0.5704345703125,0.4288177490234375
1780625520096435500,9.512435546875,0.399688720703125,0.6829071044921875,0.438507080078125
1780625520106465500,9.522465576171875,0.4446258544921875,0.8317718505859375,0.48382568359375
1780625520116494300,9.532494384765625,0.433258056640625,0.9663238525390625,0.5576324462890625
1780625520126524400,9.5425244140625,0.4429473876953125,0.9853363037109375,0.607025146484375
1780625520136553500,9.552553466796875,0.513153076171875,0.976348876953125,0.65289306640625
1780625520146583600,9.56258349609375,0.6006927490234375,1.0697479248046875,0.7056427001953125
1780625520156613600,9.572613525390626,0.6004791259765625,1.34613037109375,0.737060546875
1780625520166642400,9.582642333984374,0.437347412109375,1.6331634521484375,0.7790679931640625
1780625520176672500,9.592672607421875,0.2796173095703125,1.559051513671875,0.73638916015625
1780625520186701600,9.60270166015625,0.1068572998046875,0.9737091064453125,0.6166839599609375
1780625520196731600,9.612731689453126,0.2216949462890625,0.4788970947265625,0.51251220703125
1780625520206760400,9.622760498046874,0.427154541015625,0.364990234375,0.4237060546875
1780625520216789500,9.63278955078125,0.4279327392578125,0.40313720703125,0.374176025390625
1780625520226819600,9.642819580078125,0.219146728515625,0.4337310791015625,0.396026611328125
1780625520236848600,9.6528486328125,0.077178955078125,0.4971466064453125,0.4059600830078125
1780625520246878500,9.66287841796875,0.0750885009765625,0.6393890380859375,0.4151611328125
1780625520256907500,9.672907470703125,0.169677734375,0.9326324462890625,0.4388580322265625
1780625520266937600,9.6829375,0.2178497314453125,1.248443603515625,0.4327850341796875
1780625520276966700,9.692966552734376,0.19024658203125,1.4241943359375,0.40338134765625
1780625520286996500,9.70299658203125,0.113800048828125,1.389892578125,0.3675079345703125
1780625520297025500,9.713025634765625,0.04144287109375,1.24951171875,0.3344879150390625
1780625520307055400,9.723055419921875,0.016632080078125,1.0663909912109375,0.31292724609375
1780625520317084700,9.733084716796874,-0.0193939208984375,0.912139892578125,0.289215087890625
1780625520327114500,9.743114501953125,-0.034881591796875,0.829864501953125,0.2742462158203125
1780625520337143300,9.753143310546875,0.02044677734375,0.7779388427734375,0.2743072509765625
1780625520347173400,9.76317333984375,0.0490570068359375,0.716339111328125,0.276123046875
1780625520357202400,9.773202392578124,0.061309814453125,0.661651611328125,0.2827606201171875
1780625520367232500,9.783232421875,0.081939697265625,0.6601409912109375,0.304718017578125
1780625520377261300,9.79326123046875,0.1091156005859375,0.73333740234375,0.3278350830078125
1780625520387291400,9.80329150390625,0.1518096923828125,0.84796142578125,0.3398895263671875
1780625520397321500,9.813321533203125,0.1988677978515625,0.98675537109375,0.3388519287109375
1780625520407350500,9.8233505859375,0.1902618408203125,1.1194000244140625,0.3130035400390625
1780625520417380600,9.833380615234375,0.0987396240234375,1.20849609375,0.2652130126953125
1780625520427409400,9.843409423828126,-0.012664794921875,1.2375640869140625,0.2155609130859375
1780625520437439500,9.853439453125,-0.1104888916015625,1.2181854248046875,0.1756134033203125
1780625520447468500,9.863468505859375,-0.1802825927734375,1.1702423095703125,0.152496337890625
1780625520457498600,9.87349853515625,-0.212249755859375,1.0787200927734375,0.1274566650390625
1780625520467527400,9.88352734375,-0.196044921875,1.01422119140625,0.113311767578125
1780625520477557500,9.8935576171875,-0.141387939453125,0.9925994873046875,0.12908935546875
1780625520487586600,9.903586669921875,-0.083160400390625,0.975555419921875,0.1568450927734375
1780625520497616600,9.91361669921875,-0.0484466552734375,0.960968017578125,0.164886474609375
1780625520507645700,9.923645751953124,-0.07733154296875,0.9275665283203125,0.1439971923828125
1780625520517675500,9.933675537109375,-0.132171630859375,0.91400146484375,0.1014404296875
1780625520527704600,9.94370458984375,-0.16754150390625,0.92303466796875,0.0440826416015625
1780625520537734400,9.953734375,-0.166168212890625,0.9676971435546875,0.00677490234375
1780625520547763700,9.963763671875,-0.14398193359375,1.0221710205078125,-0.0268096923828125
1780625520557793300,9.973793212890625,-0.1192626953125,1.042816162109375,-0.05218505859375
1780625520567822300,9.983822265625,-0.0470123291015625,1.0377349853515625,-0.0782928466796875
1780625520577852400,9.993852294921876,0.0254974365234375,1.023895263671875,-0.107879638671875
1780625520587881500,10.003881591796874,0.05810546875,1.006591796875,-0.111236572265625
1780625520597911600,10.01391162109375,0.055908203125,0.931915283203125,-0.1314849853515625
1780625520607941400,10.02394140625,0.0438690185546875,0.840667724609375,-0.1736297607421875
1780625520617970400,10.033970458984374,0.0369720458984375,0.7672882080078125,-0.1884002685546875
1780625520628000500,10.04400048828125,0.0482177734375,0.66461181640625,-0.1957855224609375
1780625520638029600,10.054029541015625,0.065155029296875,0.5388031005859375,-0.2145538330078125
1780625520648059600,10.0640595703125,0.0751800537109375,0.4306182861328125,-0.229949951171875
1780625520658088400,10.07408837890625,0.0601654052734375,0.350311279296875,-0.25439453125
1780625520668118500,10.084118408203125,0.00762939453125,0.312957763671875,-0.2851409912109375
1780625520678147600,10.094147705078125,-0.0467071533203125,0.341156005859375,-0.3227691650390625
1780625520688177700,10.104177734375,-0.0763397216796875,0.4573211669921875,-0.346923828125
1780625520698206500,10.11420654296875,-0.0647430419921875,0.62860107421875,-0.3961029052734375
1780625520708236500,10.124236572265625,-0.0143280029296875,0.821258544921875,-0.4754180908203125
1780625520718265600,10.134265625,0.0555267333984375,1.0024566650390625,-0.5498199462890625
1780625520728295700,10.144295654296876,0.1117095947265625,1.15631103515625,-0.6112518310546875
1780625520738324500,10.154324462890624,0.0636444091796875,1.239166259765625,-0.6665191650390625
1780625520748354600,10.1643544921875,-0.06719970703125,1.1850738525390625,-0.6941680908203125
1780625520758383600,10.174383544921875,-0.163177490234375,1.0099334716796875,-0.6768035888671875
1780625520768413400,10.184413330078126,-0.1987762451171875,0.811370849609375,-0.61956787109375
1780625520778442500,10.1944423828125,-0.21270751953125,0.649261474609375,-0.5669097900390625
1780625520788472300,10.204472412109375,-0.2098846435546875,0.5508575439453125,-0.54815673828125
1780625520798502400,10.21450244140625,-0.181488037109375,0.5123138427734375,-0.5634918212890625
1780625520808531500,10.224531494140624,-0.1536407470703125,0.5464935302734375,-0.598907470703125
1780625520818561500,10.2345615234375,-0.1537322998046875,0.609405517578125,-0.6623992919921875
1780625520828590300,10.24459033203125,-0.198699951171875,0.6871490478515625,-0.7277374267578125
1780625520838620400,10.254620361328126,-0.23968505859375,0.7592315673828125,-0.7795562744140625
1780625520848649500,10.2646494140625,-0.2589569091796875,0.79718017578125,-0.8113861083984375
1780625520858679600,10.274679443359375,-0.254730224609375,0.811859130859375,-0.8210601806640625
1780625520868708600,10.28470849609375,-0.231353759765625,0.830902099609375,-0.8094635009765625
1780625520878738400,10.294738525390626,-0.2061004638671875,0.820587158203125,-0.7838134765625
1780625520888767500,10.304767578125,-0.1634063720703125,0.7636566162109375,-0.731842041015625
1780625520898797600,10.314797607421875,-0.145416259765625,0.71026611328125,-0.691162109375
1780625520908826600,10.32482666015625,-0.17669677734375,0.693389892578125,-0.6694793701171875
1780625520918856400,10.3348564453125,-0.1889190673828125,0.6954803466796875,-0.6507568359375
1780625520928885500,10.344885498046875,-0.14996337890625,0.699462890625,-0.6431427001953125
1780625520938915600,10.35491552734375,-0.116607666015625,0.708221435546875,-0.6406097412109375
1780625520948944600,10.364944580078125,-0.112060546875,0.7051239013671875,-0.6387481689453125
1780625520958974700,10.374974609375,-0.0981903076171875,0.6834564208984375,-0.6465911865234375
1780625520969003500,10.38500341796875,-0.1083526611328125,0.6658477783203125,-0.6441497802734375
1780625520979033300,10.395033447265625,-0.1086273193359375,0.6671905517578125,-0.645904541015625
1780625520989063400,10.4050634765625,-0.1152801513671875,0.6832733154296875,-0.66436767578125
1780625520999092500,10.415092529296874,-0.0979461669921875,0.7265167236328125,-0.693023681640625
1780625521009122600,10.42512255859375,-0.0561676025390625,0.752166748046875,-0.7132720947265625
1780625521019151400,10.4351513671875,-0.044769287109375,0.741180419921875,-0.72271728515625
1780625521029181400,10.445181396484376,-0.0544281005859375,0.714630126953125,-0.7163848876953125
1780625521039210500,10.45521044921875,-0.054931640625,0.6801605224609375,-0.6826629638671875
1780625521049240600,10.465240478515625,-0.0615692138671875,0.6282196044921875,-0.6456451416015625
1780625521059269400,10.475269287109375,-0.103179931640625,0.5575714111328125,-0.6147003173828125
1780625521069299500,10.485299560546874,-0.1613922119140625,0.5151824951171875,-0.5819549560546875
1780625521079328500,10.49532861328125,-0.212921142578125,0.5327911376953125,-0.56219482421875
1780625521089358300,10.5053583984375,-0.1908111572265625,0.5866546630859375,-0.5743408203125
1780625521099387400,10.515387451171875,-0.1840667724609375,0.623870849609375,-0.6190338134765625
1780625521109417500,10.52541748046875,-0.2446441650390625,0.63568115234375,-0.6570281982421875
1780625521119446300,10.5354462890625,-0.2507171630859375,0.652679443359375,-0.66815185546875
1780625521129476400,10.545476318359375,-0.21044921875,0.71356201171875,-0.6673583984375
1780625521139505400,10.55550537109375,-0.2059783935546875,0.772491455078125,-0.67816162109375
1780625521149535500,10.565535400390624,-0.2709197998046875,0.7990264892578125,-0.6763916015625
1780625521159564300,10.575564208984375,-0.312957763671875,0.795013427734375,-0.6530914306640625
1780625521169594400,10.585594482421875,-0.2675018310546875,0.7874298095703125,-0.6333160400390625
1780625521179623400,10.59562353515625,-0.2171173095703125,0.789794921875,-0.617156982421875
1780625521189653500,10.605653564453124,-0.206146240234375,0.76739501953125,-0.6066131591796875
1780625521199683300,10.615683349609375,-0.2230987548828125,0.7219085693359375,-0.602020263671875
1780625521209712400,10.62571240234375,-0.27032470703125,0.7014923095703125,-0.599609375
1780625521219742200,10.6357421875,-0.337738037109375,0.7472686767578125,-0.6258544921875
1780625521229771300,10.645771240234374,-0.33062744140625,0.8122406005859375,-0.6561279296875
1780625521239801300,10.65580126953125,-0.249481201171875,0.824981689453125,-0.652923583984375
1780625521249830400,10.665830322265625,-0.121124267578125,0.83251953125,-0.6569976806640625
1780625521259860200,10.675860107421874,-0.1002655029296875,0.8975830078125,-0.6419525146484375
1780625521269889300,10.68588916015625,-0.14971923828125,0.901702880859375,-0.613739013671875
1780625521279919400,10.69591943359375,-0.202880859375,0.7433624267578125,-0.6325225830078125
1780625521289948400,10.705948486328126,-0.227447509765625,0.5861968994140625,-0.6480560302734375
1780625521299978200,10.715978271484374,-0.19561767578125,0.5207672119140625,-0.627105712890625
1780625521310007300,10.72600732421875,-0.17041015625,0.538909912109375,-0.58984375
1780625521320037400,10.736037353515625,-0.0907135009765625,0.606842041015625,-0.6195526123046875
1780625521330066400,10.74606640625,-0.027313232421875,0.7255706787109375,-0.7117919921875
1780625521340096500,10.756096435546874,-0.067169189453125,0.8077850341796875,-0.7888946533203125
1780625521350125300,10.766125244140625,-0.086761474609375,0.8188934326171875,-0.845001220703125
1780625521360155400,10.7761552734375,-0.0702972412109375,0.8163909912109375,-0.8665924072265625
1780625521370184400,10.786184326171876,-0.0245361328125,0.821807861328125,-0.8814544677734375
1780625521380214500,10.796214599609375,0.0036163330078125,0.7758331298828125,-0.87481689453125
1780625521390244600,10.80624462890625,-0.0186920166015625,0.6905517578125,-0.82928466796875
1780625521400273400,10.8162734375,-0.0674285888671875,0.62200927734375,-0.787139892578125
1780625521410303200,10.82630322265625,-0.105224609375,0.606719970703125,-0.7671356201171875
1780625521420332500,10.83633251953125,-0.0847015380859375,0.6524658203125,-0.7657470703125
1780625521430362400,10.8463623046875,-0.0724334716796875,0.7125396728515625,-0.772064208984375
1780625521440391400,10.856391357421876,-0.0805816650390625,0.7262420654296875,-0.7704620361328125
1780625521450421200,10.866421142578124,-0.0682373046875,0.7370758056640625,-0.77685546875
1780625521460450300,10.8764501953125,-0.050811767578125,0.77252197265625,-0.7799224853515625
1780625521470480400,10.88648046875,-0.0420074462890625,0.7511749267578125,-0.7608489990234375
1780625521480509200,10.89650927734375,-0.0461273193359375,0.67926025390625,-0.71112060546875
1780625521490539300,10.906539306640624,-0.0612335205078125,0.6509857177734375,-0.65460205078125
1780625521500568300,10.916568359375,-0.084625244140625,0.686859130859375,-0.639251708984375
1780625521510598400,10.926598388671875,-0.126556396484375,0.758819580078125,-0.658416748046875
1780625521520627200,10.936627197265626,-0.1347503662109375,0.8362274169921875,-0.6895904541015625
1780625521530657300,10.9466572265625,-0.1288909912109375,0.88397216796875,-0.725830078125
1780625521540686300,10.956686279296875,-0.1219024658203125,0.8597259521484375,-0.747314453125
1780625521550716400,10.96671630859375,-0.1082916259765625,0.7646636962890625,-0.751251220703125
1780625521560745500,10.976745361328126,-0.0806121826171875,0.6558685302734375,-0.73590087890625
1780625521570775300,10.986775390625,-0.0436859130859375,0.6205596923828125,-0.721832275390625
1780625521580805400,10.996805419921875,-0.0576019287109375,0.6448211669921875,-0.7234344482421875
1780625521590834400,11.00683447265625,-0.121307373046875,0.7098541259765625,-0.7195892333984375
1780625521600864500,11.016864501953124,-0.199371337890625,0.813232421875,-0.70343017578125
1780625521610893600,11.0268935546875,-0.2537841796875,0.9749755859375,-0.705047607421875
1780625521620923400,11.03692333984375,-0.283172607421875,1.125244140625,-0.7241058349609375
1780625521630952400,11.046952392578126,-0.27142333984375,1.173126220703125,-0.7179107666015625
1780625521640982300,11.056982177734374,-0.2386627197265625,1.0623321533203125,-0.68865966796875
1780625521651011600,11.067011474609375,-0.201751708984375,0.85980224609375,-0.645172119140625
1780625521661041200,11.077041259765625,-0.110565185546875,0.6860504150390625,-0.622833251953125
1780625521671070500,11.087070556640626,-0.0121002197265625,0.602081298828125,-0.6199493408203125
1780625521681100300,11.097100341796875,0.039581298828125,0.5773773193359375,-0.6524810791015625
1780625521691129300,11.10712939453125,0.039947509765625,0.599090576171875,-0.7180328369140625
1780625521701159400,11.117159423828125,0.024505615234375,0.6783447265625,-0.7667388916015625
1780625521711188200,11.127188232421876,-0.0005035400390625,0.7706451416015625,-0.77020263671875
1780625521721218300,11.13721826171875,-0.045074462890625,0.8292999267578125,-0.7389984130859375
1780625521731247400,11.147247314453125,-0.089141845703125,0.8230133056640625,-0.6788482666015625
1780625521741277400,11.15727734375,-0.1170806884765625,0.78070068359375,-0.6097259521484375
1780625521751306200,11.16730615234375,-0.11181640625,0.744293212890625,-0.561553955078125
1780625521761336300,11.17733642578125,-0.0913543701171875,0.724395751953125,-0.5324554443359375
1780625521771366400,11.187366455078125,-0.074981689453125,0.72222900390625,-0.5408172607421875
1780625521781395500,11.1973955078125,-0.04913330078125,0.7306976318359375,-0.5727691650390625
1780625521791425500,11.207425537109375,-0.0352325439453125,0.730499267578125,-0.608245849609375
1780625521801454300,11.217454345703125,-0.0402374267578125,0.705474853515625,-0.6310272216796875
1780625521811484400,11.227484375,-0.0384674072265625,0.67950439453125,-0.62933349609375
1780625521821513500,11.237513427734376,-0.0470733642578125,0.6638641357421875,-0.6242523193359375
1780625521831543600,11.24754345703125,-0.038238525390625,0.6912689208984375,-0.6295318603515625
1780625521841572400,11.257572265625,-0.031829833984375,0.723358154296875,-0.656097412109375
1780625521851602400,11.2676025390625,-0.065277099609375,0.7328948974609375,-0.677520751953125
1780625521861631500,11.277631591796874,-0.0722198486328125,0.72442626953125,-0.67681884765625
1780625521871661300,11.287661376953125,-0.064605712890625,0.6984100341796875,-0.6576995849609375
1780625521881690400,11.2976904296875,-0.042022705078125,0.680572509765625,-0.6368560791015625
1780625521891720200,11.30772021484375,-0.056549072265625,0.673187255859375,-0.6315155029296875
1780625521901749200,11.317749267578124,-0.082916259765625,0.6971282958984375,-0.633544921875
1780625521911779300,11.327779296875,-0.119110107421875,0.761962890625,-0.646881103515625
1780625521921808400,11.337808349609375,-0.1509857177734375,0.8393707275390625,-0.6630401611328125
1780625521931838200,11.347838134765626,-0.1717987060546875,0.8937835693359375,-0.679931640625
1780625521941867300,11.3578671875,-0.1807403564453125,0.919281005859375,-0.6994476318359375
1780625521951897300,11.3678974609375,-0.1695404052734375,0.895477294921875,-0.710906982421875
1780625521961926400,11.377926513671875,-0.1910552978515625,0.828765869140625,-0.6981201171875
1780625521971956500,11.38795654296875,-0.2050323486328125,0.7578887939453125,-0.67529296875
1780625521981986300,11.397986328125,-0.2005462646484375,0.732177734375,-0.6696014404296875
1780625521992015400,11.408015380859375,-0.206085205078125,0.7614593505859375,-0.6927642822265625
1780625522002045400,11.41804541015625,-0.256866455078125,0.8077392578125,-0.735931396484375
1780625522012074500,11.428074462890624,-0.3179473876953125,0.8764495849609375,-0.7791748046875
1780625522022104300,11.438104248046875,-0.3857269287109375,0.93017578125,-0.8163909912109375
1780625522032133400,11.44813330078125,-0.4594573974609375,0.9449462890625,-0.846466064453125
1780625522042163500,11.45816357421875,-0.4793243408203125,0.995574951171875,-0.8853302001953125
1780625522052192500,11.468192626953124,-0.462371826171875,1.105743408203125,-0.9298553466796875
1780625522062222600,11.47822265625,-0.474761962890625,1.209686279296875,-0.992034912109375
1780625522072251400,11.48825146484375,-0.485137939453125,1.298736572265625,-1.0586700439453125
1780625522082281500,11.498281494140626,-0.512847900390625,1.3851165771484375,-1.103302001953125
1780625522092310300,11.508310302734374,-0.5558319091796875,1.3907470703125,-1.12054443359375
1780625522102340000,11.518340087890625,-0.576507568359375,1.385040283203125,-1.068756103515625
1780625522112369400,11.528369384765625,-0.617828369140625,1.305419921875,-0.942596435546875
1780625522122399200,11.538399169921876,-0.507843017578125,1.0586090087890625,-0.78082275390625
1780625522132428300,11.54842822265625,-0.3177490234375,0.840545654296875,-0.6201629638671875
1780625522142458000,11.5584580078125,-0.1193389892578125,0.6613922119140625,-0.5133819580078125
1780625522152487200,11.568487060546875,0.0898284912109375,0.605712890625,-0.380706787109375
1780625522162517200,11.578517333984376,0.2673797607421875,0.467498779296875,-0.266265869140625
1780625522172547300,11.58854736328125,0.4298858642578125,0.110931396484375,-0.0590667724609375
1780625522182576000,11.598576171875,0.58404541015625,-0.378204345703125,0.3572235107421875
1780625522192606200,11.608606201171876,0.7509307861328125,-0.6789398193359375,0.56207275390625
1780625522202635300,11.61863525390625,0.65625,-0.303070068359375,0.1879425048828125
1780625522212665300,11.628665283203125,0.178863525390625,0.1981964111328125,-0.30389404296875
1780625522222694100,11.638694091796875,-0.1667022705078125,0.3686065673828125,-0.541778564453125
1780625522232724200,11.64872412109375,-0.26324462890625,0.45452880859375,-0.588043212890625
1780625522242753300,11.658753173828124,-0.2880859375,0.4795684814453125,-0.507568359375
1780625522252783400,11.668783447265625,-0.2575531005859375,0.462799072265625,-0.380035400390625
1780625522262812200,11.678812255859375,-0.18341064453125,0.5621795654296875,-0.3293914794921875
1780625522272842200,11.68884228515625,-0.1383056640625,0.79608154296875,-0.36090087890625
1780625522282871300,11.698871337890624,-0.0996856689453125,0.9439239501953125,-0.4069061279296875
1780625522292901400,11.7089013671875,-0.0431671142578125,0.9671783447265625,-0.444000244140625
1780625522302930400,11.718930419921875,-0.0222930908203125,0.9113311767578125,-0.4668121337890625
1780625522312960300,11.728960205078126,-0.073394775390625,0.731170654296875,-0.5100860595703125
1780625522322989300,11.7389892578125,-0.12335205078125,0.606597900390625,-0.6557769775390625
1780625522333019100,11.74901904296875,-0.187652587890625,0.582611083984375,-0.7551116943359375
1780625522343048400,11.75904833984375,-0.208160400390625,0.46746826171875,-0.74639892578125
1780625522353078300,11.769078369140624,-0.17498779296875,0.422821044921875,-0.78729248046875
1780625522363108000,11.779108154296875,-0.1643524169921875,0.5999298095703125,-0.8007659912109375
1780625522373137200,11.78913720703125,-0.1596832275390625,0.6143341064453125,-0.6870269775390625
1780625522383167200,11.799167236328126,-0.1809234619140625,0.45135498046875,-0.60382080078125
1780625522393196300,11.8091962890625,-0.174530029296875,0.439971923828125,-0.617645263671875
1780625522403226000,11.81922607421875,-0.1397857666015625,0.45831298828125,-0.6295166015625
1780625522413255200,11.829255126953125,-0.0554656982421875,0.4492645263671875,-0.6247100830078125
1780625522423285200,11.83928515625,-0.0502777099609375,0.3463897705078125,-0.6921234130859375
1780625522433314300,11.849314208984374,-0.1062164306640625,0.22015380859375,-0.7855682373046875
1780625522443344400,11.859344482421875,-0.117279052734375,0.129302978515625,-0.846466064453125
1780625522453373200,11.869373291015625,0.044189453125,0.20648193359375,-0.942535400390625
1780625522463403300,11.8794033203125,0.186248779296875,0.28692626953125,-0.966461181640625
1780625522473432300,11.889432373046875,0.198089599609375,0.154083251953125,-0.749114990234375
1780625522483462400,11.89946240234375,0.1694793701171875,0.06494140625,-0.405670166015625
1780625522493491200,11.9094912109375,0.0800323486328125,0.071197509765625,-0.2375335693359375
1780625522503521300,11.919521240234374,-0.017730712890625,0.097442626953125,-0.3806304931640625
1780625522513550300,11.92955029296875,0.0969696044921875,0.4730682373046875,-0.671783447265625
1780625522523580400,11.939580322265625,0.1584930419921875,0.951141357421875,-0.824615478515625
1780625522533609200,11.949609130859375,-0.067138671875,0.814422607421875,-0.9113006591796875
1780625522543639300,11.959639404296874,-0.1917572021484375,0.4493560791015625,-0.8223419189453125
1780625522553668400,11.96966845703125,-0.091217041015625,0.274658203125,-0.759490966796875
1780625522563698200,11.9796982421875,0.014984130859375,0.242828369140625,-0.9046173095703125
1780625522573728300,11.989728271484376,0.1029815673828125,0.40576171875,-1.0569915771484375
1780625522583757000,11.999757080078124,0.152130126953125,0.503662109375,-1.07183837890625
1780625522593787100,12.009787109375,0.1704559326171875,0.3071441650390625,-1.0095672607421875
1780625522603816200,12.019816162109375,0.214447021484375,0.2198333740234375,-1.0284881591796875
1780625522613846300,12.02984619140625,0.1352691650390625,0.322723388671875,-1.0593109130859375
1780625522623875000,12.039875,0.0234222412109375,0.393463134765625,-1.1209564208984375
1780625522633905200,12.0499052734375,-0.0283050537109375,0.4451751708984375,-1.23760986328125
1780625522643934200,12.059934326171875,0.01177978515625,0.52423095703125,-1.3381195068359375
1780625522653964300,12.06996435546875,0.0864715576171875,0.56988525390625,-1.38726806640625
1780625522663993300,12.079993408203125,0.23046875,0.5678253173828125,-1.3654632568359375
1780625522674023200,12.090023193359375,0.3377532958984375,0.4197540283203125,-1.25946044921875
1780625522684052200,12.10005224609375,0.32147216796875,0.1791839599609375,-1.1310272216796875
1780625522694082300,12.110082275390624,0.3173828125,0.06549072265625,-1.1209716796875
1780625522704111400,12.120111328125,0.2745208740234375,0.1203460693359375,-1.143585205078125
1780625522714141200,12.13014111328125,0.2600250244140625,0.213592529296875,-1.1994476318359375
1780625522724170200,12.140170166015626,0.3012847900390625,0.3529052734375,-1.2780303955078125
1780625522734200300,12.150200439453124,0.3680572509765625,0.5049896240234375,-1.347869873046875
1780625522744229400,12.1602294921875,0.386383056640625,0.6033172607421875,-1.369903564453125
1780625522754259500,12.170259521484375,0.356536865234375,0.55401611328125,-1.332916259765625
1780625522764289000,12.1802890625,0.302581787109375,0.3881683349609375,-1.205291748046875
1780625522774318300,12.190318359375,0.2962188720703125,0.2126617431640625,-1.0173797607421875
1780625522784348200,12.20034814453125,0.338592529296875,0.0937652587890625,-0.8873748779296875
1780625522794377200,12.210377197265625,0.350982666015625,0.0595245361328125,-0.8367767333984375
1780625522804407300,12.2204072265625,0.3649444580078125,0.03741455078125,-0.8712005615234375
1780625522814436000,12.23043603515625,0.36676025390625,0.0285491943359375,-0.9453125
1780625522824466200,12.240466064453125,0.3573150634765625,0.0414276123046875,-1.0161590576171875
1780625522834495200,12.2504951171875,0.3374786376953125,0.060272216796875,-1.0501556396484375
1780625522844525300,12.260525390625,0.3283233642578125,0.0535736083984375,-1.0296630859375
1780625522854554000,12.27055419921875,0.333465576171875,0.0334625244140625,-0.9583892822265625
1780625522864584200,12.280584228515625,0.3214874267578125,0.010223388671875,-0.88250732421875
1780625522874613200,12.29061328125,0.3062896728515625,-0.009857177734375,-0.8368682861328125
1780625522884643300,12.300643310546874,0.287872314453125,-0.0160980224609375,-0.809783935546875
1780625522894672100,12.310672119140625,0.2749786376953125,-0.0269775390625,-0.8066253662109375
1780625522904702200,12.3207021484375,0.265777587890625,-0.0424346923828125,-0.8260498046875
1780625522914731300,12.330731201171876,0.2534942626953125,-0.0761871337890625,-0.8709869384765625
1780625522924761300,12.34076123046875,0.24066162109375,-0.071075439453125,-0.947540283203125
1780625522934790100,12.3507900390625,0.2635955810546875,0.03997802734375,-1.0045928955078125
1780625522944820200,12.3608203125,0.3048095703125,0.16204833984375,-1.0355987548828125
1780625522954849300,12.370849365234376,0.342132568359375,0.2181854248046875,-1.0524444580078125
1780625522964879400,12.38087939453125,0.3717041015625,0.228363037109375,-1.0737762451171875
1780625522974909200,12.3909091796875,0.376953125,0.202545166015625,-1.1200714111328125
1780625522984938200,12.400938232421876,0.3478851318359375,0.1352691650390625,-1.1805267333984375
1780625522994968000,12.410968017578124,0.3367462158203125,0.0747222900390625,-1.2357177734375
1780625523004997400,12.420997314453125,0.36639404296875,0.0659332275390625,-1.29058837890625
1780625523015027200,12.431027099609375,0.373626708984375,0.0807342529296875,-1.330596923828125
1780625523025056300,12.44105615234375,0.3642120361328125,0.1081085205078125,-1.3393402099609375
1780625523035086000,12.451086181640624,0.37628173828125,0.152740478515625,-1.31231689453125
1780625523045115100,12.461115234375,0.3781585693359375,0.224212646484375,-1.2585906982421875
1780625523055145200,12.471145263671875,0.3873138427734375,0.258941650390625,-1.18017578125
1780625523065174300,12.48117431640625,0.38140869140625,0.223968505859375,-1.0988922119140625
1780625523075204000,12.4912041015625,0.340179443359375,0.1147308349609375,-1.0279998779296875
1780625523085233200,12.501233154296875,0.31964111328125,-0.0276336669921875,-0.97393798828125
1780625523095263200,12.51126318359375,0.3495025634765625,-0.151031494140625,-0.983612060546875
1780625523105292000,12.5212919921875,0.3795928955078125,-0.2139129638671875,-1.0649871826171875
1780625523115322000,12.531322021484375,0.4044342041015625,-0.20794677734375,-1.1795501708984375
1780625523125351200,12.54135107421875,0.4225006103515625,-0.1598663330078125,-1.27838134765625
1780625523135381200,12.55138134765625,0.4486083984375,-0.09564208984375,-1.3508453369140625
1780625523145410000,12.56141015625,0.47906494140625,-0.01141357421875,-1.38262939453125
1780625523155440000,12.571440185546875,0.5219268798828125,0.072174072265625,-1.37750244140625
1780625523165470200,12.58147021484375,0.5456390380859375,0.146270751953125,-1.3464202880859375
1780625523175499300,12.591499267578126,0.5486602783203125,0.206298828125,-1.299774169921875
1780625523185529300,12.601529296875,0.5278167724609375,0.2504119873046875,-1.2147369384765625
1780625523195558100,12.61155810546875,0.495086669921875,0.232513427734375,-1.1003570556640625
1780625523205588200,12.621588134765625,0.4661712646484375,0.0775146484375,-0.95526123046875
1780625523215617300,12.6316171875,0.3943634033203125,-0.1653900146484375,-0.7694854736328125
1780625523225647000,12.641647216796875,0.3671112060546875,-0.365234375,-0.5942230224609375
1780625523235676200,12.65167626953125,0.36346435546875,-0.425445556640625,-0.4479522705078125
1780625523245706000,12.6617060546875,0.3292236328125,-0.4095001220703125,-0.3481903076171875
1780625523255735000,12.671735107421876,0.2413330078125,-0.3772125244140625,-0.27813720703125
1780625523265765000,12.68176513671875,0.1411590576171875,-0.3207244873046875,-0.23834228515625
1780625523275794200,12.691794189453125,0.1049346923828125,-0.2512054443359375,-0.2032012939453125
1780625523285824000,12.701823974609376,0.086669921875,-0.1931610107421875,-0.16259765625
1780625523295853000,12.71185302734375,0.0698394775390625,-0.1790313720703125,-0.12945556640625
1780625523305883100,12.721883056640625,0.0890960693359375,-0.1592864990234375,-0.1497802734375
1780625523315912200,12.731912109375,0.1194305419921875,-0.1421966552734375,-0.2486419677734375
1780625523325942300,12.7419423828125,0.1909637451171875,-0.121917724609375,-0.3642425537109375
1780625523335971000,12.75197119140625,0.3336944580078125,-0.0529937744140625,-0.51531982421875
1780625523346001200,12.762001220703125,0.4669189453125,0.077423095703125,-0.69720458984375
1780625523356030200,12.7720302734375,0.53533935546875,0.2300567626953125,-0.83111572265625
1780625523366060300,12.782060302734376,0.554229736328125,0.2331390380859375,-0.9012451171875
1780625523376090000,12.792090087890625,0.48052978515625,0.056243896484375,-0.8685302734375
1780625523386119200,12.802119140625,0.42401123046875,-0.184051513671875,-0.739715576171875
1780625523396149200,12.812149169921875,0.4066619873046875,-0.3631134033203125,-0.6162109375
1780625523406178300,12.82217822265625,0.4139556884765625,-0.4205474853515625,-0.530487060546875
1780625523416208400,12.83220849609375,0.42529296875,-0.3629608154296875,-0.503662109375
1780625523426237200,12.8422373046875,0.436431884765625,-0.2381591796875,-0.5182647705078125
1780625523436267300,12.852267333984376,0.370147705078125,-0.150543212890625,-0.5889892578125
1780625523446296300,12.86229638671875,0.3618011474609375,-0.093597412109375,-0.7030487060546875
1780625523456326100,12.872326171875,0.3791046142578125,-0.020721435546875,-0.7888946533203125
1780625523466355200,12.882355224609375,0.375091552734375,-0.0000152587890625,-0.7965240478515625
1780625523476385000,12.892385009765626,0.3603973388671875,-0.08624267578125,-0.734527587890625
1780625523486414000,12.9024140625,0.3721160888671875,-0.1651611328125,-0.6446075439453125
1780625523496444200,12.912444091796875,0.4113922119140625,-0.2075958251953125,-0.5718536376953125
1780625523506473000,12.922472900390625,0.4210662841796875,-0.212646484375,-0.522491455078125
1780625523516503000,12.9325029296875,0.428009033203125,-0.179168701171875,-0.5293121337890625
1780625523526532000,12.942531982421874,0.429931640625,-0.1171875,-0.61126708984375
1780625523536562200,12.952562255859375,0.42669677734375,-0.0450592041015625,-0.725555419921875
1780625523546591200,12.96259130859375,0.4142608642578125,-0.00347900390625,-0.7884674072265625
1780625523556621000,12.97262109375,0.375274658203125,-0.0533905029296875,-0.7906494140625
1780625523566651100,12.982651123046875,0.3819580078125,-0.148651123046875,-0.7663421630859375
1780625523576680200,12.99268017578125,0.4150848388671875,-0.214080810546875,-0.734527587890625
1780625523586710300,13.002710205078126,0.44256591796875,-0.25933837890625,-0.7058563232421875
1780625523596739000,13.012739013671874,0.4778289794921875,-0.243011474609375,-0.6902923583984375
1780625523606769200,13.02276904296875,0.5266265869140625,-0.1774444580078125,-0.719451904296875
1780625523616798200,13.032798095703125,0.621337890625,-0.0910797119140625,-0.8157806396484375
1780625523626828300,13.042828369140626,0.65399169921875,0.0075836181640625,-0.90850830078125
1780625523636857300,13.052857421875,0.618255615234375,0.036651611328125,-0.8990631103515625
1780625523646887200,13.06288720703125,0.667816162109375,0.0113983154296875,-0.84490966796875
