time,seconds_elapsed,z,y,x
1780625510654911200,0.0709111328125,-0.3542522192001343,-0.22802399098873138,-0.13566894829273224
1780625510664940300,0.080940185546875,-0.37628668546676636,-0.08962137997150421,-0.41506409645080566
1780625510674970000,0.09097021484375,-0.30581557750701904,0.09463989734649658,-0.7053439021110535
1780625510684999200,0.100999267578125,-0.1755574494600296,0.35364165902137756,-0.852563738822937
1780625510695029200,0.111029296875,0.036879975348711014,0.7227776646614075,-0.9282054901123047
1780625510705058300,0.121058349609375,0.3798317611217499,1.3257825374603271,-1.1132686138153076
1780625510715088100,0.131088134765625,0.7081701755523682,1.922616720199585,-1.224425196647644
1780625510725117200,0.1411171875,0.8250294327735901,2.082934617996216,-1.142320156097412
1780625510735147300,0.151147216796875,0.7071993350982666,1.7451164722442627,-1.0073299407958984
1780625510745176300,0.16117626953125,0.46257227659225464,1.1452209949493408,-0.8501712083816528
1780625510755206400,0.171206298828125,0.1905442327260971,0.470878928899765,-0.6547257304191589
1780625510765235200,0.181235107421875,-0.02522481046617031,-0.08890313655138016,-0.4143823981285095
1780625510775265300,0.191265380859375,-0.13406874239444733,-0.42009299993515015,-0.15793362259864807
1780625510785294300,0.20129443359375,-0.13193874061107635,-0.4663164019584656,0.07997321337461472
1780625510795323100,0.2113232421875,-0.07301070541143417,-0.33769291639328003,0.3523869216442108
1780625510805353200,0.221353271484375,-0.04139925539493561,-0.14636477828025818,0.6747087240219116
1780625510815382300,0.23138232421875,-0.11006394028663635,0.052041035145521164,1.0128854513168335
1780625510825412400,0.241412353515625,-0.2676945626735687,0.17687857151031494,1.2995209693908691
1780625510835441400,0.25144140625,-0.4277348220348358,0.18853549659252167,1.4890482425689697
1780625510845471200,0.26147119140625,-0.5158129930496216,0.05239071696996689,1.5429322719573975
1780625510855500300,0.271500244140625,-0.5433074235916138,-0.1203821673989296,1.4729928970336914
1780625510865530400,0.2815302734375,-0.5470643043518066,-0.2423221915960312,1.299229383468628
1780625510875559400,0.291559326171875,-0.5087134838104248,-0.2863752841949463,1.0671966075897217
1780625510885589200,0.30158935546875,-0.42400842905044556,-0.3111110031604767,0.8134066462516785
1780625510895618300,0.311618408203125,-0.3181987702846527,-0.19250719249248505,0.6292858123779297
1780625510905648000,0.321648193359375,-0.22578388452529907,0.12547796964645386,0.5687609314918518
1780625510915677200,0.33167724609375,-0.19439001381397247,0.40459418296813965,0.56966632604599
1780625510925706200,0.341706298828125,-0.25611382722854614,0.4554451107978821,0.5820726752281189
1780625510935736000,0.351736083984375,-0.3818616271018982,0.26941031217575073,0.5962505340576172
1780625510945765400,0.361765380859375,-0.5192325711250305,-0.10317126661539078,0.6129022240638733
1780625510955795200,0.371795166015625,-0.6432368159294128,-0.4895753562450409,0.6331860423088074
1780625510965824300,0.38182421875,-0.7550815939903259,-0.6960281133651733,0.6183314323425293
1780625510975854000,0.39185400390625,-0.8130719065666199,-0.6976080536842346,0.5562291145324707
1780625510985883100,0.401883056640625,-0.7352149486541748,-0.5135146379470825,0.4878208041191101
1780625510995913200,0.411913330078125,-0.47372230887413025,-0.1910017728805542,0.4114322066307068
1780625511005942300,0.4219423828125,-0.08985533565282822,0.10968747735023499,0.31387394666671753
1780625511015972000,0.43197216796875,0.18287885189056396,0.37791502475738525,0.2162252962589264
1780625511026001200,0.442001220703125,0.2309318631887436,0.4224156439304352,0.10155117511749268
1780625511036031200,0.45203125,0.16887062788009644,0.268799751996994,0.037208206951618195
1780625511046060300,0.462060302734375,0.07694630324840546,0.021511135622859,0.05318184569478035
1780625511056089000,0.472089111328125,-0.03780718892812729,-0.28999534249305725,0.10087098181247711
1780625511066119200,0.482119140625,-0.15552476048469543,-0.5761101841926575,0.11729630082845688
1780625511076148200,0.492148193359375,-0.21926352381706238,-0.719414472579956,0.09604150056838989
1780625511086178300,0.50217822265625,-0.18759986758232117,-0.7542283535003662,0.052855681627988815
1780625511096207400,0.512207275390625,-0.07504136115312576,-0.7212716937065125,0.02298000268638134
1780625511106237400,0.522237548828125,0.08371791988611221,-0.5639829635620117,0.012877833098173141
1780625511116266500,0.5322666015625,0.1686478555202484,-0.3094749450683594,0.0164061076939106
1780625511126296600,0.542296630859375,0.14477208256721497,-0.0487259179353714,0.02111377753317356
1780625511136325400,0.552325439453125,0.06873176991939545,0.1554553508758545,0.0032759872265160084
1780625511146355500,0.56235546875,-0.0007855186704546213,0.23112322390079498,-0.025618776679039
1780625511156384500,0.572384521484375,-0.02402532659471035,0.1834726184606552,-0.04214717075228691
1780625511166414600,0.58241455078125,0.0022116024047136307,-0.031159240752458572,-0.04286622256040573
1780625511176443400,0.592443359375,0.060193147510290146,-0.36498281359672546,-0.016090767458081245
1780625511186473500,0.602473388671875,0.12936662137508392,-0.7941213846206665,0.04604770243167877
1780625511196502500,0.61250244140625,0.19240564107894897,-1.1842329502105713,0.1501210629940033
1780625511206531600,0.622531494140625,0.2564336359500885,-1.4043309688568115,0.16879089176654816
1780625511216561400,0.6325615234375,0.3688601553440094,-1.3771147727966309,0.08172442018985748
1780625511226590500,0.642590576171875,0.5534073710441589,-1.1298431158065796,-0.10066642612218857
1780625511236620500,0.65262060546875,0.731269121170044,-0.8629482984542847,-0.3550044298171997
1780625511246649600,0.662649658203125,0.7902706861495972,-0.5283743143081665,-0.6738535165786743
1780625511256679400,0.672679443359375,0.76991868019104,-0.3828466534614563,-0.9412588477134705
1780625511266708500,0.68270849609375,0.7576870322227478,-0.5029741525650024,-1.0960012674331665
1780625511276738300,0.69273828125,0.8224908709526062,-0.801469087600708,-1.0498688220977783
1780625511286767400,0.702767333984375,0.9847418665885925,-0.9671669602394104,-0.753764271736145
1780625511296797400,0.71279736328125,1.1768475770950317,-1.0794543027877808,-0.3033604919910431
1780625511306826200,0.722826171875,1.2681889533996582,-1.2716470956802368,0.15277507901191711
1780625511316856300,0.732856201171875,1.2655590772628784,-1.5799078941345215,0.47042593359947205
1780625511326885400,0.742885498046875,1.2845982313156128,-1.9407933950424194,0.5720638632774353
1780625511336915500,0.75291552734375,1.4505250453948975,-2.3015589714050293,0.4877640902996063
1780625511346944300,0.7629443359375,1.725890040397644,-2.6424782276153564,0.2991710305213928
1780625511356973300,0.772973388671875,2.0286865234375,-2.8093643188476562,0.06109371408820152
1780625511367003400,0.78300341796875,2.211691379547119,-2.5888612270355225,-0.2830716669559479
1780625511377032400,0.793032470703125,2.284259557723999,-2.2539446353912354,-0.7050917744636536
1780625511387062300,0.803062255859375,2.34895920753479,-1.954043984413147,-1.0701158046722412
1780625511397091300,0.81309130859375,2.4524738788604736,-1.7256052494049072,-1.2664436101913452
1780625511407121400,0.823121337890625,2.628377914428711,-1.846350073814392,-1.226768970489502
1780625511417150500,0.833150390625,2.963146924972534,-2.449561357498169,-0.9037032723426819
1780625511427180500,0.8431806640625,3.5111653804779053,-3.4199910163879395,-0.33552825450897217
1780625511437209300,0.853209228515625,4.1555047035217285,-4.563080787658691,0.32809001207351685
1780625511447239400,0.863239501953125,4.844688892364502,-5.738916397094727,0.9416799545288086
1780625511457268500,0.8732685546875,5.558107852935791,-6.837440013885498,1.4165539741516113
1780625511467298600,0.883298583984375,6.286355972290039,-7.679239273071289,1.712136149406433
1780625511477327400,0.893327392578125,6.977107048034668,-7.883555889129639,1.8117413520812988
1780625511487357400,0.903357421875,7.669577598571777,-7.437772274017334,1.7693837881088257
1780625511497386500,0.913386474609375,8.299612045288086,-6.747005462646484,1.697189211845398
1780625511507416600,0.92341650390625,8.806074142456055,-6.2529096603393555,1.788118839263916
1780625511517445400,0.9334453125,9.275522232055664,-5.930787563323975,2.229264736175537
1780625511527475500,0.943475341796875,9.645071983337402,-5.711589813232422,3.022167921066284
1780625511537504500,0.95350439453125,9.846024513244629,-5.545078277587891,3.9703314304351807
1780625511547533600,0.963533447265625,9.879764556884766,-5.368183612823486,4.82662296295166
1780625511557563400,0.9735634765625,9.658682823181152,-4.9730000495910645,5.447939872741699
1780625511567592400,0.983592529296875,9.131014823913574,-3.9459822177886963,5.75692081451416
1780625511577622500,0.99362255859375,8.243630409240723,-2.1610193252563477,5.710735321044922
1780625511587651600,1.003651611328125,7.093893527984619,-0.11804944276809692,5.376315593719482
1780625511597681400,1.013681396484375,5.803518295288086,1.632275938987732,4.872350215911865
1780625511607710500,1.02371044921875,4.422332763671875,2.8971924781799316,4.544280529022217
1780625511617740300,1.033740234375,3.067847967147827,3.655648946762085,4.407619476318359
1780625511627769300,1.043769287109375,1.8757784366607666,3.940638780593872,4.293064117431641
1780625511637799400,1.05379931640625,0.863695502281189,3.9285786151885986,4.03788423538208
1780625511647828200,1.063828125,0.1314406841993332,3.7414231300354004,3.6447408199310303
1780625511657858300,1.0738583984375,-0.3721042275428772,3.373392105102539,3.2648909091949463
1780625511667887400,1.083887451171875,-0.8014978766441345,2.753182888031006,3.0065808296203613
1780625511677917400,1.09391748046875,-1.1773395538330078,1.9064531326293945,2.7833516597747803
1780625511687946200,1.1039462890625,-1.441290020942688,1.139804482460022,2.3989171981811523
1780625511697976300,1.113976318359375,-1.7063621282577515,0.6865233778953552,1.6560062170028687
1780625511708005400,1.12400537109375,-2.192796230316162,0.2462916523218155,0.8242495059967041
1780625511718034400,1.134034423828125,-2.682997941970825,0.12162301689386368,-0.3306838274002075
1780625511728064300,1.144064208984375,-3.207627773284912,0.37692028284072876,-1.3962217569351196
1780625511738093300,1.15409326171875,-3.78361439704895,0.5517749190330505,-1.8503743410110474
1780625511748123400,1.164123291015625,-4.242275238037109,0.6309595108032227,-2.0008280277252197
1780625511758152400,1.17415234375,-4.4878973960876465,0.8904427289962769,-2.169867992401123
1780625511768182500,1.1841826171875,-4.493259429931641,0.7698286771774292,-2.4044880867004395
1780625511778211300,1.19421142578125,-4.270617485046387,0.40340837836265564,-2.516367197036743
1780625511788241400,1.204241455078125,-3.8363759517669678,-0.0162820965051651,-2.626919984817505
1780625511798270500,1.2142705078125,-3.168799638748169,-0.36214038729667664,-2.7050387859344482
1780625511808300500,1.224300537109375,-2.5791518688201904,-0.9540619850158691,-2.7747881412506104
1780625511818329300,1.234329345703125,-2.1308817863464355,-1.5216752290725708,-2.794264793395996
1780625511828359400,1.244359375,-1.720465898513794,-1.8354121446609497,-2.676725387573242
1780625511838388500,1.254388427734375,-1.2933937311172485,-1.5906745195388794,-2.5785326957702637
1780625511848418600,1.26441845703125,-0.8837777376174927,-0.9784998297691345,-2.521352529525757
1780625511858447400,1.274447265625,-0.5859615802764893,-0.29174333810806274,-2.2926971912384033
1780625511868477400,1.2844775390625,-0.3849557936191559,0.14033858478069305,-2.133514165878296
1780625511878506500,1.294506591796875,-0.28120237588882446,0.2699260413646698,-2.2896299362182617
1780625511888536600,1.30453662109375,-0.3027327060699463,-0.027739211916923523,-2.4195945262908936
1780625511898565600,1.314565673828125,-0.4000898599624634,-0.590762734413147,-2.4012975692749023
1780625511908595200,1.32459521484375,-0.5331190228462219,-1.3899132013320923,-2.389176368713379
1780625511918624500,1.33462451171875,-0.5131521224975586,-2.329517364501953,-2.508620262145996
1780625511928653600,1.344653564453125,0.08234506100416183,-2.8960165977478027,-2.6656136512756348
1780625511938683400,1.354683349609375,0.8018153309822083,-2.6663787364959717,-2.8217408657073975
1780625511948712400,1.36471240234375,1.1056618690490723,-1.7754225730895996,-2.9463679790496826
1780625511958742300,1.3747421875,0.7880433201789856,-0.5945568680763245,-2.8568902015686035
1780625511968771600,1.384771484375,0.3484356105327606,0.38967472314834595,-2.723055124282837
1780625511978801400,1.394801513671875,0.02668485976755619,0.9956923723220825,-2.5565497875213623
1780625511988830200,1.404830322265625,-0.0013704771408811212,0.9278699159622192,-2.3889997005462646
1780625511998860300,1.4148603515625,0.2331915646791458,0.27486929297447205,-2.040431261062622
1780625512008889300,1.424889404296875,0.556837260723114,-0.48624348640441895,-1.4985077381134033
1780625512018919400,1.43491943359375,0.6481574773788452,-1.2239329814910889,-0.937468945980072
1780625512028948200,1.4449482421875,0.3979295492172241,-1.6300016641616821,-0.4048660099506378
1780625512038978300,1.454978271484375,0.16180819272994995,-1.735790491104126,0.10024029016494751
1780625512049007400,1.46500732421875,0.5067676901817322,-2.33935546875,0.5467029809951782
1780625512059037400,1.475037353515625,1.5602253675460815,-3.4877841472625732,0.6076273322105408
1780625512069066500,1.48506640625,2.8621034622192383,-4.415250778198242,0.5612726211547852
1780625512079096300,1.495096435546875,4.031554222106934,-4.442907810211182,0.6953451633453369
1780625512089126000,1.5051259765625,5.289750099182129,-3.927337884902954,0.9212467670440674
1780625512099156000,1.515156005859375,5.432755947113037,-2.9813578128814697,1.207634449005127
1780625512109185000,1.52518505859375,5.432668685913086,-2.191777467727661,2.010617971420288
1780625512119214800,1.53521484375,4.756722450256348,-1.3391386270523071,2.815559148788452
1780625512129244000,1.545243896484375,4.150519847869873,-0.15096043050289154,3.2221086025238037
1780625512139274000,1.55527392578125,3.1214051246643066,0.8669950366020203,3.429211378097534
1780625512149303000,1.565302978515625,1.3672939538955688,1.9580844640731812,3.2147655487060547
1780625512159332900,1.575332763671875,-0.3727923631668091,2.7553257942199707,2.593979835510254
1780625512169362000,1.58536181640625,-1.8078564405441284,2.747584342956543,1.7678691148757935
1780625512179391000,1.595390869140625,-2.5894227027893066,2.874570846557617,1.1541924476623535
1780625512189421000,1.605421142578125,-2.9628186225891113,3.337610960006714,0.6555312871932983
1780625512199449900,1.615449951171875,-3.2163405418395996,3.6664681434631348,0.35251376032829285
1780625512209480000,1.62547998046875,-3.627755641937256,3.6523594856262207,0.256943017244339
1780625512219509000,1.635509033203125,-4.0272064208984375,3.620102643966675,0.03458022326231003
1780625512229538800,1.645538818359375,-4.26263952255249,3.2967050075531006,-0.29318487644195557
1780625512239568000,1.65556787109375,-4.149158477783203,2.5385570526123047,-0.3942151367664337
1780625512249597700,1.66559765625,-4.068991661071777,1.4518576860427856,-0.2723739445209503
1780625512259626800,1.675626708984375,-3.8522262573242188,0.733082115650177,-0.1297520101070404
1780625512269656800,1.68565673828125,-2.6439435482025146,0.7390403747558594,-0.8249358534812927
1780625512279686000,1.695685791015625,-1.0429673194885254,0.6591936349868774,-2.1079599857330322
1780625512289715700,1.7057158203125,-0.31822511553764343,-0.1583949327468872,-2.2298688888549805
1780625512299744800,1.715744873046875,-0.5276206731796265,-1.407499074935913,-1.3638598918914795
1780625512309774800,1.72577490234375,-0.8611384630203247,-1.501953125,-1.0052279233932495
1780625512319804000,1.735803955078125,-0.9963022470474243,-0.8005309104919434,-0.9175889492034912
1780625512329834000,1.745833984375,-0.997138500213623,-0.15701639652252197,-1.113462209701538
1780625512339862800,1.75586279296875,-0.8253326416015625,0.3981677293777466,-1.4781185388565063
1780625512349892900,1.765892822265625,-0.6469247937202454,0.4948790669441223,-1.7494910955429077
1780625512359922000,1.775921875,-0.5767617225646973,0.2728835940361023,-1.7793537378311157
1780625512369952000,1.785951904296875,-0.6206615567207336,0.03214716166257858,-1.8706035614013672
1780625512379980800,1.795980712890625,-0.6816022396087646,-0.41648757457733154,-1.9194339513778687
1780625512390011000,1.806010986328125,-0.7270171046257019,-0.5194549560546875,-1.624796986579895
1780625512400040000,1.8160400390625,-0.7343028783798218,-0.36119544506073,-1.6548725366592407
1780625512410070000,1.826070068359375,-0.5433622002601624,0.02903170697391033,-1.882025957107544
1780625512420098800,1.836098876953125,-0.37001267075538635,0.5272560119628906,-1.9378608465194702
1780625512430129000,1.84612890625,-0.359912633895874,0.9489821791648865,-1.9814176559448242
1780625512440158000,1.856157958984375,-0.4545312821865082,1.3589287996292114,-2.0680530071258545
1780625512450188000,1.86618798828125,-0.4039138853549957,2.14426326751709,-2.4345312118530273
1780625512460216800,1.876216796875,-0.3823752999305725,2.8251001834869385,-2.976107120513916
1780625512470247000,1.886246826171875,-0.6060126423835754,2.7918286323547363,-3.5333189964294434
1780625512480276000,1.89627587890625,-0.8881124258041382,2.5725834369659424,-3.6423490047454834
1780625512490305800,1.906305908203125,-1.126254916191101,1.895706295967102,-3.1118741035461426
1780625512500335000,1.916335205078125,-0.9391813278198242,0.9268752932548523,-2.077141523361206
1780625512510364000,1.926364013671875,-1.0816409587860107,0.19396591186523438,-1.0309474468231201
1780625512520393700,1.936393798828125,-1.5361634492874146,-0.04987655580043793,-0.6526362299919128
1780625512530423000,1.946423095703125,-1.8641517162322998,0.25852733850479126,-0.5383594632148743
1780625512540452900,1.956452880859375,-2.229069709777832,0.6008020639419556,-0.6915609836578369
1780625512550482000,1.96648193359375,-1.99104905128479,0.6102033257484436,-0.9786587953567505
1780625512560511700,1.97651171875,-1.3573224544525146,0.3938429653644562,-0.8325206637382507
1780625512570540800,1.986540771484375,-1.3165348768234253,-0.6164564490318298,-0.3905286490917206
1780625512580571000,1.99657080078125,-1.4835680723190308,-1.5154409408569336,0.02134646289050579
1780625512590599700,2.006599609375,-1.8226786851882935,-1.8448543548583984,0.23243020474910736
1780625512600629800,2.016629638671875,-1.715759515762329,-1.7855589389801025,0.3333301246166229
1780625512610658800,2.026658935546875,-1.1773194074630737,-1.917044997215271,0.45823532342910767
1780625512620689000,2.03668896484375,-0.35428428649902344,-2.1253933906555176,0.6185325384140015
1780625512630717700,2.0467177734375,0.5357158780097961,-2.0801401138305664,0.5399911403656006
1780625512640747800,2.056747802734375,1.3758662939071655,-1.53898024559021,-0.11761520802974701
1780625512650776800,2.06677685546875,1.972353458404541,-0.7677478194236755,-1.0417795181274414
1780625512660807000,2.076806884765625,2.3311476707458496,-0.2195454090833664,-1.6744879484176636
1780625512670836000,2.0868359375,2.5942459106445312,-0.2520884573459625,-1.8771982192993164
1780625512680865800,2.09686572265625,2.7635867595672607,-0.4958127439022064,-1.8604850769042969
1780625512690894800,2.106894775390625,2.7454655170440674,-0.4084818363189697,-1.8488608598709106
1780625512700925000,2.116925048828125,2.802997589111328,0.005155357997864485,-1.780185341835022
1780625512710954000,2.1269541015625,3.054948329925537,1.1280343532562256,-1.4028974771499634
1780625512720984000,2.136984130859375,3.326702117919922,2.272989511489868,-0.8628854155540466
1780625512731012900,2.147012939453125,3.5277762413024902,3.4682793617248535,-0.4221626818180084
1780625512741043000,2.15704296875,3.430809259414673,4.006281852722168,-0.6530160307884216
1780625512751072000,2.167072021484375,2.6962828636169434,2.620913028717041,-1.1069424152374268
1780625512761102000,2.17710205078125,1.9959794282913208,0.17192861437797546,-1.3024147748947144
1780625512771131000,2.187130859375,1.5102866888046265,-1.9383727312088013,-1.374969244003296
1780625512781160700,2.19716064453125,1.6687026023864746,-2.9622433185577393,-1.3390065431594849
1780625512791190000,2.20718994140625,1.5382729768753052,-3.287029266357422,-1.203334927558899
1780625512801219800,2.2172197265625,1.5037829875946045,-3.856043577194214,-0.8650509715080261
1780625512811249000,2.227248779296875,1.7422895431518555,-4.071414947509766,-0.5361875891685486
1780625512821278700,2.23727880859375,1.8038843870162964,-3.3975303173065186,-0.3102312982082367
1780625512831307800,2.247307861328125,2.011220693588257,-2.548887252807617,-0.1862185299396515
1780625512841337900,2.257337890625,2.1521201133728027,-2.0557894706726074,-0.06543843448162079
1780625512851366700,2.26736669921875,2.163799285888672,-2.0092573165893555,0.0934409648180008
1780625512861396700,2.277396728515625,1.9942022562026978,-2.2027769088745117,0.3240043818950653
1780625512871425800,2.28742578125,1.712421178817749,-2.3231890201568604,0.6710566282272339
1780625512881455900,2.297455810546875,1.3717204332351685,-2.3689465522766113,1.1247060298919678
1780625512891485000,2.30748486328125,1.0331767797470093,-2.4701857566833496,1.5670137405395508
1780625512901514800,2.3175146484375,0.6702556014060974,-2.7657687664031982,2.033841133117676
1780625512911543800,2.327543701171875,0.6467534899711609,-3.0594441890716553,2.472646951675415
1780625512921574000,2.337573974609375,1.4606108665466309,-3.7090845108032227,3.1056058406829834
1780625512931603000,2.34760302734375,1.9319541454315186,-4.25815486907959,4.01917028427124
1780625512941633000,2.357633056640625,2.2977492809295654,-3.8149611949920654,4.543939590454102
1780625512951661800,2.367661865234375,2.220076084136963,-2.9872853755950928,4.66209077835083
1780625512961692000,2.37769189453125,2.300868511199951,-2.594796895980835,4.569014072418213
1780625512971721000,2.387720947265625,2.7716476917266846,-1.7446223497390747,4.1158294677734375
1780625512981751000,2.3977509765625,2.7428579330444336,-0.09715123474597931,2.9306223392486572
1780625512991779800,2.40777978515625,2.5378024578094482,1.7290904521942139,1.0210213661193848
1780625513001810000,2.417809814453125,1.9526349306106567,2.0978872776031494,-0.6493667364120483
1780625513011839000,2.4278388671875,1.3361259698867798,1.2346466779708862,-1.693228840827942
1780625513021869000,2.437869140625,0.7261842489242554,0.5570403337478638,-2.117621421813965
1780625513031897900,2.44789794921875,0.4440245032310486,0.2673293948173523,-2.073082208633423
1780625513041928000,2.457927978515625,0.30974245071411133,0.3435921370983124,-1.936336636543274
1780625513051957000,2.46795703125,0.12542107701301575,0.7013593316078186,-1.9086495637893677
1780625513061986800,2.47798681640625,-0.1339040845632553,1.0105324983596802,-1.885648250579834
1780625513072016000,2.488015869140625,-0.34828829765319824,1.2700769901275635,-1.7976596355438232
1780625513082044400,2.49804443359375,-0.5344281792640686,1.4697961807250977,-1.608289361000061
1780625513092074200,2.50807421875,-0.6169278621673584,1.6728723049163818,-1.3121535778045654
1780625513102104000,2.51810400390625,-0.6378262042999268,1.832180380821228,-0.9536600112915039
1780625513112133400,2.52813330078125,-0.6103882193565369,1.8046302795410156,-0.6199150681495667
1780625513122162400,2.538162353515625,-0.5360127687454224,1.7996829748153687,-0.34864068031311035
1780625513132192300,2.548192138671875,-0.3559998869895935,1.7855093479156494,-0.21387726068496704
1780625513142221300,2.55822119140625,0.14030535519123077,1.3819899559020996,-0.3106761574745178
1780625513152251100,2.568251220703125,0.8340141177177429,0.8163476586341858,-0.4989027976989746
1780625513162280400,2.578280517578125,1.279682993888855,0.2641047239303589,-0.6502684950828552
1780625513172310300,2.588310302734375,1.1817481517791748,-0.33009791374206543,-0.9296032190322876
1780625513182339000,2.598339111328125,0.7290670275688171,-0.687804639339447,-1.1262998580932617
1780625513192369200,2.608369140625,0.35576266050338745,-0.6583801507949829,-1.060897946357727
1780625513202398200,2.618398193359375,0.15976642072200775,-0.49326083064079285,-0.7336007356643677
1780625513212428300,2.62842822265625,0.05775350704789162,-0.3112311065196991,-0.255981981754303
1780625513222457000,2.63845703125,-0.011937429197132587,-0.11789116263389587,0.24149461090564728
1780625513232487200,2.648487060546875,-0.044084180146455765,-0.07124829292297363,0.6336166262626648
1780625513242516200,2.65851611328125,0.04038528352975845,-0.16192325949668884,0.8939682245254517
1780625513252546300,2.66854638671875,-0.007792366202920675,-0.28826096653938293,1.0214450359344482
1780625513262575000,2.6785751953125,-0.03895654156804085,-0.39823728799819946,1.0816103219985962
1780625513272605200,2.688605224609375,-0.05185742676258087,-0.40235453844070435,1.162024736404419
1780625513282634200,2.69863427734375,-0.03600603714585304,-0.3029820919036865,1.216344952583313
1780625513292664300,2.708664306640625,-0.05186329782009125,-0.15502536296844482,1.2011172771453857
1780625513302693000,2.718693115234375,-0.17272993922233582,-0.04484371840953827,1.0706716775894165
1780625513312723200,2.72872314453125,-0.3249090909957886,-0.051123715937137604,0.8843491077423096
1780625513322752300,2.738752197265625,-0.3676915466785431,-0.15671998262405396,0.7045799493789673
1780625513332782300,2.7487822265625,-0.26967763900756836,-0.29581770300865173,0.5288224816322327
1780625513342811400,2.758811279296875,-0.14154013991355896,-0.31331804394721985,0.32228541374206543
1780625513352841200,2.76884130859375,-0.10484711080789566,-0.17560437321662903,0.12496409565210342
1780625513362870300,2.778870361328125,-0.15134258568286896,0.07777146995067596,-0.011612958274781704
1780625513372900400,2.788900390625,-0.19787892699241638,0.3906196653842926,-0.06753827631473541
1780625513382929400,2.798929443359375,-0.1488790214061737,0.6926796436309814,-0.018238892778754234
1780625513392959200,2.808959228515625,0.014554116874933243,0.9700904488563538,0.1184087023139
1780625513402988300,2.81898828125,0.2388283610343933,1.0384290218353271,0.267068475484848
1780625513413018000,2.82901806640625,0.34236568212509155,0.5481213927268982,0.29884690046310425
1780625513423047400,2.83904736328125,0.26788240671157837,-0.35176828503608704,0.17641881108283997
1780625513433077200,2.8490771484375,0.11116603761911392,-1.0755481719970703,0.0453830286860466
1780625513443106000,2.85910595703125,-0.006277251522988081,-1.1866886615753174,0.04915029555559158
1780625513453136100,2.86913623046875,-0.05294595658779144,-0.8671237826347351,0.17461314797401428
1780625513463165200,2.879165283203125,-0.06784525513648987,-0.46405625343322754,0.3348425626754761
1780625513473195300,2.8891953125,-0.07970670610666275,-0.19551774859428406,0.43515345454216003
1780625513483224000,2.89922412109375,-0.07703876495361328,-0.08426360040903091,0.44693976640701294
1780625513493254100,2.909254150390625,-0.08095760643482208,-0.00537730660289526,0.36096227169036865
1780625513503283200,2.919283203125,-0.09097164869308472,0.09169743210077286,0.21171198785305023
1780625513513313300,2.929313232421875,-0.07822469621896744,0.16952858865261078,0.05752028524875641
1780625513523342000,2.939342041015625,-0.012741964310407639,0.22859299182891846,-0.04700586572289467
1780625513533372200,2.9493720703125,0.09238632023334503,0.25644591450691223,-0.09293021261692047
1780625513543401200,2.959401123046875,0.18739189207553864,0.24938103556632996,-0.10497263073921204
1780625513553431300,2.969431396484375,0.22682851552963257,0.1885560303926468,-0.10847602039575577
1780625513563460400,2.97946044921875,0.21920739114284515,0.08812082558870316,-0.11844462901353836
1780625513573490200,2.989490234375,0.19697079062461853,-0.06936227530241013,-0.12777209281921387
1780625513583519200,2.999519287109375,0.19994443655014038,-0.2767714560031891,-0.1358245611190796
1780625513593549300,3.00954931640625,0.23216122388839722,-0.4649498760700226,-0.11673928052186966
1780625513603578400,3.019578369140625,0.26344621181488037,-0.6118228435516357,-0.06012570112943649
1780625513613608400,3.0296083984375,0.2803111970424652,-0.7064276337623596,0.026732230558991432
1780625513623637200,3.03963720703125,0.2650263011455536,-0.7815976142883301,0.10835768282413483
1780625513633667300,3.049667236328125,0.2535874843597412,-0.7681230902671814,0.1843283474445343
1780625513643696400,3.0596962890625,0.25728896260261536,-0.7082005739212036,0.24285125732421875
1780625513653726500,3.0697265625,0.22832071781158447,-0.6861456036567688,0.2648630738258362
1780625513663755300,3.07975537109375,0.15242533385753632,-0.6710518002510071,0.2367066591978073
1780625513673785000,3.08978515625,0.1076996698975563,-0.6834881901741028,0.19479064643383026
1780625513683814400,3.099814453125,0.09315956383943558,-0.6241514086723328,0.17872443795204163
1780625513693844200,3.10984423828125,0.11232420057058334,-0.46684008836746216,0.20726287364959717
1780625513703873300,3.119873291015625,0.14295946061611176,-0.27370336651802063,0.2693616449832916
1780625513713903000,3.129903076171875,0.18302272260189056,-0.1220986545085907,0.33511242270469666
1780625513723932200,3.13993212890625,0.20186619460582733,-0.07690348476171494,0.37182703614234924
1780625513733962200,3.149962158203125,0.1514432281255722,-0.2139236479997635,0.33751434087753296
1780625513743991000,3.159990966796875,0.03794882073998451,-0.46371084451675415,0.21819530427455902
1780625513754021000,3.170021240234375,-0.022073503583669662,-0.5423350930213928,0.11440978944301605
1780625513764050200,3.18005029296875,-0.10262292623519897,-0.5813397765159607,0.04619455337524414
1780625513774080300,3.190080322265625,-0.2667982876300812,-0.7625386118888855,-0.05376453697681427
1780625513784109300,3.200109375,-0.3838161826133728,-0.9208241701126099,-0.10622737556695938
1780625513794139100,3.21013916015625,-0.5016746520996094,-1.0729715824127197,-0.10072582215070724
1780625513804168200,3.220168212890625,-0.5456290245056152,-0.9698753952980042,-0.11216805130243301
1780625513814198300,3.2301982421875,-0.4369017481803894,-0.5133863687515259,-0.11326634138822556
1780625513824227300,3.240227294921875,-0.2769039571285248,-0.18650871515274048,-0.07288666814565659
1780625513834257400,3.25025732421875,-0.15534555912017822,-0.06550292670726776,-0.05997299402952194
1780625513844286200,3.2602861328125,-0.17137593030929565,-0.026017040014266968,-0.12710195779800415
1780625513854316300,3.27031640625,-0.27975594997406006,0.07772347331047058,-0.2345181703567505
1780625513864345300,3.280345458984375,-0.36522993445396423,0.296707421541214,-0.2648792266845703
1780625513874375400,3.29037548828125,-0.3824392855167389,0.5856444835662842,-0.20183129608631134
1780625513884404200,3.300404296875,-0.3165165185928345,0.8949737548828125,-0.07157251983880997
1780625513894434300,3.310434326171875,-0.1924302577972412,1.151093602180481,0.07682307809591293
1780625513904463400,3.32046337890625,-0.03047994151711464,1.2342299222946167,0.18389102816581726
1780625513914493400,3.330493408203125,0.12492242455482483,0.9945455193519592,0.23408229649066925
1780625513924522200,3.340522216796875,0.2429196536540985,0.6975334286689758,0.17252683639526367
1780625513934552300,3.35055224609375,0.24707765877246857,0.4031076729297638,0.03079446777701378
1780625513944581400,3.360581298828125,0.18142449855804443,0.1506364643573761,-0.03861278295516968
1780625513954611200,3.370611083984375,0.16256211698055267,0.10685249418020248,0.01438012532889843
1780625513964640300,3.38064013671875,0.1666775941848755,0.2277500331401825,0.11447440832853317
1780625513974670000,3.390670166015625,0.15276658535003662,0.2986132800579071,0.22293005883693695
1780625513984699100,3.40069921875,0.1252496987581253,0.22533129155635834,0.2998843491077423
1780625513994729200,3.410729248046875,0.0771186575293541,0.12971343100070953,0.3246980905532837
1780625514004758300,3.42075830078125,0.05676000192761421,0.046968404203653336,0.315696120262146
1780625514014788000,3.4307880859375,0.05500071868300438,-0.01488990243524313,0.28311342000961304
1780625514024817200,3.440817138671875,0.06632370501756668,-0.05882635712623596,0.23230785131454468
1780625514034847200,3.45084716796875,0.0590657964348793,-0.0713685154914856,0.17066551744937897
1780625514044876300,3.460876220703125,-0.008251768536865711,-0.10993225127458572,0.11494337022304535
1780625514054906000,3.470906005859375,-0.024290656670928,-0.18879830837249756,0.06447353214025497
1780625514064935200,3.48093505859375,0.07698651403188705,-0.31337761878967285,0.03555495664477348
1780625514074965200,3.49096533203125,0.256319522857666,-0.5468878149986267,0.0100203026086092
1780625514084994600,3.50099462890625,0.4149811565876007,-0.869924783706665,-0.03585648164153099
1780625514095024600,3.511024658203125,0.4719344675540924,-1.1709879636764526,-0.09844876080751419
1780625514105053400,3.521053466796875,0.4005199074745178,-1.273884654045105,-0.15157729387283325
1780625514115083500,3.53108349609375,0.2675003409385681,-1.0875118970870972,-0.18854409456253052
1780625514125112600,3.541112548828125,0.14938166737556458,-0.6990525126457214,-0.18307341635227203
1780625514135142700,3.551142578125,0.07926729321479797,-0.24738463759422302,-0.13618607819080353
1780625514145171500,3.56117138671875,0.03233739361166954,0.14980746805667877,-0.07766993343830109
1780625514155201500,3.571201416015625,-0.013218370266258717,0.4016175866127014,-0.008318292908370495
1780625514165230600,3.581230712890625,-0.05148722976446152,0.4819677174091339,0.041765015572309494
1780625514175260400,3.591260498046875,-0.027872715145349503,0.44092974066734314,0.08869737386703491
1780625514185289500,3.60128955078125,0.0006269868463277817,0.3903546631336212,0.12261436879634857
1780625514195319300,3.6113193359375,0.03617379441857338,0.32250264286994934,0.13540659844875336
1780625514205348600,3.6213486328125,0.07849779725074768,0.2195872813463211,0.12859149277210236
1780625514215378400,3.63137841796875,0.11674211919307709,0.11820180714130402,0.10769526660442352
1780625514225407500,3.641407470703125,0.13850122690200806,0.052320465445518494,0.07162385433912277
1780625514235437300,3.651437255859375,0.16673845052719116,0.06782965362071991,0.042222823947668076
1780625514245466400,3.66146630859375,0.19469113647937775,0.14537256956100464,0.048114318400621414
1780625514255496400,3.671496337890625,0.2247912585735321,0.230818510055542,0.06048496440052986
1780625514265525500,3.681525390625,0.24839387834072113,0.2904335558414459,0.06995504349470139
1780625514275555600,3.6915556640625,0.2276715487241745,0.25400736927986145,0.08096854388713837
1780625514285584400,3.70158447265625,0.16035501658916473,0.14574028551578522,0.08150880038738251
1780625514295614500,3.711614501953125,0.08234277367591858,0.027735356241464615,0.07713589072227478
1780625514305643500,3.7216435546875,0.0052557336166501045,-0.06212964653968811,0.09355033934116364
1780625514315673600,3.731673583984375,-0.062234360724687576,-0.13016754388809204,0.11735660582780838
1780625514325702400,3.741702392578125,-0.08409912139177322,-0.16171050071716309,0.14827702939510345
1780625514335732500,3.751732421875,-0.06220686435699463,-0.1633203774690628,0.19986751675605774
1780625514345761500,3.761761474609375,-0.07179642468690872,-0.1401486098766327,0.21819910407066345
1780625514355791600,3.77179150390625,-0.13210611045360565,-0.06732526421546936,0.17975451052188873
1780625514365820400,3.7818203125,-0.1539415866136551,0.021101653575897217,0.15018385648727417
1780625514375850500,3.7918505859375,-0.10379399359226227,0.1988855004310608,0.22428017854690552
1780625514385879600,3.801879638671875,-0.1242629662156105,0.4099113345146179,0.3026750981807709
1780625514395909600,3.81190966796875,-0.10664083063602448,0.5555164813995361,0.3975374102592468
1780625514405938400,3.8219384765625,-0.05481964349746704,0.6261480450630188,0.5124901533126831
1780625514415968500,3.831968505859375,0.06061320751905441,0.6669024229049683,0.5842240452766418
1780625514425997600,3.84199755859375,0.19891990721225739,0.6244137287139893,0.564116895198822
1780625514436027600,3.852027587890625,0.2977151870727539,0.44741150736808777,0.4587206542491913
1780625514446056700,3.862056640625,0.31908681988716125,0.18821576237678528,0.290620893239975
1780625514456086300,3.872086181640625,0.2744000554084778,-0.08862090110778809,0.08769653737545013
1780625514466115600,3.882115478515625,0.1918342411518097,-0.3055211007595062,-0.0841640904545784
1780625514476145400,3.8921455078125,0.09003224223852158,-0.3869917392730713,-0.15736453235149384
1780625514486174500,3.902174560546875,0.020566582679748535,-0.2835392653942108,-0.1014149934053421
1780625514496204500,3.91220458984375,-0.04301932081580162,-0.1170717105269432,0.04783148318529129
1780625514506233300,3.9222333984375,-0.10026778280735016,0.042335040867328644,0.2042885422706604
1780625514516263400,3.932263427734375,-0.14196595549583435,0.18337765336036682,0.29413238167762756
1780625514526292500,3.94229248046875,-0.11726170033216476,0.26081234216690063,0.30837494134902954
1780625514536322600,3.952322509765625,-0.03484458476305008,0.23818212747573853,0.2723548710346222
1780625514546351400,3.962351318359375,0.044374603778123856,0.030716296285390854,0.19683322310447693
1780625514556381400,3.97238134765625,0.08242931216955185,-0.2900739908218384,0.09246207028627396
1780625514566410500,3.982410400390625,0.12437888234853745,-0.4787335991859436,0.03329034149646759
1780625514576440600,3.992440673828125,0.17105796933174133,-0.530186653137207,0.013883622363209724
1780625514586469400,4.002469482421875,0.19499211013317108,-0.5279207825660706,0.011493287980556488
1780625514596499500,4.01249951171875,0.20098048448562622,-0.4748578369617462,0.028937257826328278
1780625514606528500,4.022528564453125,0.10997840017080307,-0.37398093938827515,0.05967968329787254
1780625514616558600,4.03255859375,-0.028222080320119858,-0.24190734326839447,0.09706061333417892
1780625514626587400,4.04258740234375,-0.1626945286989212,-0.25214746594429016,0.11891958862543106
1780625514636617500,4.052617431640625,-0.16899344325065613,-0.008691406808793545,0.1704309731721878
1780625514646646500,4.062646484375,-0.1356232762336731,0.14755108952522278,0.20854631066322327
1780625514656676600,4.072676513671875,-0.11536353826522827,0.06656541675329208,0.20139677822589874
1780625514666705700,4.08270556640625,-0.1774151772260666,-0.10938460379838943,0.11769125610589981
1780625514676735500,4.092735595703125,-0.299001544713974,-0.3489260673522949,0.010909946635365486
1780625514686764500,4.1027646484375,-0.38123250007629395,-0.46932509541511536,-0.016210945323109627
1780625514696794600,4.112794677734375,-0.48241692781448364,-0.5664035081863403,-0.049286339432001114
1780625514706823700,4.12282373046875,-0.5578649640083313,-0.6267597675323486,-0.10791049152612686
1780625514716853500,4.132853515625,-0.5270969271659851,-0.5606438517570496,-0.08310741186141968
1780625514726883300,4.14288330078125,-0.4143972396850586,-0.2392987459897995,0.055601298809051514
1780625514736912400,4.152912353515625,-0.5066342353820801,-0.044175852090120316,0.13714516162872314
1780625514746942500,4.1629423828125,-0.5386589169502258,0.04123186320066452,0.21424278616905212
1780625514756971500,4.172971435546875,-0.5106661319732666,0.2702064514160156,0.28752684593200684
1780625514767001300,4.18300146484375,-0.48914697766304016,0.4517463445663452,0.3293851315975189
1780625514777030400,4.193030517578125,-0.46513885259628296,0.4799524247646332,0.3346792459487915
1780625514787060500,4.203060546875,-0.45554760098457336,0.30253079533576965,0.31134459376335144
1780625514797089500,4.213089599609375,-0.4645618796348572,0.1099293902516365,0.269906610250473
1780625514807119600,4.22311962890625,-0.42213714122772217,0.024650460109114647,0.2557709813117981
1780625514817148400,4.2331484375,-0.34720882773399353,0.07166804373264313,0.27733832597732544
1780625514827178500,4.243178466796875,-0.32145434617996216,0.2262800931930542,0.3031424283981323
1780625514837207600,4.25320751953125,-0.3338361978530884,0.4222767651081085,0.29513803124427795
1780625514847237600,4.263237548828125,-0.35868731141090393,0.5537116527557373,0.2628091871738434
1780625514857266400,4.273266357421875,-0.3645220398902893,0.6320328116416931,0.23855896294116974
1780625514867296500,4.283296630859375,-0.3320072889328003,0.646430492401123,0.2668818533420563
1780625514877325600,4.29332568359375,-0.2820272147655487,0.48064368963241577,0.292790949344635
1780625514887355600,4.303355712890625,-0.27363264560699463,-0.010419627651572227,0.2244941145181656
1780625514897384400,4.313384521484375,-0.2784665524959564,-0.4944952428340912,0.09184791147708893
1780625514907414500,4.32341455078125,-0.2996439039707184,-0.6218568086624146,0.05345837399363518
1780625514917443600,4.333443603515625,-0.34156152606010437,-0.47407692670822144,0.12381216883659363
1780625514927473700,4.3434736328125,-0.3643176853656769,-0.2851106524467468,0.2396901398897171
1780625514937502500,4.35350244140625,-0.3568193018436432,-0.13716886937618256,0.3269251883029938
1780625514947532300,4.3635322265625,-0.32691633701324463,-0.03065560758113861,0.3336558938026428
1780625514957561600,4.3735615234375,-0.29107019305229187,0.09624587744474411,0.2623281478881836
1780625514967591400,4.38359130859375,-0.260824590921402,0.30757880210876465,0.11919593811035156
1780625514977620500,4.393620361328125,-0.24560008943080902,0.5767031908035278,-0.058544762432575226
1780625514987650300,4.403650390625,-0.264464408159256,0.725297212600708,-0.23026496171951294
1780625514997679400,4.413679443359375,-0.30579081177711487,0.6620215773582458,-0.380596399307251
1780625515007709400,4.42370947265625,-0.32642659544944763,0.3447326719760895,-0.46670714020729065
1780625515017738500,4.433738525390625,-0.2847505211830139,0.13707563281059265,-0.455589234828949
1780625515027768600,4.4437685546875,-0.28864189982414246,0.165206179022789,-0.4050804078578949
1780625515037797400,4.45379736328125,-0.30536386370658875,0.2438354641199112,-0.362408310174942
1780625515047827500,4.463827392578125,-0.3451884388923645,0.22020408511161804,-0.31843456625938416
1780625515057856500,4.4738564453125,-0.37826651334762573,0.35727593302726746,-0.28326672315597534
1780625515067886600,4.483886474609375,-0.2669781744480133,0.5345413684844971,-0.23379577696323395
1780625515077915400,4.493915283203125,-0.11029773950576782,0.4756562411785126,-0.17239126563072205
1780625515087945500,4.503945556640625,-0.008524002507328987,0.07104121893644333,-0.12346934527158737
1780625515097974500,4.513974609375,0.03779396042227745,-0.1392957717180252,-0.03650008887052536
1780625515108004600,4.524004638671875,0.12481757253408432,-0.09779103100299835,0.0737505704164505
1780625515118033400,4.534033447265625,0.2783980667591095,0.09460611641407013,0.1927984058856964
1780625515128063500,4.5440634765625,0.4168391525745392,0.23961128294467926,0.29089218378067017
1780625515138092500,4.554092529296875,0.5292311906814575,0.33229193091392517,0.32503390312194824
1780625515148122600,4.56412255859375,0.5400002002716064,0.42053213715553284,0.2606852352619171
1780625515158151400,4.5741513671875,0.5101645588874817,0.5225069522857666,0.08662129938602448
1780625515168181500,4.584181396484375,0.5735498666763306,0.4216272532939911,0.0002690795809030533
1780625515178210600,4.59421044921875,0.5273837447166443,0.33884263038635254,-0.04326881095767021
1780625515188240600,4.60424072265625,0.4204408526420593,0.07065977901220322,-0.13318902254104614
1780625515198269700,4.614269775390625,0.37638789415359497,-0.029238056391477585,-0.23255182802677155
1780625515208299500,4.624299560546875,0.3402065336704254,-0.01588156633079052,-0.29911473393440247
1780625515218328600,4.63432861328125,0.34716883301734924,-0.037153564393520355,-0.36448734998703003
1780625515228358400,4.6443583984375,0.3356994390487671,-0.13165418803691864,-0.4675544798374176
1780625515238387700,4.6543876953125,0.2897071838378906,-0.2498980164527893,-0.5875948667526245
1780625515248417500,4.66441748046875,0.27077963948249817,-0.17337600886821747,-0.6981791257858276
1780625515258446300,4.6744462890625,0.2750222980976105,0.12445647269487381,-0.7039094567298889
1780625515268476400,4.684476318359375,0.32343998551368713,0.5154316425323486,-0.5821319222450256
1780625515278505500,4.69450537109375,0.41110220551490784,0.8074507117271423,-0.43928346037864685
1780625515288535600,4.70453564453125,0.5335401892662048,0.6266303062438965,-0.4522612690925598
1780625515298564400,4.714564453125,0.5704478621482849,-0.08250370621681213,-0.6747697591781616
1780625515308594400,4.724594482421875,0.4340946078300476,-0.6451164484024048,-0.9073715806007385
1780625515318623500,4.73462353515625,0.259379506111145,-0.7268328666687012,-0.9649914503097534
1780625515328653600,4.744653564453125,0.10042201727628708,-0.5758089423179626,-0.8571563959121704
1780625515338682400,4.754682373046875,-0.011267494410276413,-0.5538498759269714,-0.654618501663208
1780625515348712400,4.76471240234375,0.018238490447402,-0.5563672780990601,-0.3801344633102417
1780625515358741500,4.774741455078125,0.04544347897171974,-0.2613246738910675,-0.2708686888217926
1780625515368771600,4.784771484375,0.11543682962656021,-0.14458297193050385,-0.35355979204177856
1780625515378800400,4.79480029296875,0.23395255208015442,-0.16903957724571228,-0.5269749760627747
1780625515388830500,4.80483056640625,0.30231305956840515,-0.11015551537275314,-0.7309641242027283
1780625515398859500,4.814859619140625,0.3258269131183624,-0.10560949891805649,-0.8431292772293091
1780625515408889600,4.8248896484375,0.42404863238334656,-0.07288676500320435,-0.8635982275009155
1780625515418918700,4.834918701171875,0.5496877431869507,-0.02827136032283306,-0.7980959415435791
1780625515428948500,4.844948486328125,0.7141028046607971,-0.004005136899650097,-0.6500678658485413
1780625515438977500,4.8549775390625,0.8088815212249756,-0.031153935939073563,-0.4504982829093933
1780625515449007600,4.865007568359375,0.8814544081687927,-0.040674783289432526,-0.2520831525325775
1780625515459036700,4.87503662109375,0.9789689779281616,-0.024986632168293,-0.07107716053724289
1780625515469066500,4.88506640625,1.1101949214935303,-0.08269777148962021,0.061288803815841675
1780625515479095600,4.895095458984375,1.2757412195205688,-0.34820374846458435,0.07982493937015533
1780625515489125400,4.90512548828125,1.4399347305297852,-0.6817617416381836,0.019976157695055008
1780625515499155500,4.915155517578125,1.5290213823318481,-0.9106021523475647,-0.0730014517903328
1780625515509184500,4.9251845703125,1.5541064739227295,-0.9356250166893005,-0.19097904860973358
1780625515519214300,4.93521435546875,1.5615686178207397,-0.7351401448249817,-0.33922019600868225
1780625515529243400,4.945243408203125,1.562239170074463,-0.49345409870147705,-0.5077918171882629
1780625515539273500,4.9552734375,1.4947341680526733,-0.2767143249511719,-0.6767690777778625
1780625515549302500,4.965302490234375,1.4003878831863403,-0.07241185754537582,-0.7962061762809753
1780625515559332600,4.97533251953125,1.2964341640472412,0.07967700809240341,-0.8770017027854919
1780625515569361400,4.985361328125,1.190555453300476,0.1422928273677826,-0.9405021667480469
1780625515579391500,4.9953916015625,1.1595957279205322,0.13496194779872894,-1.0058872699737549
1780625515589420500,5.005420654296875,1.1545439958572388,0.06293925642967224,-1.097498893737793
1780625515599450600,5.01545068359375,1.0793699026107788,-0.1074303388595581,-1.187232494354248
1780625515609479400,5.0254794921875,0.9009751677513123,-0.3226649761199951,-1.2746385335922241
1780625515619509500,5.035509521484375,0.6922978758811951,-0.42041152715682983,-1.321235179901123
1780625515629538600,5.04553857421875,0.5760259628295898,-0.3157314360141754,-1.2936477661132812
1780625515639568600,5.055568603515625,0.49392810463905334,-0.13250648975372314,-1.217806100845337
1780625515649597400,5.065597412109375,0.4509812593460083,-0.01783878356218338,-1.131897211074829
1780625515659627500,5.07562744140625,0.44076135754585266,-0.006847653537988663,-1.0540146827697754
1780625515669656600,5.085656494140625,0.4810898005962372,-0.04574788361787796,-0.954368531703949
1780625515679686700,5.095686767578125,0.5363501906394958,-0.035848647356033325,-0.8196730613708496
1780625515689715500,5.105715576171875,0.6280249357223511,-0.16015538573265076,-0.6826579570770264
1780625515699745500,5.11574560546875,0.6744289398193359,-0.30775922536849976,-0.592583179473877
1780625515709774600,5.125774658203125,0.6780844330787659,-0.36523574590682983,-0.5439040064811707
1780625515719804400,5.135804443359375,0.6652123332023621,-0.2932366728782654,-0.48464784026145935
1780625515729833700,5.145833740234375,0.6657896637916565,-0.08872830122709274,-0.4507843852043152
1780625515739863300,5.15586328125,0.654178261756897,0.10939809679985046,-0.43957382440567017
1780625515749892400,5.165892333984375,0.6168400049209595,0.18528416752815247,-0.4171515703201294
1780625515759922400,5.17592236328125,0.5295799374580383,0.11066612601280212,-0.3957112431526184
1780625515769951500,5.185951416015625,0.4339871108531952,-0.048732612282037735,-0.3664788007736206
1780625515779981600,5.195981689453125,0.3325422704219818,-0.21400918066501617,-0.3626297116279602
1780625515790010400,5.20601025390625,0.2613544166088104,-0.3595324158668518,-0.37349799275398254
1780625515800040400,5.21604052734375,0.2102043777704239,-0.44288164377212524,-0.3793793022632599
1780625515810069500,5.226069580078125,0.17319828271865845,-0.41470617055892944,-0.3472136855125427
1780625515820099600,5.236099609375,0.16003987193107605,-0.3031900227069855,-0.30836668610572815
1780625515830128400,5.24612841796875,0.14797498285770416,-0.22152963280677795,-0.2863459885120392
1780625515840158500,5.256158447265625,0.14669187366962433,-0.20319083333015442,-0.2723881006240845
1780625515850187500,5.2661875,0.15312732756137848,-0.21157442033290863,-0.2691320478916168
1780625515860217600,5.276217529296875,0.1724027544260025,-0.21568846702575684,-0.28299805521965027
1780625515870246400,5.286246337890625,0.2347019463777542,-0.1862560361623764,-0.29486802220344543
1780625515880276500,5.2962763671875,0.30334386229515076,-0.13545942306518555,-0.3009472191333771
1780625515890305500,5.306305419921875,0.3599759340286255,-0.029094502329826355,-0.295566588640213
1780625515900335600,5.316335693359375,0.41459178924560547,0.10624174773693085,-0.2866756319999695
1780625515910364400,5.326364501953125,0.4390721619129181,0.2057635337114334,-0.2955470383167267
1780625515920394500,5.33639453125,0.4235483407974243,0.26158231496810913,-0.3115520775318146
1780625515930423600,5.346423583984375,0.4109551012516022,0.2573806941509247,-0.30549356341362
1780625515940453600,5.35645361328125,0.3530545234680176,0.15570202469825745,-0.2803589105606079
1780625515950482700,5.366482666015625,0.23023736476898193,0.03673231229186058,-0.24705161154270172
1780625515960512500,5.376512451171875,0.1213737353682518,0.028077568858861923,-0.2175634801387787
1780625515970541600,5.38654150390625,0.07116881757974625,0.13004226982593536,-0.1792823076248169
1780625515980571400,5.3965712890625,0.08960987627506256,0.28594639897346497,-0.08850286155939102
1780625515990600700,5.4066005859375,0.14231926202774048,0.36436328291893005,0.005900777410715818
1780625516000630300,5.41663037109375,0.2133963704109192,0.34640559554100037,0.07655497640371323
1780625516010659600,5.42665966796875,0.27603650093078613,0.2817974388599396,0.12488000839948654
1780625516020689400,5.436689453125,0.31457507610321045,0.2215804159641266,0.15154196321964264
1780625516030719500,5.446719482421875,0.3103460371494293,0.13957485556602478,0.1419517695903778
1780625516040748500,5.45674853515625,0.29141202569007874,0.030052900314331055,0.08745470643043518
1780625516050778400,5.4667783203125,0.22574953734874725,-0.10592015832662582,-0.00849922839552164
1780625516060807400,5.476807373046875,0.14294786751270294,-0.21559207141399384,-0.13894246518611908
1780625516070837500,5.48683740234375,0.07707750797271729,-0.23722122609615326,-0.2698330581188202
1780625516080866600,5.496866455078125,0.056883554905653,-0.2098412662744522,-0.3612852096557617
1780625516090896600,5.506896728515625,0.0012664474779739976,-0.16244105994701385,-0.39254236221313477
1780625516100925400,5.516925537109375,-0.06819304823875427,-0.19529114663600922,-0.37067165970802307
1780625516110955500,5.52695556640625,-0.12589524686336517,-0.2587946355342865,-0.3382812738418579
1780625516120984300,5.536984375,-0.21069057285785675,-0.38634249567985535,-0.3277229070663452
1780625516131014400,5.547014404296875,-0.19798564910888672,-0.46724310517311096,-0.2732204496860504
1780625516141043500,5.55704345703125,-0.09311144053936005,-0.4431705176830292,-0.18829461932182312
1780625516151073500,5.567073486328125,0.05164259299635887,-0.3822793662548065,-0.1272258460521698
1780625516161102300,5.577102294921875,0.06284305453300476,-0.27053844928741455,-0.12455576658248901
1780625516171132400,5.58713232421875,0.0242975614964962,-0.22735463082790375,-0.10153904557228088
1780625516181162200,5.597162353515625,0.005316946655511856,-0.2779504060745239,-0.02757054567337036
1780625516191191600,5.607191650390625,0.016458528116345406,-0.3024871349334717,0.054199110716581345
1780625516201220400,5.617220458984375,0.07284297794103622,-0.2313743382692337,0.1511770486831665
1780625516211250400,5.62725048828125,0.14840422570705414,-0.18073724210262299,0.2223634272813797
1780625516221279500,5.637279541015625,0.2432820051908493,-0.20495229959487915,0.23120220005512238
1780625516231309300,5.647309326171875,0.3615114688873291,-0.24587182700634003,0.16972877085208893
1780625516241338400,5.65733837890625,0.4484242796897888,-0.255679190158844,0.0421883761882782
1780625516251368200,5.6673681640625,0.5040925741195679,-0.18386578559875488,-0.08013749122619629
1780625516261397200,5.677397216796875,0.5177748799324036,-0.08597437292337418,-0.16807027161121368
1780625516271427300,5.68742724609375,0.4441767632961273,-0.0318460576236248,-0.20492422580718994
1780625516281456400,5.697456298828125,0.38425564765930176,0.037147391587495804,-0.16510462760925293
1780625516291486200,5.707486328125,0.3387196660041809,0.0626426711678505,-0.06103908270597458
1780625516301515300,5.717515380859375,0.19831380248069763,-0.0318169891834259,0.0398784764111042
1780625516311545300,5.72754541015625,0.03792114183306694,-0.1254710853099823,0.12262701243162155
1780625516321574400,5.737574462890625,-0.07656682282686234,-0.12225371599197388,0.13345302641391754
1780625516331604500,5.7476044921875,-0.1256314218044281,-0.1335621029138565,0.06977716088294983
1780625516341633300,5.75763330078125,-0.0416819229722023,-0.13147684931755066,0.024122323840856552
1780625516351663400,5.767663330078125,0.04191625118255615,-0.17563028633594513,-0.03220311924815178
1780625516361692400,5.7776923828125,0.1681269109249115,-0.1602151095867157,-0.03901548683643341
1780625516371722500,5.787722412109375,0.2934180200099945,-0.13886426389217377,0.0054575055837631226
1780625516381751300,5.797751220703125,0.42524370551109314,-0.0771883949637413,0.09731419384479523
1780625516391781400,5.807781494140625,0.5401963591575623,0.011708090081810951,0.17519120872020721
1780625516401810400,5.817810546875,0.5638287663459778,0.012281734496355057,0.15578767657279968
1780625516411840500,5.827840576171875,0.45740750432014465,-0.0872344970703125,0.041011784225702286
1780625516421870600,5.83787060546875,0.29287874698638916,-0.24092791974544525,-0.10816172510385513
1780625516431899400,5.8478994140625,0.17668558657169342,-0.3398846983909607,-0.2119745910167694
1780625516441929200,5.85792919921875,0.06659609824419022,-0.35833534598350525,-0.275698721408844
1780625516451958500,5.86795849609375,0.01785442791879177,-0.27413514256477356,-0.299073725938797
1780625516461988400,5.87798828125,0.0006211131112650037,-0.19550742208957672,-0.2672649323940277
1780625516472017400,5.888017333984375,-0.032823603600263596,-0.22451937198638916,-0.234920471906662
1780625516482047200,5.898047119140625,0.04306876286864281,-0.1949276477098465,-0.1915423721075058
1780625516492076300,5.908076171875,0.08705447614192963,-0.13512295484542847,-0.17009671032428741
1780625516502106400,5.9181064453125,0.1389237940311432,-0.045474566519260406,-0.18049608170986176
1780625516512135200,5.92813525390625,0.14090792834758759,0.06563492119312286,-0.22337308526039124
1780625516522165200,5.938165283203125,0.29601362347602844,0.22391963005065918,-0.24091479182243347
1780625516532194300,5.9481943359375,0.4260846972465515,0.22832754254341125,-0.2623348534107208
1780625516542224400,5.958224365234375,0.5986940264701843,0.1871630698442459,-0.25650572776794434
1780625516552253400,5.96825341796875,0.8572193384170532,0.1987432837486267,-0.16672521829605103
1780625516562283300,5.978283203125,0.8987944722175598,0.10360292345285416,-0.0679602324962616
1780625516572312300,5.988312255859375,1.0737583637237549,0.07229011505842209,0.05829067900776863
1780625516582342400,5.99834228515625,1.1695910692214966,0.19147297739982605,0.15046827495098114
1780625516592371500,6.008371337890625,1.0986241102218628,0.13371454179286957,0.17459681630134583
1780625516602401300,6.0184013671875,0.6807334423065186,-0.08971986919641495,0.13146239519119263
1780625516612430300,6.028430419921875,0.12782341241836548,-0.3237203061580658,0.07257568091154099
1780625516622460400,6.03846044921875,0.23379990458488464,-0.6044363379478455,0.14141014218330383
1780625516632489500,6.048489501953125,0.035531267523765564,-0.8839129209518433,0.29492059350013733
1780625516642519600,6.05851953125,0.13070066273212433,-1.3559435606002808,0.42195791006088257
1780625516652548400,6.06854833984375,0.3753812909126282,-1.800449013710022,0.5740487575531006
1780625516662578400,6.078578369140625,0.5773698091506958,-2.055891275405884,0.7213721871376038
1780625516672607500,6.088607421875,0.7508817315101624,-2.111248731613159,0.7703201174736023
1780625516682637600,6.098637451171875,0.6170448660850525,-2.054091215133667,0.7439450025558472
1780625516692666400,6.108666259765625,0.20533888041973114,-2.0625174045562744,0.7456938028335571
1780625516702696400,6.118696533203125,-0.1878265142440796,-1.8267139196395874,0.7756197452545166
1780625516712725500,6.1287255859375,-0.5148646831512451,-1.471081256866455,0.738017201423645
1780625516722755300,6.13875537109375,-0.740206241607666,-1.0975875854492188,0.5242122411727905
1780625516732784400,6.148784423828125,-0.8248339891433716,-0.5964505672454834,0.08582238107919693
1780625516742814200,6.158814208984375,-0.8295600414276123,-0.20645326375961304,-0.4563868045806885
1780625516752843300,6.16884326171875,-0.6720173358917236,0.037868984043598175,-0.7827339768409729
1780625516762873300,6.178873291015625,-0.49620187282562256,0.5658231377601624,-0.6411557793617249
1780625516772902400,6.18890234375,-0.4642813801765442,0.9325073957443237,-0.30955156683921814
1780625516782932200,6.19893212890625,-0.612378716468811,1.091841459274292,-0.06004346162080765
1780625516792962300,6.20896240234375,-0.773657500743866,1.0910484790802002,0.03665130212903023
1780625516802991400,6.218991455078125,-0.7964935898780823,0.828412652015686,0.04646611586213112
1780625516813021400,6.229021484375,-0.6239300966262817,0.4673987925052643,-0.039066582918167114
1780625516823050200,6.23905029296875,-0.006604811642318964,-0.0029090531170368195,-0.25977152585983276
1780625516833080300,6.249080322265625,0.9572478532791138,-0.657301664352417,-0.7301111817359924
1780625516843109400,6.259109375,1.5674138069152832,-1.0017324686050415,-1.2365717887878418
1780625516853139500,6.269139404296875,1.8382313251495361,-1.026378870010376,-1.7753933668136597
1780625516863168500,6.27916845703125,2.2520153522491455,-0.3765726387500763,-2.1285486221313477
1780625516873198300,6.2891982421875,2.8148727416992188,1.2285513877868652,-1.7247084379196167
1780625516883227400,6.299227294921875,2.672224998474121,2.3406853675842285,-0.356158971786499
1780625516893257500,6.309257568359375,1.7808527946472168,1.559876799583435,0.15242557227611542
1780625516903286500,6.31928662109375,0.8870728015899658,0.35202354192733765,-0.3646545708179474
1780625516913316600,6.329316650390625,0.3000551462173462,-0.4436080753803253,-0.7889351844787598
1780625516923345400,6.339345458984375,-0.09741123765707016,-0.9058428406715393,-0.9568663835525513
1780625516933375200,6.349375244140625,-0.328474760055542,-1.0829403400421143,-0.9429410696029663
1780625516943404500,6.359404541015625,-0.48795467615127563,-1.1538795232772827,-0.838509738445282
1780625516953434400,6.369434326171875,-0.5677280426025391,-1.1345688104629517,-0.7876244187355042
1780625516963463400,6.37946337890625,-0.5767362117767334,-1.0716418027877808,-0.8922192454338074
1780625516973493200,6.3894931640625,-0.5869759917259216,-0.8261369466781616,-1.0345836877822876
1780625516983522300,6.399522216796875,-0.569084882736206,-0.44294509291648865,-1.07943856716156
1780625516993552400,6.409552490234375,-0.5617381930351257,-0.09763704240322113,-0.9876275062561035
1780625517003581200,6.419581298828125,-0.5122172236442566,0.10347369313240051,-0.7968695163726807
1780625517013611300,6.429611328125,-0.4819639325141907,0.0892292931675911,-0.5551161766052246
1780625517023640300,6.439640380859375,-0.49246343970298767,-0.20665402710437775,-0.3761640191078186
1780625517033670400,6.44967041015625,-0.5997256636619568,-0.6662906408309937,-0.3304629623889923
1780625517043699200,6.45969921875,-0.7789811491966248,-1.007046103477478,-0.3434019386768341
1780625517053729300,6.469729248046875,-0.7960792183876038,-1.111304521560669,-0.3328172266483307
1780625517063758300,6.47975830078125,-0.6146409511566162,-1.106695294380188,-0.3570652902126312
1780625517073788400,6.489788330078125,-0.26136162877082825,-1.103945255279541,-0.8506522178649902
1780625517083817500,6.4998173828125,-0.1004241555929184,-0.7522259950637817,-1.5403445959091187
1780625517093847300,6.509847412109375,-0.17017662525177002,-0.3706783354282379,-1.964117169380188
1780625517103876400,6.51987646484375,-0.4441293478012085,-0.5273979306221008,-1.9350264072418213
1780625517113906400,6.529906494140625,-0.9004378914833069,-0.8719226121902466,-1.3027677536010742
1780625517123936500,6.5399365234375,-1.2351335287094116,-1.2853742837905884,-0.8000985383987427
1780625517133965300,6.54996533203125,-1.382101058959961,-1.6263655424118042,-0.663198709487915
1780625517143995400,6.559995361328125,-1.4555292129516602,-1.564517855644226,-0.6177436113357544
1780625517154024400,6.5700244140625,-1.4277750253677368,-1.1983953714370728,-0.4784945547580719
1780625517164054300,6.58005419921875,-1.203851580619812,-0.9249367117881775,-0.05460505187511444
1780625517174083600,6.59008349609375,-0.877003014087677,-0.8269868493080139,0.32349076867103577
1780625517184113200,6.600113037109375,-0.5546779632568359,-0.7331346869468689,0.33710935711860657
1780625517194142500,6.610142578125,-0.32787325978279114,-0.4492676556110382,0.1608145833015442
1780625517204172300,6.62017236328125,-0.2523835599422455,0.011876268312335014,0.028534043580293655
1780625517214201300,6.630201416015625,-0.3398136794567108,0.3319942355155945,-0.0919855460524559
1780625517224231400,6.6402314453125,-0.4900415539741516,0.2794734835624695,-0.1889360547065735
1780625517234260200,6.65026025390625,-0.5838284492492676,0.08318458497524261,-0.1276041865348816
1780625517244290300,6.660290283203125,-0.5746815800666809,-0.002670934423804283,0.06579882651567459
1780625517254319400,6.6703193359375,-0.4851952791213989,-0.09921570122241974,0.2784039378166199
1780625517264349400,6.680349365234375,-0.31870508193969727,-0.27183833718299866,0.34764134883880615
1780625517274378200,6.690378173828125,-0.1863485723733902,-0.3914504945278168,0.2883374094963074
1780625517284408300,6.700408203125,-0.11024928838014603,-0.4116963744163513,0.1394757777452469
1780625517294437400,6.710437255859375,-0.03387335315346718,-0.3501710295677185,-0.050681233406066895
1780625517304467500,6.720467529296875,0.03849325329065323,-0.18125177919864655,-0.24774956703186035
1780625517314496300,6.730496337890625,0.08881882578134537,-0.049936458468437195,-0.3962150514125824
1780625517324526300,6.7405263671875,0.09023402631282806,0.017103828489780426,-0.5094150900840759
1780625517334555400,6.750555419921875,0.03256679326295853,0.11243228614330292,-0.5583233833312988
1780625517344585500,6.76058544921875,-0.05195900797843933,0.18000707030296326,-0.5100919604301453
1780625517354614300,6.7706142578125,-0.11696262657642365,0.2056356817483902,-0.387509822845459
1780625517364644400,6.780644287109375,-0.13827325403690338,0.20215466618537903,-0.23548273742198944
1780625517374673400,6.79067333984375,-0.12496677786111832,0.15677766501903534,-0.07570349425077438
1780625517384703500,6.800703369140625,-0.08562283217906952,0.08751816302537918,0.07830870896577835
1780625517394732500,6.810732666015625,-0.03370685502886772,0.019804997369647026,0.19757474958896637
1780625517404762400,6.820762451171875,0.00812714546918869,-0.04099869728088379,0.2553118169307709
1780625517414791400,6.83079150390625,0.02848556824028492,-0.09554916620254517,0.3030537962913513
1780625517424821500,6.840821533203125,0.0199983399361372,-0.13261637091636658,0.34395354986190796
1780625517434851300,6.850851318359375,-0.011172271333634853,-0.1524071842432022,0.3435707986354828
1780625517444880400,6.86088037109375,-0.04162045940756798,-0.17757032811641693,0.2980528473854065
1780625517454910200,6.87091015625,-0.08003644645214081,-0.19786033034324646,0.249592587351799
1780625517464939300,6.880939208984375,-0.1299866884946823,-0.20579947531223297,0.2326466292142868
1780625517474969300,6.89096923828125,-0.1562792956829071,-0.2313021421432495,0.2784479260444641
1780625517484998400,6.900998291015625,-0.10641986131668091,-0.2852865755558014,0.3580783009529114
1780625517495028200,6.9110283203125,0.0419052317738533,-0.40034571290016174,0.39928579330444336
1780625517505057300,6.921057373046875,0.2300836592912674,-0.5730612874031067,0.3612760901451111
1780625517515087400,6.93108740234375,0.3820740878582001,-0.6743543148040771,0.3033890426158905
1780625517525116400,6.941116455078125,0.46948355436325073,-0.6558911204338074,0.2720942199230194
1780625517535146500,6.951146484375,0.47521620988845825,-0.5860504508018494,0.22846505045890808
1780625517545175300,6.96117529296875,0.4265842139720917,-0.49942344427108765,0.16389058530330658
1780625517555205400,6.971205322265625,0.338255912065506,-0.3777439594268799,0.09328510612249374
1780625517565234400,6.981234375,0.25388991832733154,-0.22029416263103485,0.06998617947101593
1780625517575264500,6.991264404296875,0.17647258937358856,-0.09140296280384064,0.14522576332092285
1780625517585293300,7.001293212890625,0.10575980693101883,-0.039105139672756195,0.3083760738372803
1780625517595323400,7.011323486328125,0.07549586892127991,-0.07980260252952576,0.5213894248008728
1780625517605352400,7.0213525390625,0.06984490156173706,-0.21918553113937378,0.7056796550750732
1780625517615382500,7.031382568359375,0.08768009394407272,-0.39808350801467896,0.8099250793457031
1780625517625411300,7.041411376953125,0.11817994713783264,-0.5507300496101379,0.8320109248161316
1780625517635441400,7.05144140625,0.13770851492881775,-0.61982262134552,0.8135712146759033
1780625517645470500,7.061470458984375,0.15707048773765564,-0.5908055901527405,0.7661666870117188
1780625517655500300,7.071500244140625,0.1670214980840683,-0.5364368557929993,0.6906218528747559
1780625517665529600,7.081529541015625,0.15709084272384644,-0.46624651551246643,0.6212470531463623
1780625517675559200,7.09155908203125,0.13660264015197754,-0.4140431880950928,0.572625994682312
1780625517685588500,7.10158837890625,0.13509662449359894,-0.3774484097957611,0.5303520560264587
1780625517695618300,7.111618408203125,0.1744670569896698,-0.34394174814224243,0.4995954632759094
1780625517705648400,7.1216484375,0.22760164737701416,-0.3037482500076294,0.47955092787742615
1780625517715677200,7.13167724609375,0.27409839630126953,-0.2553715407848358,0.4602380394935608
1780625517725707300,7.141707275390625,0.3094601035118103,-0.18247362971305847,0.4169672727584839
1780625517735736300,7.151736328125,0.32286062836647034,-0.11583738029003143,0.3439711928367615
1780625517745766400,7.161766357421875,0.3090319037437439,-0.06247056648135185,0.2600241005420685
1780625517755795500,7.17179541015625,0.2588980495929718,-0.03224465996026993,0.19565100967884064
1780625517765825300,7.1818251953125,0.17567212879657745,-0.020177077502012253,0.16600815951824188
1780625517775854300,7.191854248046875,0.07611299306154251,-0.07630796730518341,0.13284902274608612
1780625517785884400,7.201884521484375,-0.012735920026898384,-0.19423194229602814,0.09128373861312866
1780625517795913500,7.21191357421875,-0.08246135711669922,-0.2811279296875,0.10554280132055283
1780625517805943600,7.221943603515625,-0.11219235509634018,-0.30952227115631104,0.18077045679092407
1780625517815972400,7.231972412109375,-0.07159633934497833,-0.2763650715351105,0.24767114222049713
1780625517826002400,7.24200244140625,0.012285245582461357,-0.18373313546180725,0.2631814181804657
1780625517836031500,7.252031494140625,0.10180246829986572,-0.018037209287285805,0.24431313574314117
1780625517846061600,7.2620615234375,0.1790357381105423,0.1632164716720581,0.22488084435462952
1780625517856090400,7.27209033203125,0.2294081747531891,0.3441186845302582,0.245108500123024
1780625517866120400,7.282120361328125,0.23486152291297913,0.5047829151153564,0.28012537956237793
1780625517876149500,7.2921494140625,0.2214186191558838,0.598433256149292,0.2850928008556366
1780625517886179300,7.302179443359375,0.17599307000637054,0.6616367697715759,0.25803616642951965
1780625517896208400,7.31220849609375,0.11374709755182266,0.7306942939758301,0.20344656705856323
1780625517906238200,7.32223828125,0.052994005382061005,0.7995585799217224,0.1256399303674698
1780625517916267500,7.332267578125,0.02137366682291031,0.8091838955879211,0.045166753232479095
1780625517926297300,7.34229736328125,0.030541865155100822,0.7280009388923645,-0.02141573652625084
1780625517936326100,7.352326171875,0.04421583563089371,0.5971017479896545,-0.04558905214071274
1780625517946356200,7.362356201171875,0.02890106290578842,0.5458707809448242,-0.037156686186790466
1780625517956385300,7.37238525390625,-0.010065173730254173,0.5678934454917908,-0.011649309657514095
1780625517966415400,7.382415283203125,-0.07740373909473419,0.540322482585907,0.037834085524082184
1780625517976444400,7.3924443359375,-0.14991679787635803,0.4206511676311493,0.12404276430606842
1780625517986474200,7.40247412109375,-0.18211069703102112,0.27799710631370544,0.20281560719013214
1780625517996504300,7.41250439453125,-0.18779891729354858,0.1277867555618286,0.27193906903266907
1780625518006533400,7.422533447265625,-0.15330564975738525,0.014351277612149715,0.31241512298583984
1780625518016563500,7.4325634765625,-0.09905515611171722,-0.03606075048446655,0.33724546432495117
1780625518026592300,7.44259228515625,-0.0463128499686718,-0.05228126421570778,0.3620237708091736
1780625518036622300,7.452622314453125,0.0013258949620649219,-0.036259375512599945,0.40510889887809753
1780625518046651400,7.4626513671875,0.012204375118017197,0.016257628798484802,0.473215252161026
1780625518056681500,7.472681396484375,0.0053032161667943,0.11847472935914993,0.5545823574066162
1780625518066710500,7.48271044921875,0.006235056556761265,0.14203040301799774,0.5932183861732483
1780625518076740400,7.492740234375,0.01385460700839758,0.07127890735864639,0.5390693545341492
1780625518086769400,7.502769287109375,0.05025789141654968,0.04966628924012184,0.3988025188446045
1780625518096799700,7.5127998046875,0.09548135846853256,0.14610622823238373,0.23584195971488953
1780625518106828800,7.522828857421875,0.07874045521020889,0.3571588099002838,0.1192767396569252
1780625518116859000,7.53285888671875,0.05234610289335251,0.5780380368232727,0.10621174424886703
1780625518126887700,7.5428876953125,0.03557218238711357,0.7006270885467529,0.17610719799995422
1780625518136917800,7.552917724609375,0.027288906276226044,0.6692309379577637,0.2675933241844177
1780625518146946800,7.56294677734375,0.025429487228393555,0.5403373837471008,0.3077998757362366
1780625518156977000,7.572976806640625,0.03673934563994408,0.42590242624282837,0.31730061769485474
1780625518167005700,7.583005615234375,0.06077304482460022,0.3947999179363251,0.3210676610469818
1780625518177035800,7.593035888671875,0.07984239608049393,0.4501687288284302,0.3241882026195526
1780625518187064800,7.60306494140625,0.10436638444662094,0.5106339454650879,0.3276258111000061
1780625518197095000,7.613094970703125,0.13264691829681396,0.5467910170555115,0.3219173550605774
1780625518207123700,7.623123779296875,0.1376725733280182,0.588299036026001,0.3406468331813812
1780625518217153800,7.63315380859375,0.10563798993825912,0.6030950546264648,0.40202829241752625
1780625518227183900,7.643183837890625,0.05722011998295784,0.5696614980697632,0.4612729847431183
1780625518237213000,7.653212890625,0.004605807829648256,0.4715942144393921,0.4714880883693695
1780625518247243000,7.663242919921875,-0.05924614146351814,0.3397352695465088,0.4564487040042877
1780625518257271800,7.673271728515625,-0.10947231203317642,0.2246856987476349,0.4410286843776703
1780625518267302000,7.683302001953125,-0.13392093777656555,0.1324324607849121,0.41962486505508423
1780625518277331000,7.6933310546875,-0.13829375803470612,0.021930331364274025,0.3556916117668152
1780625518287361000,7.703361083984375,-0.13033117353916168,-0.10902289301156998,0.2251623421907425
1780625518297390000,7.71339013671875,-0.14040473103523254,-0.21872176229953766,0.06385515630245209
1780625518307420000,7.723419921875,-0.1615840494632721,-0.27554774284362793,-0.07705535739660263
1780625518317449000,7.733448974609375,-0.22071224451065063,-0.24636290967464447,-0.20750154554843903
1780625518327478800,7.743478759765625,-0.31030526757240295,-0.13587315380573273,-0.3185202181339264
1780625518337507800,7.7535078125,-0.43213772773742676,-0.020040135830640793,-0.3897441327571869
1780625518347537700,7.76353759765625,-0.5581848621368408,0.04783531650900841,-0.4110148251056671
1780625518357566700,7.773566650390625,-0.6829262971878052,0.11116378754377365,-0.3636135458946228
1780625518367596800,7.7835966796875,-0.8022199273109436,0.19909150898456573,-0.22821897268295288
1780625518377625900,7.7936259765625,-0.9103628993034363,0.3290576934814453,0.00903489999473095
1780625518387656000,7.803656005859375,-1.0242739915847778,0.5653445720672607,0.31927186250686646
1780625518397684700,7.813684814453125,-1.118930697441101,0.8242155909538269,0.6502521634101868
1780625518407714800,7.82371484375,-1.126969814300537,1.006422996520996,0.9495837092399597
1780625518417744000,7.833743896484375,-1.0653494596481323,1.0399203300476074,1.2057876586914062
1780625518427774000,7.84377392578125,-0.9575703740119934,1.0317028760910034,1.4928079843521118
1780625518437802800,7.853802734375,-0.8311921954154968,1.0864421129226685,1.8113967180252075
1780625518447832800,7.863832763671875,-0.7433941960334778,1.2440177202224731,2.1658458709716797
1780625518457862000,7.87386181640625,-0.6620989441871643,1.3994320631027222,2.4932899475097656
1780625518467892000,7.88389208984375,-0.5339583158493042,1.459225058555603,2.7233529090881348
1780625518477922000,7.893922119140625,-0.39490875601768494,1.400762915611267,2.8199734687805176
1780625518487950800,7.903950927734375,-0.26208120584487915,1.161072015762329,2.7715585231781006
1780625518497981000,7.91398095703125,-0.13184894621372223,0.8254300951957703,2.5803520679473877
1780625518508010000,7.924010009765625,-0.018810806795954704,0.46366044878959656,2.243325710296631
1780625518518040000,7.9340400390625,-0.04300336167216301,0.31180232763290405,1.9082741737365723
1780625518528068900,7.94406884765625,-0.16525870561599731,0.46931126713752747,1.6087623834609985
1780625518538098700,7.9540986328125,-0.29906851053237915,0.6823098063468933,1.284798502922058
1780625518548128000,7.9641279296875,-0.419190376996994,0.6916835904121399,0.9241955876350403
1780625518558157800,7.97415771484375,-0.4612676799297333,0.5123452544212341,0.6417116522789001
1780625518568187000,7.984186767578125,-0.44091394543647766,0.2984071373939514,0.5369756817817688
1780625518578216700,7.994216796875,-0.4411402642726898,0.12527021765708923,0.5602429509162903
1780625518588245800,8.004245849609376,-0.48192018270492554,0.03650733083486557,0.6501331925392151
1780625518598275800,8.01427587890625,-0.5238296985626221,0.017614781856536865,0.7410300970077515
1780625518608305000,8.024304931640625,-0.5815649032592773,0.018584437668323517,0.8196932077407837
1780625518618334700,8.034334716796875,-0.6460362672805786,-0.010539359413087368,0.8893995881080627
1780625518628363800,8.04436376953125,-0.7427108883857727,-0.09407339990139008,0.9874326586723328
1780625518638393900,8.054393798828125,-0.8919637203216553,-0.1918567270040512,1.1116987466812134
1780625518648423000,8.0644228515625,-1.0492668151855469,-0.35781773924827576,1.2266122102737427
1780625518658453000,8.074452880859376,-1.1290867328643799,-0.5399278402328491,1.2282483577728271
1780625518668481800,8.084481689453124,-1.1370970010757446,-0.7053287625312805,1.0789790153503418
1780625518678511900,8.094511962890625,-1.1451311111450195,-1.0516433715820312,0.7439432144165039
1780625518688542000,8.1045419921875,-1.0967979431152344,-2.043433427810669,0.19040198624134064
1780625518698571000,8.114571044921876,-0.8180501461029053,-2.897145986557007,-0.36224567890167236
1780625518708600800,8.124600830078125,-0.43494534492492676,-3.1946280002593994,-0.7420250177383423
1780625518718630000,8.1346298828125,-0.06441827863454819,-3.5703539848327637,-0.8051741123199463
1780625518728660000,8.144659912109375,-0.11330299824476242,-6.278659343719482,0.7915094494819641
1780625518738689000,8.15468896484375,-0.013383949175477028,-5.852750301361084,1.2654918432235718
1780625518748719000,8.164718994140625,0.24885272979736328,-4.459512233734131,-0.3813247084617615
1780625518758748000,8.174747802734375,0.6480357050895691,-3.147996664047241,-1.2951593399047852
1780625518768777700,8.18477783203125,1.2210490703582764,-1.4699158668518066,-1.9627277851104736
1780625518778807000,8.19480712890625,1.2738149166107178,-0.14343848824501038,-2.2489352226257324
1780625518788836900,8.2048369140625,1.1531099081039429,0.2090039849281311,-2.3563530445098877
1780625518798866000,8.214865966796875,1.3742125034332275,0.9410148859024048,-2.7839057445526123
1780625518808895700,8.224895751953126,1.5103427171707153,1.3459985256195068,-2.75655460357666
1780625518818924800,8.2349248046875,1.4090415239334106,1.6094363927841187,-2.9262242317199707
1780625518828955000,8.244954833984375,1.04865562915802,2.041046619415283,-2.7669003009796143
1780625518838983700,8.254983642578125,0.44033023715019226,2.827669143676758,-2.190293073654175
1780625518849013800,8.265013671875,0.7155213356018066,2.7453410625457764,-1.9253063201904297
1780625518859042800,8.275042724609374,0.6056842803955078,1.888681173324585,-1.7209041118621826
1780625518869073000,8.285072998046875,0.3286290168762207,1.2220538854599,-1.3271515369415283
1780625518879101700,8.295101806640625,0.40223222970962524,0.7955814599990845,-1.0864094495773315
1780625518889131800,8.3051318359375,0.30568039417266846,0.28790679574012756,-0.9519299864768982
1780625518899161900,8.315161865234375,0.23282967507839203,0.08507892489433289,-0.6598082780838013
1780625518909191000,8.32519091796875,0.2758903205394745,0.2931745946407318,-0.44968676567077637
1780625518919221000,8.335220947265626,0.1725379377603531,0.6185325980186462,-0.23470580577850342
1780625518929249800,8.345249755859374,0.1845320165157318,1.165037989616394,-0.03543664515018463
1780625518939280000,8.35527978515625,0.2109985202550888,1.0943729877471924,0.20811982452869415
1780625518949309000,8.365308837890625,0.3467009663581848,1.1875766515731812,0.44815903902053833
1780625518959339000,8.375339111328126,0.4462893307209015,2.172823190689087,0.5177266597747803
1780625518969368000,8.3853681640625,0.6266420483589172,2.7005839347839355,0.5439294576644897
1780625518979398000,8.39539794921875,0.8569586277008057,2.870396375656128,0.6092944145202637
1780625518989427000,8.405427001953125,1.0654023885726929,2.7814409732818604,0.7710913419723511
1780625518999456800,8.415456787109376,1.2658525705337524,2.4966177940368652,0.9827378988265991
1780625519009486000,8.425486083984374,1.4037518501281738,2.1675398349761963,1.2140978574752808
1780625519019516000,8.435515869140625,1.447934865951538,1.884710431098938,1.4278581142425537
1780625519029544700,8.445544677734375,1.3770502805709839,1.5988280773162842,1.5889948606491089
1780625519039574800,8.45557470703125,1.223639965057373,1.2597626447677612,1.642227292060852
1780625519049603800,8.465603759765624,0.981353759765625,1.0395405292510986,1.5841165781021118
1780625519059634000,8.475634033203125,0.6982830762863159,0.8782606720924377,1.4571532011032104
1780625519069662700,8.485662841796875,0.45455458760261536,0.6836123466491699,1.298775553703308
1780625519079692800,8.49569287109375,0.3404768705368042,0.475399911403656,1.1035882234573364
1780625519089721900,8.505721923828125,0.330774188041687,0.3574759364128113,0.9022988677024841
1780625519099752000,8.515751953125,0.37612760066986084,0.36877670884132385,0.7288389801979065
1780625519109780700,8.52578076171875,0.4470464885234833,0.37975984811782837,0.5785424709320068
1780625519119810800,8.535810791015624,0.5133658647537231,0.3293438255786896,0.47298428416252136
1780625519129841000,8.5458408203125,0.5768699049949646,0.28884562849998474,0.4215284287929535
1780625519139870000,8.555869873046875,0.6173640489578247,0.30450236797332764,0.45386919379234314
1780625519149900000,8.565900146484376,0.640497088432312,0.3716569244861603,0.5616971254348755
1780625519159928800,8.5759287109375,0.6489573121070862,0.399694561958313,0.7064608931541443
1780625519169959000,8.585958984375,0.6757093071937561,0.3535800576210022,0.8388077616691589
1780625519179988000,8.595988037109375,0.6886979341506958,0.27099689841270447,0.906821072101593
1780625519190018000,8.60601806640625,0.7012028098106384,0.18037456274032593,0.9149905443191528
1780625519200046800,8.616046875,0.7430787086486816,0.1557948887348175,0.8388068079948425
1780625519210077000,8.626076904296875,0.7670629024505615,0.2181626558303833,0.6886428594589233
1780625519220106000,8.63610595703125,0.7442789673805237,0.2848631739616394,0.49989423155784607
1780625519230135800,8.6461357421875,0.6990640759468079,0.2736384868621826,0.27128446102142334
1780625519240164900,8.656164794921875,0.6448362469673157,0.1273406744003296,0.02666059136390686
1780625519250194700,8.666194580078125,0.6123078465461731,-0.1192973256111145,-0.21380794048309326
1780625519260223700,8.6762236328125,0.6240167021751404,-0.38175684213638306,-0.4281999170780182
1780625519270253800,8.68625390625,0.6439443230628967,-0.5977783799171448,-0.5750090479850769
1780625519280283000,8.696282958984375,0.6289525628089905,-0.7654141187667847,-0.6536275744438171
1780625519290312700,8.706312744140625,0.5978037118911743,-0.8681708574295044,-0.7336273193359375
1780625519300341800,8.716341796875,0.5918222069740295,-0.9236965179443359,-0.8365289568901062
1780625519310371800,8.726371826171874,0.6548352837562561,-0.9076688289642334,-1.0077831745147705
1780625519320402000,8.73640185546875,0.7446558475494385,-0.8381061553955078,-1.1570603847503662
1780625519330431000,8.746430908203125,0.8616317510604858,-0.8411487936973572,-1.2481749057769775
1780625519340460800,8.756460693359376,1.0268480777740479,-0.9425271153450012,-1.3004846572875977
1780625519350489900,8.76648974609375,1.2237918376922607,-1.042648196220398,-1.3231265544891357
1780625519360520000,8.77652001953125,1.408666968345642,-1.093207597732544,-1.3125604391098022
1780625519370549000,8.786549072265625,1.5286099910736084,-1.1738675832748413,-1.2817682027816772
1780625519380578800,8.796578857421874,1.541064739227295,-1.1960837841033936,-1.233188271522522
1780625519390608000,8.80660791015625,1.4077892303466797,-1.084204077720642,-1.2055091857910156
1780625519400638000,8.816637939453125,1.2004759311676025,-0.9029876589775085,-1.274398922920227
1780625519410667000,8.8266669921875,0.9929949045181274,-0.682906448841095,-1.4022914171218872
1780625519420697000,8.836697021484374,0.8949253559112549,-0.37202149629592896,-1.545295000076294
1780625519430726000,8.846725830078125,1.0231517553329468,-0.14197495579719543,-1.7394367456436157
1780625519440756000,8.856755859375,1.2071006298065186,0.018350178375840187,-1.989157795906067
1780625519450785000,8.866784912109376,1.311791181564331,0.0936071127653122,-2.157334804534912
1780625519460814800,8.87681494140625,1.2562434673309326,0.09413538873195648,-2.1604115962982178
1780625519470844000,8.886843994140625,1.012620210647583,0.026504943147301674,-1.9519455432891846
1780625519480873700,8.896873779296875,0.6464154720306396,0.030875369906425476,-1.5886085033416748
1780625519490902800,8.90690283203125,0.26017722487449646,0.07149443030357361,-1.178708791732788
1780625519500932900,8.916932861328124,-0.048797644674777985,0.08972252905368805,-0.7888606190681458
1780625519510961700,8.926961669921875,-0.20012564957141876,0.09280940145254135,-0.5435237884521484
1780625519520991700,8.93699169921875,-0.2546800673007965,0.0057620336301624775,-0.35119080543518066
1780625519531021800,8.947021728515624,-0.25258684158325195,-0.059430547058582306,-0.20133021473884583
1780625519541051000,8.95705078125,-0.17425596714019775,-0.17392270267009735,-0.10077570378780365
1780625519551081000,8.9670810546875,-0.04129498824477196,-0.302253782749176,-0.03691469877958298
1780625519561109800,8.97710986328125,0.06496820598840714,-0.4614085257053375,0.024151062592864037
1780625519571139800,8.987139892578124,0.09803960472345352,-0.5337442755699158,0.027040060609579086
1780625519581169000,8.9971689453125,0.09949994087219238,-0.6314646601676941,-0.029210172593593597
1780625519591199000,9.007198974609375,0.08599798381328583,-0.619659423828125,-0.10380424559116364
1780625519601227800,9.017227783203126,0.024425668641924858,-0.47534939646720886,-0.16183380782604218
1780625519611257900,9.0272578125,-0.020551126450300217,-0.30843204259872437,-0.2152528315782547
1780625519621287000,9.037286865234375,-0.008555928245186806,-0.197021946310997,-0.3077152371406555
1780625519631317000,9.04731689453125,0.0026205601170659065,-0.1454831212759018,-0.4047270119190216
1780625519641346000,9.057345947265626,-0.010495125316083431,-0.11771029978990555,-0.470173716545105
1780625519651375900,9.0673759765625,-0.03422974795103073,-0.12235351651906967,-0.5019819736480713
1780625519661405000,9.077405029296875,-0.07495710253715515,-0.13337665796279907,-0.4865253269672394
1780625519671434800,9.087434814453125,-0.12934310734272003,-0.13304854929447174,-0.44010111689567566
1780625519681464000,9.097464111328126,-0.14928306639194489,-0.10691475123167038,-0.37000763416290283
1780625519691494000,9.107493896484375,-0.13811670243740082,-0.06925205886363983,-0.3064526319503784
1780625519701523000,9.11752294921875,-0.11212684959173203,-0.029730651527643204,-0.27157285809516907
1780625519711552800,9.127552734375,-0.07010482996702194,0.014987818896770477,-0.2615697383880615
1780625519721582800,9.137582763671874,0.0018005616730079055,0.06318995356559753,-0.2924172878265381
1780625519731612000,9.14761181640625,0.08236491680145264,0.14649149775505066,-0.34373214840888977
1780625519741641700,9.157641845703125,0.09905754029750824,0.30944162607192993,-0.3793286383152008
1780625519751670800,9.1676708984375,0.0788169801235199,0.4987258017063141,-0.3909378945827484
1780625519761700900,9.177700927734374,0.06810416281223297,0.6378076076507568,-0.42714378237724304
1780625519771730000,9.18772998046875,0.054357193410396576,0.6652940511703491,-0.442802369594574
1780625519781760000,9.197760009765625,0.06451626867055893,0.5203530192375183,-0.47654956579208374
1780625519791788800,9.207788818359376,0.07150280475616455,0.32766905426979065,-0.5521977543830872
1780625519801819000,9.21781884765625,0.08268236368894577,0.19102461636066437,-0.6412692666053772
1780625519811848000,9.227847900390625,0.10023259371519089,0.16120599210262299,-0.7431751489639282
1780625519821878000,9.2378779296875,0.09713639318943024,0.30177634954452515,-0.874997079372406
1780625519831906800,9.24790673828125,0.060421258211135864,0.5834221839904785,-1.059158205986023
1780625519841937000,9.25793701171875,0.020935768261551857,0.9433295726776123,-1.2448736429214478
1780625519851966000,9.267966064453125,0.034947991371154785,1.2507933378219604,-1.3421636819839478
1780625519861996000,9.27799609375,0.09266757220029831,1.3452661037445068,-1.3289439678192139
1780625519872024800,9.28802490234375,0.17729245126247406,1.192458987236023,-1.2445722818374634
1780625519882055000,9.298054931640625,0.25536346435546875,0.8485585451126099,-1.1473249197006226
1780625519892084000,9.308083984375,0.26505231857299805,0.4657922089099884,-1.0721471309661865
1780625519902113800,9.31811376953125,0.18915393948554993,0.18469934165477753,-1.0212945938110352
1780625519912142800,9.328142822265624,0.05488082394003868,0.16012901067733765,-1.0084137916564941
1780625519922172700,9.338172607421875,-0.0577913373708725,0.3246711790561676,-0.955647349357605
1780625519932202800,9.34820263671875,-0.10734105110168457,0.5102066993713379,-0.8296966552734375
1780625519942231800,9.358231689453126,-0.12919732928276062,0.5876427292823792,-0.6062110066413879
1780625519952262000,9.368261962890625,-0.16037149727344513,0.5386072993278503,-0.2975122928619385
1780625519962290700,9.378290771484375,-0.22080427408218384,0.45513346791267395,0.02214520238339901
1780625519972320800,9.38832080078125,-0.3010464012622833,0.4076562225818634,0.29513493180274963
1780625519982349800,9.398349853515626,-0.38218313455581665,0.408762127161026,0.48360612988471985
1780625519992380000,9.4083798828125,-0.44717198610305786,0.42017561197280884,0.5915110111236572
1780625520002409000,9.418408935546875,-0.4947599470615387,0.42236414551734924,0.6420240998268127
1780625520012438800,9.428438720703125,-0.5284774303436279,0.4211316406726837,0.6662854552268982
1780625520022467800,9.4384677734375,-0.5518491864204407,0.4399562180042267,0.6701899766921997
1780625520032498000,9.448497802734375,-0.598812460899353,0.4605376720428467,0.6620106101036072
1780625520042528000,9.458528076171875,-0.647834300994873,0.5041578412055969,0.6612449288368225
1780625520052556800,9.468556884765626,-0.6711263060569763,0.5175827741622925,0.6577284932136536
1780625520062587000,9.4785869140625,-0.7149790525436401,0.4832075238227844,0.6500111222267151
1780625520072616000,9.488615966796875,-0.7901954650878906,0.4339502453804016,0.6392452716827393
1780625520082646000,9.49864599609375,-0.8742980360984802,0.34737715125083923,0.563452959060669
1780625520092675000,9.508675048828126,-0.9130533933639526,0.20080849528312683,0.36012646555900574
1780625520102704600,9.51870458984375,-0.8771141767501831,0.08508499711751938,0.01700243353843689
1780625520112733700,9.528733642578125,-0.7642440795898438,0.1291762888431549,-0.3237072229385376
1780625520122763500,9.538763427734375,-0.685243546962738,0.16262775659561157,-0.5123826265335083
1780625520132792600,9.54879248046875,-0.629202663898468,0.05371459573507309,-0.5463919639587402
1780625520142822400,9.558822509765625,-0.5876039266586304,-0.15251372754573822,-0.6444910764694214
1780625520152851500,9.5688515625,-0.4758065640926361,-0.2196195274591446,-0.8822061419487
1780625520162881500,9.578881591796875,-0.31607431173324585,0.038609910756349564,-0.8699703216552734
1780625520172910300,9.588910400390626,-0.31871429085731506,0.38890960812568665,-0.4879390299320221
1780625520182940400,9.5989404296875,-0.5717267394065857,0.8700864315032959,0.17025426030158997
1780625520192970500,9.608970458984375,-0.8039730191230774,0.7645381689071655,0.7627002596855164
1780625520202999600,9.61899951171875,-0.8197813034057617,0.02244810201227665,1.0286844968795776
1780625520213028400,9.6290283203125,-0.6478894352912903,-0.7548180818557739,0.968053936958313
1780625520223058400,9.639058349609375,-0.5065076351165771,-0.9966892004013062,0.9546774625778198
1780625520233087500,9.64908740234375,-0.49222537875175476,-0.8737006783485413,1.1259441375732422
1780625520243117600,9.65911767578125,-0.5597556233406067,-0.6898983120918274,1.3296188116073608
1780625520253146400,9.669146484375,-0.6103256344795227,-0.7071443796157837,1.4727797508239746
1780625520263176400,9.679176513671875,-0.6329909563064575,-0.8504847288131714,1.5946928262710571
1780625520273205500,9.68920556640625,-0.6648365259170532,-0.9863088726997375,1.6837064027786255
1780625520283235600,9.699235595703126,-0.77822345495224,-0.9708846807479858,1.6348152160644531
1780625520293264400,9.709264404296874,-0.9093095660209656,-0.8495907783508301,1.4447417259216309
1780625520303294500,9.71929443359375,-1.024624228477478,-0.7720373868942261,1.1536059379577637
1780625520313324500,9.729324462890625,-1.1569446325302124,-0.6822636127471924,0.857790470123291
1780625520323353600,9.739353515625,-1.2658154964447021,-0.5185424089431763,0.6056139469146729
1780625520333383700,9.7493837890625,-1.303339958190918,-0.37751203775405884,0.37688085436820984
1780625520343412500,9.75941259765625,-1.2927491664886475,-0.19128738343715668,0.15845485031604767
1780625520353442300,9.7694423828125,-1.2999199628829956,0.01834067702293396,0.027751699090003967
1780625520363471600,9.7794716796875,-1.3157460689544678,0.15028075873851776,0.049143705517053604
1780625520373501400,9.78950146484375,-1.3113698959350586,0.13292734324932098,0.22204038500785828
1780625520383530500,9.799530517578125,-1.3215559720993042,-0.03262194246053696,0.494393527507782
1780625520393560300,9.809560302734376,-1.3715318441390991,-0.3702223598957062,0.7765002846717834
1780625520403589400,9.81958935546875,-1.4887728691101074,-0.7636547088623047,1.0144188404083252
1780625520413619500,9.829619384765625,-1.654191493988037,-1.022505760192871,1.18442702293396
1780625520423648500,9.8396484375,-1.83294677734375,-1.0489366054534912,1.2492445707321167
1780625520433678300,9.84967822265625,-2.007746934890747,-0.8373398780822754,1.194028377532959
1780625520443707400,9.859707275390624,-2.098994731903076,-0.46486636996269226,1.0569627285003662
1780625520453737500,9.869737548828125,-2.1340177059173584,-0.061475761234760284,0.9043393731117249
1780625520463766500,9.8797666015625,-2.1453006267547607,0.1819140613079071,0.819750964641571
1780625520473796600,9.889796630859376,-2.1539931297302246,0.15770938992500305,0.8124752044677734
1780625520483825400,9.899825439453124,-2.1595616340637207,-0.09090477228164673,0.7996625304222107
1780625520493855500,9.90985546875,-2.2109527587890625,-0.51722252368927,0.8060501217842102
1780625520503885600,9.919885498046876,-2.324956178665161,-0.8754767179489136,0.8104003071784973
1780625520513914600,9.92991455078125,-2.4828710556030273,-1.016814112663269,0.7849040031433105
1780625520523944700,9.93994482421875,-2.6596269607543945,-0.8914292454719543,0.6778583526611328
1780625520533973500,9.949973388671875,-2.8236076831817627,-0.6495670676231384,0.547016978263855
1780625520544003600,9.960003662109376,-2.9442012310028076,-0.3892520070075989,0.4504501223564148
1780625520554032600,9.97003271484375,-2.990769863128662,-0.03906387835741043,0.28714799880981445
1780625520564062700,9.980062744140625,-3.0208306312561035,0.18971700966358185,0.11571346968412399
1780625520574091500,9.990091552734375,-3.068986654281616,0.24454617500305176,-0.009205030277371407
1780625520584121300,10.000121337890626,-3.052276372909546,0.23249787092208862,-0.1338237226009369
1780625520594150700,10.010150634765624,-3.023430585861206,0.26791125535964966,-0.2674632668495178
1780625520604180500,10.020180419921875,-3.0338783264160156,0.33827292919158936,-0.33700481057167053
1780625520614209500,10.03020947265625,-3.005894184112549,0.3958432674407959,-0.34078171849250793
1780625520624239400,10.0402392578125,-2.910827398300171,0.41912180185317993,-0.33056724071502686
1780625520634268400,10.050268310546874,-2.7982819080352783,0.35351696610450745,-0.31043240427970886
1780625520644298500,10.060298583984375,-2.6680736541748047,0.21270745992660522,-0.23147310316562653
1780625520654327300,10.070327392578125,-2.5501744747161865,0.03811249881982803,-0.07381103187799454
1780625520664357400,10.080357421875,-2.472365617752075,-0.04543577507138252,0.18304255604743958
1780625520674386400,10.090386474609375,-2.467010736465454,-0.009849551133811474,0.4791756868362427
1780625520684416500,10.10041650390625,-2.474745988845825,0.11011093854904175,0.7360504865646362
1780625520694446600,10.110446533203126,-2.4535536766052246,0.23350398242473602,0.9204975366592407
1780625520704475400,10.120475341796874,-2.3772971630096436,0.2554343640804291,1.0217933654785156
1780625520714505500,10.13050537109375,-2.256317377090454,0.13924862444400787,0.9940578937530518
1780625520724534500,10.140534423828125,-2.100956916809082,-0.07758940011262894,0.8124330043792725
1780625520734564600,10.150564697265626,-1.9258486032485962,-0.17072546482086182,0.5749988555908203
1780625520744593400,10.160593505859374,-1.7582383155822754,0.01664557307958603,0.4017583131790161
1780625520754623500,10.17062353515625,-1.5946794748306274,0.3652067482471466,0.3083072006702423
1780625520764652500,10.180652587890625,-1.4400852918624878,0.6908230185508728,0.25346827507019043
1780625520774682600,10.1906826171875,-1.3094838857650757,0.9284614324569702,0.1960662305355072
1780625520784711700,10.200711669921875,-1.217539668083191,1.047917127609253,0.12794777750968933
1780625520794741500,10.210741455078125,-1.152677297592163,1.015033483505249,0.07049459964036942
1780625520804770600,10.2207705078125,-1.0809712409973145,0.8228766322135925,0.03968387097120285
1780625520814800400,10.23080029296875,-1.0473666191101074,0.546539843082428,0.03545104339718819
1780625520824829700,10.24082958984375,-1.0313111543655396,0.3734271824359894,0.044725336134433746
1780625520834859500,10.250859619140625,-0.9911676645278931,0.3351317346096039,0.016859348863363266
1780625520844888600,10.260888671875,-0.9315013885498047,0.37142619490623474,-0.05397985130548477
1780625520854918400,10.27091845703125,-0.8412026166915894,0.40658658742904663,-0.1572873294353485
1780625520864947500,10.280947509765625,-0.6998997330665588,0.3737703859806061,-0.2750907242298126
1780625520874977500,10.2909775390625,-0.5118702054023743,0.28248175978660583,-0.4128270149230957
1780625520885006300,10.30100634765625,-0.32785987854003906,0.14021754264831543,-0.5616268515586853
1780625520895036400,10.311036376953124,-0.22173023223876953,0.04831130802631378,-0.6751070618629456
1780625520905066500,10.32106640625,-0.20036132633686066,0.14320892095565796,-0.7102882862091064
1780625520915095600,10.331095458984375,-0.21755549311637878,0.3264908492565155,-0.6486995220184326
1780625520925125600,10.341125732421874,-0.2598564326763153,0.4121163785457611,-0.5309256315231323
1780625520935154400,10.351154541015624,-0.3078380823135376,0.395577609539032,-0.40746545791625977
1780625520945184500,10.3611845703125,-0.3401799201965332,0.3520040512084961,-0.28782886266708374
1780625520955213600,10.371213623046875,-0.36271345615386963,0.267168790102005,-0.1902114599943161
1780625520965243600,10.38124365234375,-0.33502522110939026,0.20118814706802368,-0.1182059794664383
1780625520975272400,10.3912724609375,-0.24130244553089142,0.12995392084121704,-0.09617923945188522
1780625520985302500,10.401302490234375,-0.1409338116645813,0.09438084810972214,-0.12633293867111206
1780625520995331600,10.41133154296875,-0.060741495341062546,0.060603976249694824,-0.18469132483005524
1780625521005361700,10.421361572265624,-0.005005684215575457,0.009201732464134693,-0.2881639897823334
1780625521015390500,10.431390380859375,-0.0004519448848441243,0.0022431586403399706,-0.4101402461528778
1780625521025420500,10.441420654296875,0.005793299991637468,0.0650390088558197,-0.4745013415813446
1780625521035449600,10.45144970703125,0.043557990342378616,0.15157654881477356,-0.47226083278656006
1780625521045479400,10.4614794921875,0.09681107848882675,0.22960135340690613,-0.39916107058525085
1780625521055508700,10.4715087890625,0.13225029408931732,0.3453647196292877,-0.24440079927444458
1780625521065538300,10.481538330078125,0.14182434976100922,0.4763094186782837,-0.08971747010946274
1780625521075567400,10.4915673828125,0.15289618074893951,0.6123393774032593,-0.023609556257724762
1780625521085597400,10.501597412109374,0.1582646518945694,0.5900189876556396,-0.0625578984618187
1780625521095627300,10.511627197265625,0.09676533937454224,0.481501042842865,-0.2020106017589569
1780625521105656300,10.52165625,-0.0030354615300893784,0.4895519018173218,-0.33362993597984314
1780625521115686400,10.531686279296874,-0.05216385796666145,0.5229202508926392,-0.34330758452415466
1780625521125715200,10.541715087890625,-0.007689634803682566,0.4686927795410156,-0.2727815806865692
1780625521135745300,10.551745361328125,0.05465682968497276,0.3882567882537842,-0.25162675976753235
1780625521145774300,10.5617744140625,0.10002290457487106,0.44611218571662903,-0.2838815152645111
1780625521155804400,10.571804443359374,0.1493377387523651,0.608359694480896,-0.33914875984191895
1780625521165833500,10.58183349609375,0.19302824139595032,0.6877400279045105,-0.41761207580566406
1780625521175863300,10.59186328125,0.2334856539964676,0.6737669706344604,-0.49629276990890503
1780625521185892400,10.601892333984376,0.25109362602233887,0.6732323169708252,-0.5733552575111389
1780625521195922400,10.61192236328125,0.23833467066287994,0.7653792500495911,-0.6343006491661072
1780625521205951500,10.621951416015625,0.2180882841348648,0.9743832349777222,-0.6344472765922546
1780625521215981600,10.631981689453125,0.2052379995584488,1.2795964479446411,-0.4886389672756195
1780625521226010400,10.64201025390625,0.14993643760681152,1.397747278213501,-0.2573516070842743
1780625521236040400,10.65204052734375,0.007408310659229755,1.181173324584961,-0.08001462370157242
1780625521246069500,10.662069580078125,-0.23048172891139984,0.591444730758667,-0.08555129915475845
1780625521256099600,10.672099609375,-0.4060889780521393,-0.0014239107258617878,-0.20543162524700165
1780625521266128400,10.68212841796875,-0.45848730206489563,-0.33623337745666504,-0.40467625856399536
1780625521276158200,10.692158203125,-0.6087098121643066,-0.3707471489906311,-0.6125428676605225
1780625521286188300,10.702188232421875,-0.8394898772239685,-0.21539781987667084,-0.7387939691543579
1780625521296217300,10.71221728515625,-0.9839442372322083,-0.029808785766363144,-0.7739484906196594
1780625521306247400,10.722247314453124,-0.9041374325752258,0.20173697173595428,-0.7083575129508972
1780625521316276200,10.732276123046875,-0.7345151305198669,0.3055941164493561,-0.6233507990837097
1780625521326306300,10.742306396484375,-0.5794350504875183,0.26385870575904846,-0.5661426186561584
1780625521336335400,10.75233544921875,-0.46905261278152466,0.26565977931022644,-0.5026342272758484
1780625521346365400,10.762365478515624,-0.4396995007991791,0.27849531173706055,-0.477477490901947
1780625521356394200,10.772394287109375,-0.4393745958805084,0.25511595606803894,-0.4852145314216614
1780625521366424300,10.78242431640625,-0.43884414434432983,0.15947850048542023,-0.5302537083625793
1780625521376453400,10.792453369140626,-0.4826502203941345,0.028125811368227005,-0.5725423097610474
1780625521386483500,10.8024833984375,-0.5240681767463684,-0.03369215503334999,-0.554733395576477
1780625521396512300,10.81251220703125,-0.5156275629997253,0.008508030325174332,-0.43002209067344666
1780625521406542300,10.822542236328125,-0.4386119842529297,0.14536342024803162,-0.260140597820282
1780625521416571400,10.8325712890625,-0.3455166518688202,0.21141619980335236,-0.1271849423646927
1780625521426601500,10.8426015625,-0.253597229719162,0.19364485144615173,-0.08866918087005615
1780625521436630500,10.852630615234375,-0.180558443069458,0.1721358299255371,-0.16081395745277405
1780625521446660400,10.862660400390626,-0.11722791939973831,0.14588311314582825,-0.2795022130012512
1780625521456689400,10.872689453125,-0.04591299220919609,0.1174384355545044,-0.3383394181728363
1780625521466719500,10.882719482421875,0.014417959377169609,0.10038231313228607,-0.30359429121017456
1780625521476749300,10.892749267578125,0.06206324324011803,0.08786758780479431,-0.20552152395248413
1780625521486778400,10.9027783203125,0.12452193349599838,0.106239452958107,-0.10387775301933289
1780625521496808200,10.91280810546875,0.15562021732330322,0.15490952134132385,-0.05885328724980354
1780625521506837200,10.922837158203125,0.11602403968572617,0.2508375942707062,-0.0497346930205822
1780625521516867300,10.932867431640625,0.053017377853393555,0.2699097990989685,-0.0664372444152832
1780625521526896400,10.942896484375,0.00548598263412714,0.18704503774642944,-0.09546586126089096
1780625521536926200,10.95292626953125,-0.0199890173971653,0.058395713567733765,-0.1339282989501953
1780625521546955300,10.962955322265625,-0.03197595104575157,-0.05839361995458603,-0.1537846475839615
1780625521556985300,10.9729853515625,-0.02900252863764763,-0.15187563002109528,-0.12849552929401398
1780625521567014400,10.983014404296876,0.017674878239631653,-0.2232290506362915,-0.06408076733350754
1780625521577044500,10.99304443359375,0.08443526923656464,-0.1874271184206009,0.05919616296887398
1780625521587073300,11.0030732421875,0.17431952059268951,0.010370265692472458,0.23182658851146698
1780625521597103400,11.013103271484376,0.26146000623703003,0.2606291174888611,0.36522939801216125
1780625521607132400,11.02313232421875,0.36697810888290405,0.4419224262237549,0.4042530953884125
1780625521617162500,11.03316259765625,0.4822796583175659,0.519092321395874,0.35957324504852295
1780625521627191300,11.04319140625,0.5786751508712769,0.45199480652809143,0.2005622535943985
1780625521637221400,11.053221435546876,0.5603499412536621,0.29212310910224915,-0.05256081745028496
1780625521647250400,11.06325048828125,0.44215092062950134,0.15849852561950684,-0.2825463116168976
1780625521657280500,11.073280517578125,0.3070405125617981,0.021839480847120285,-0.3610805571079254
1780625521667309300,11.083309326171875,0.20378226041793823,-0.09938458353281021,-0.3429785370826721
1780625521677339400,11.09333935546875,0.13882482051849365,-0.15686491131782532,-0.2658126652240753
1780625521687369500,11.103369384765625,0.12661316990852356,-0.08395156264305115,-0.146566703915596
1780625521697398500,11.1133984375,0.18674516677856445,0.09344439208507538,0.020465873181819916
1780625521707428400,11.123428466796875,0.3351464867591858,0.2919670343399048,0.1713198572397232
1780625521717457400,11.13345751953125,0.49755457043647766,0.44727060198783875,0.23712258040905
1780625521727487200,11.1434873046875,0.6222874522209167,0.5393469929695129,0.20421896874904633
1780625521737516300,11.153516357421875,0.7024747133255005,0.584412157535553,0.11018888652324677
1780625521747546400,11.16354638671875,0.729341983795166,0.5847297310829163,0.012922018766403198
1780625521757575200,11.1735751953125,0.7145707607269287,0.5527448654174805,-0.07808991521596909
1780625521767605200,11.183605224609375,0.6392751932144165,0.5160976648330688,-0.15561623871326447
1780625521777634300,11.19363427734375,0.5090141296386719,0.4628855884075165,-0.20643042027950287
1780625521787664400,11.203664306640626,0.3366064727306366,0.4312439262866974,-0.2162153273820877
1780625521797693400,11.213693359375,0.15538261830806732,0.45903855562210083,-0.19213928282260895
1780625521807723300,11.22372314453125,0.04387008026242256,0.5092158913612366,-0.1389726996421814
1780625521817752300,11.23375244140625,-0.009435752406716347,0.5498533248901367,-0.086045041680336
1780625521827782400,11.243782470703126,-0.009610631503164768,0.5110570788383484,-0.06748660653829575
1780625521837811500,11.2538115234375,-0.01202345546334982,0.4149715304374695,-0.06577605754137039
1780625521847841300,11.26384130859375,-0.032306112349033356,0.36824846267700195,-0.03708692267537117
1780625521857870300,11.273870361328125,-0.02186145819723606,0.32657158374786377,-0.017863959074020386
1780625521867900400,11.283900390625,0.00010615377686917782,0.30176809430122375,-0.021126873791217804
1780625521877930500,11.293930419921875,0.0074796476401388645,0.2510617673397064,-0.042919255793094635
1780625521887959600,11.30395947265625,-0.01125981193035841,0.23798269033432007,-0.022202780470252037
1780625521897989400,11.3139892578125,-0.019151823595166206,0.24099287390708923,0.05262884870171547
1780625521908018400,11.324018310546874,-0.012193214148283005,0.23937490582466125,0.12656012177467346
1780625521918048300,11.33404833984375,0.015424298122525215,0.23521772027015686,0.1612139791250229
1780625521928077600,11.34407763671875,0.053086016327142715,0.2322566658258438,0.12647803127765656
1780625521938107400,11.354107421875,0.07813730835914612,0.23861655592918396,0.06134456396102905
1780625521948136400,11.364136474609374,0.08680344372987747,0.2134069800376892,0.020191166549921036
1780625521958166300,11.374166259765625,0.09816449135541916,0.20795361697673798,0.050041742622852325
1780625521968195300,11.3841953125,0.12093345075845718,0.20142582058906555,0.14158520102500916
1780625521978225400,11.394225341796876,0.14544677734375,0.17403441667556763,0.23561236262321472
1780625521988254200,11.404254150390624,0.16546626389026642,0.12127915024757385,0.3373125493526459
1780625521998284300,11.4142841796875,0.15717557072639465,0.1240384578704834,0.4443812370300293
1780625522008313300,11.424313232421875,0.13716575503349304,0.19446685910224915,0.5491784811019897
1780625522018343400,11.434343505859376,0.12283289432525635,0.30274567008018494,0.6343724727630615
1780625522028372200,11.444372314453124,0.10020185261964798,0.45297467708587646,0.7097054719924927
1780625522038402300,11.45440234375,0.10458461940288544,0.5416060090065002,0.7551619410514832
1780625522048431400,11.464431396484375,0.1633499562740326,0.5033014416694641,0.7645171284675598
1780625522058461400,11.47446142578125,0.23127467930316925,0.4304061830043793,0.7354993224143982
1780625522068491500,11.484491455078125,0.2836954593658447,0.3534671366214752,0.6367811560630798
1780625522078520300,11.494520263671875,0.3545358180999756,0.34660205245018005,0.4590873122215271
1780625522088550400,11.50455029296875,0.41350501775741577,0.4435945451259613,0.24453988671302795
1780625522098579200,11.5145791015625,0.5619246363639832,0.5912975072860718,-0.019046464934945107
1780625522108609300,11.524609375,0.793505072593689,0.8189482688903809,-0.2108955681324005
1780625522118638300,11.534638427734375,0.9652416706085205,0.8879877924919128,-0.44852861762046814
1780625522128668400,11.54466845703125,1.0594645738601685,0.7760124802589417,-0.8524795174598694
1780625522138697200,11.554697265625,0.9810134768486023,0.5525474548339844,-1.3744593858718872
1780625522148727300,11.564727294921875,0.9201193451881409,0.2597561776638031,-1.879003882408142
1780625522158756400,11.57475634765625,0.7490922212600708,0.005989966448396444,-2.2227087020874023
1780625522168786200,11.5847861328125,0.23613658547401428,-0.0022036507725715637,-2.262369394302368
1780625522178815500,11.5948154296875,-0.6927495002746582,0.28456181287765503,-1.8027805089950562
1780625522188845000,11.604844970703125,-1.5952465534210205,0.39052537083625793,-1.0763205289840698
1780625522198874000,11.6148740234375,-1.8513987064361572,-0.11542754620313644,-0.6198387742042542
1780625522208904200,11.624904296875,-1.7153902053833008,-0.4822276532649994,-0.47999483346939087
1780625522218933200,11.634933349609375,-1.557059407234192,-0.5044485330581665,-0.43535491824150085
1780625522228963000,11.644963134765625,-1.425203561782837,-0.4668318033218384,-0.4203133285045624
1780625522238992100,11.6549921875,-1.3122940063476562,-0.4475491940975189,-0.3396903872489929
1780625522249022200,11.665022216796874,-1.2719289064407349,-0.3786138594150543,-0.23502518236637115
1780625522259051300,11.67505126953125,-1.2557995319366455,-0.3229109048843384,-0.17593629658222198
1780625522269081300,11.685081298828125,-1.1724082231521606,-0.31575435400009155,-0.1878817081451416
1780625522279111200,11.695111083984376,-1.0982849597930908,-0.382630854845047,-0.24467815458774567
1780625522289140200,11.70514013671875,-1.1607507467269897,-0.505656898021698,-0.31045788526535034
1780625522299170300,11.71517041015625,-1.3871018886566162,-0.5494976043701172,-0.28581804037094116
1780625522309199400,11.725199462890625,-1.703818440437317,-0.4961034953594208,-0.09895777702331543
1780625522319229400,11.7352294921875,-1.9974031448364258,-0.46667662262916565,0.06067183241248131
1780625522329258200,11.74525830078125,-2.1472463607788086,-0.45025068521499634,0.14317065477371216
1780625522339288300,11.755288330078125,-2.1312577724456787,-0.508859395980835,0.23083606362342834
1780625522349317400,11.7653173828125,-2.0073318481445312,-0.7385176420211792,0.29931995272636414
1780625522359347500,11.775347412109374,-1.6206326484680176,-1.0399019718170166,0.2523636221885681
1780625522369376300,11.785376220703125,-1.1715573072433472,-1.3284659385681152,0.1765924096107483
1780625522379406300,11.79540625,-0.9756951928138733,-1.4953243732452393,0.11021365225315094
1780625522389435400,11.805435302734375,-0.973323404788971,-1.5287444591522217,0.01139829121530056
1780625522399465200,11.81546533203125,-1.0967178344726562,-1.39250910282135,-0.010078505612909794
1780625522409494300,11.825494384765625,-1.197284460067749,-1.2487701177597046,0.08309248089790344
1780625522419524000,11.835524169921875,-1.2276253700256348,-1.2323062419891357,0.2934923470020294
1780625522429553200,11.84555322265625,-1.2401443719863892,-1.2491023540496826,0.507113516330719
1780625522439583200,11.855583251953124,-1.3214472532272339,-1.2069642543792725,0.6381000280380249
1780625522449612000,11.865612060546875,-1.486670970916748,-1.3670263290405273,0.5541501045227051
1780625522459642000,11.87564208984375,-1.6116595268249512,-1.6676785945892334,0.24365533888339996
1780625522469672200,11.885672119140626,-1.5361270904541016,-1.8752731084823608,-0.21699251234531403
1780625522479701200,11.895701171875,-1.2413949966430664,-1.9171550273895264,-0.5335728526115417
1780625522489731300,11.9057314453125,-0.984330415725708,-1.7824527025222778,-0.4810221195220947
1780625522499760000,11.915760009765625,-1.030784249305725,-1.5866116285324097,-0.21443729102611542
1780625522509790200,11.925790283203124,-1.3360481262207031,-1.5528736114501953,-0.2131708413362503
1780625522519819300,11.9358193359375,-1.467263102531433,-1.636877179145813,-0.40570884943008423
1780625522529849300,11.945849365234375,-1.71511709690094,-1.380527377128601,-0.3702023923397064
1780625522539878100,11.955878173828125,-1.8706326484680176,-1.0307140350341797,-0.0764988586306572
1780625522549908200,11.965908203125,-1.9297503232955933,-0.9742680788040161,0.16972044110298157
1780625522559937300,11.975937255859375,-2.2653660774230957,-1.0925054550170898,0.18438780307769775
1780625522569967400,11.98596728515625,-2.6702077388763428,-1.2545675039291382,-0.026429258286952972
1780625522579996400,11.995996337890626,-2.8606975078582764,-1.4292644262313843,-0.3049921691417694
1780625522590026200,12.006026123046874,-2.9233903884887695,-1.6556684970855713,-0.5178719162940979
1780625522600055300,12.01605517578125,-3.0347275733947754,-1.923255443572998,-0.8109493255615234
1780625522610085400,12.02608544921875,-3.0496604442596436,-1.9789403676986694,-1.029908299446106
1780625522620114400,12.036114501953126,-3.0062763690948486,-1.732924222946167,-1.07615327835083
1780625522630144300,12.046144287109374,-2.9910507202148438,-1.3432140350341797,-1.005582571029663
1780625522640173300,12.05617333984375,-2.955029010772705,-1.0939844846725464,-0.8798874020576477
1780625522650203100,12.066203125,-2.7952475547790527,-1.0357143878936768,-0.7397654056549072
1780625522660233200,12.076233154296874,-2.452371835708618,-1.2496548891067505,-0.6872134804725647
1780625522670262300,12.08626220703125,-1.9317545890808105,-1.643886685371399,-0.6548076868057251
1780625522680292000,12.0962919921875,-1.34885573387146,-1.8675203323364258,-0.6105020046234131
1780625522690321200,12.106321044921875,-0.9157089591026306,-1.8301811218261719,-0.6571821570396423
1780625522700351200,12.116351318359374,-0.6519122123718262,-1.447929859161377,-0.7174981832504272
1780625522710380300,12.12638037109375,-0.5804130434989929,-0.9510850310325623,-0.6945860385894775
1780625522720410400,12.136410400390625,-0.587581992149353,-0.5706402063369751,-0.5373759269714355
1780625522730439200,12.146439208984376,-0.5617925524711609,-0.4313552677631378,-0.31063663959503174
1780625522740469200,12.15646923828125,-0.3960139751434326,-0.42418551445007324,-0.12057721614837646
1780625522750498300,12.166498291015625,-0.11546837538480759,-0.3900287449359894,-0.062061525881290436
1780625522760528400,12.1765283203125,0.15708325803279877,-0.25870373845100403,-0.11189725250005722
1780625522770557200,12.18655712890625,0.40369126200675964,-0.14388975501060486,-0.14794930815696716
1780625522780587300,12.196587158203124,0.5360168218612671,-0.07033590972423553,-0.18638883531093597
1780625522790616300,12.2066162109375,0.5360433459281921,0.05743429437279701,-0.18373936414718628
1780625522800646400,12.216646484375,0.4128257632255554,0.1761244684457779,-0.10987284779548645
1780625522810675200,12.22667529296875,0.2861576974391937,0.2440226525068283,-0.048200130462646484
1780625522820705300,12.236705322265625,0.17906053364276886,0.25640448927879333,-0.10129716992378235
1780625522830734300,12.246734375,0.09017698466777802,0.25979557633399963,-0.22096101939678192
1780625522840764200,12.25676416015625,0.03826398774981499,0.23180466890335083,-0.3370508849620819
1780625522850793500,12.26679345703125,0.07191584259271622,0.15684130787849426,-0.42103713750839233
1780625522860823000,12.276822998046875,0.1770515739917755,0.11359450221061707,-0.46502989530563354
1780625522870853000,12.28685302734375,0.2676149904727936,0.14863669872283936,-0.4818035662174225
1780625522880882200,12.296882080078126,0.3131316304206848,0.2697487473487854,-0.44767650961875916
1780625522890912300,12.306912353515624,0.27060335874557495,0.4174353778362274,-0.40773889422416687
1780625522900941000,12.316941162109375,0.17766596376895905,0.5142114758491516,-0.40292656421661377
1780625522910971100,12.32697119140625,0.017108146101236343,0.5482245683670044,-0.4217957854270935
1780625522921000200,12.337000244140626,-0.20211848616600037,0.5892798900604248,-0.5107672214508057
1780625522931030300,12.3470302734375,-0.3079577684402466,0.59956955909729,-0.6677470803260803
1780625522941059300,12.357059326171875,-0.2618350088596344,0.5676044225692749,-0.8277841806411743
1780625522951089200,12.367089111328125,-0.17656832933425903,0.5200335383415222,-0.9183729887008667
1780625522961118200,12.3771181640625,-0.11412972211837769,0.485419362783432,-0.9550337791442871
1780625522971148300,12.387148193359375,-0.09384853392839432,0.4917091727256775,-0.9466306567192078
1780625522981177300,12.39717724609375,-0.11238440126180649,0.5802139639854431,-0.8766529560089111
1780625522991207400,12.40720751953125,-0.15719301998615265,0.6360436677932739,-0.7882378101348877
1780625523001236200,12.417236328125,-0.17319409549236298,0.5677551627159119,-0.7062175273895264
1780625523011266300,12.427266357421875,-0.15232473611831665,0.4530900716781616,-0.6382656097412109
1780625523021295400,12.43729541015625,-0.10287942737340927,0.3586898148059845,-0.6201316118240356
1780625523031325400,12.447325439453126,-0.01609276607632637,0.27878573536872864,-0.655799925327301
1780625523041354200,12.457354248046874,0.12150929868221283,0.2476334124803543,-0.6987329721450806
1780625523051384300,12.46738427734375,0.2826012969017029,0.22915266454219818,-0.7313417196273804
1780625523061414100,12.4774140625,0.4005979597568512,0.26021310687065125,-0.7539572715759277
1780625523071443200,12.487443115234376,0.392399400472641,0.4005052447319031,-0.7632081508636475
1780625523081473300,12.497473388671875,0.26724758744239807,0.5794225335121155,-0.7742218971252441
