time,seconds_elapsed,z,y,x
1780625510647388200,0.06338818359375,-0.2866472005844116,-0.29710012674331665,0.0660562515258789
1780625510657418200,0.073418212890625,-0.3658701181411743,-0.2005418837070465,-0.19317452609539032
1780625510667447300,0.083447265625,-0.36706748604774475,-0.05692000687122345,-0.4840814471244812
1780625510677477400,0.093477294921875,-0.2764395773410797,0.14911039173603058,-0.7525800466537476
1780625510687506200,0.103506103515625,-0.13223020732402802,0.42401811480522156,-0.8631025552749634
1780625510697536300,0.113536376953125,0.11180669069290161,0.8415051102638245,-0.9590005874633789
1780625510707565300,0.1235654296875,0.47477957606315613,1.4970594644546509,-1.1569833755493164
1780625510717594000,0.133593994140625,0.7622153162956238,2.0055477619171143,-1.20921790599823
1780625510727624200,0.143624267578125,0.814864993095398,2.0317769050598145,-1.1032328605651855
1780625510737653200,0.1536533203125,0.6537983417510986,1.6060248613357544,-0.9644411206245422
1780625510747683300,0.163683349609375,0.39497101306915283,0.9694274067878723,-0.7991243600845337
1780625510757712400,0.17371240234375,0.13165736198425293,0.31086626648902893,-0.5917157530784607
1780625510767742200,0.1837421875,-0.0639725923538208,-0.20238026976585388,-0.34259435534477234
1780625510777771300,0.193771240234375,-0.14189961552619934,-0.4649503827095032,-0.09403621405363083
1780625510787801300,0.20380126953125,-0.11868750303983688,-0.4493780732154846,0.1489681750535965
1780625510797830400,0.213830322265625,-0.05730217322707176,-0.2994985580444336,0.4344358742237091
1780625510807860200,0.223860107421875,-0.045396510511636734,-0.10244568437337875,0.7650271058082581
1780625510817889300,0.23388916015625,-0.14127962291240692,0.08686086535453796,1.0985848903656006
1780625510827919400,0.24391943359375,-0.3081197440624237,0.1878998577594757,1.3636647462844849
1780625510837948400,0.253948486328125,-0.45764797925949097,0.15926529467105865,1.5218969583511353
1780625510847977200,0.263977294921875,-0.5269826054573059,0.0025486452504992485,1.5432709455490112
1780625510858007300,0.27400732421875,-0.5443607568740845,-0.1630171537399292,1.4439414739608765
1780625510868036400,0.284036376953125,-0.5395785570144653,-0.26387131214141846,1.2509448528289795
1780625510878066200,0.294066162109375,-0.48955318331718445,-0.3033175468444824,1.0101157426834106
1780625510888095200,0.30409521484375,-0.3961012661457062,-0.3079644739627838,0.7624451518058777
1780625510898125000,0.314125,-0.29050320386886597,-0.13144004344940186,0.6113818883895874
1780625510908154400,0.324154296875,-0.20886586606502533,0.20354007184505463,0.5731021165847778
1780625510918184200,0.33418408203125,-0.1997261643409729,0.4312281012535095,0.5783812999725342
1780625510928213200,0.344213134765625,-0.28319603204727173,0.4276946187019348,0.5927711725234985
1780625510938243000,0.3542431640625,-0.41616126894950867,0.18211548030376434,0.6061685085296631
1780625510948272000,0.364272216796875,-0.549690842628479,-0.2134835124015808,0.6248785257339478
1780625510958302200,0.37430224609375,-0.6721403002738953,-0.566508412361145,0.6405629515647888
1780625510968331300,0.384331298828125,-0.7775029540061951,-0.718774676322937,0.6112349033355713
1780625510978360000,0.394360107421875,-0.8082648515701294,-0.6807678937911987,0.5448537468910217
1780625510988390100,0.40439013671875,-0.6859123110771179,-0.4438767731189728,0.47811225056648254
1780625510998419200,0.414419189453125,-0.3809334933757782,-0.12082202732563019,0.3935936391353607
1780625511008449300,0.42444921875,-0.0014594122767448425,0.17883579432964325,0.2953847646713257
1780625511018478000,0.43447802734375,0.2137271910905838,0.4095960259437561,0.19383923709392548
1780625511028508200,0.444508056640625,0.22247488796710968,0.38970649242401123,0.08414443582296371
1780625511038537200,0.454537109375,0.1509423702955246,0.2095865160226822,0.03995194286108017
1780625511048567300,0.4645673828125,0.053109291940927505,-0.05770483985543251,0.0713210478425026
1780625511058596000,0.47459619140625,-0.06691405177116394,-0.37585192918777466,0.11489356309175491
1780625511068626200,0.484626220703125,-0.17703735828399658,-0.6302282810211182,0.12149900197982788
1780625511078655200,0.4946552734375,-0.21896857023239136,-0.7434174418449402,0.09191607683897018
1780625511088685600,0.504685546875,-0.16545633971691132,-0.7544863224029541,0.050036001950502396
1780625511098714400,0.51471435546875,-0.034873560070991516,-0.7072367668151855,0.025898175314068794
1780625511108744400,0.524744384765625,0.11718867719173431,-0.5093234181404114,0.017714016139507294
1780625511118773500,0.5347734375,0.1724250316619873,-0.24953526258468628,0.0246648658066988
1780625511128802300,0.54480224609375,0.12805970013141632,0.0026375947054475546,0.02592667192220688
1780625511138832400,0.554832275390625,0.05066024884581566,0.1801154464483261,0.0011773834703490138
1780625511148861400,0.564861328125,-0.010683536529541016,0.22559797763824463,-0.024708809331059456
1780625511158891500,0.5748916015625,-0.019044265151023865,0.13884390890598297,-0.03880864754319191
1780625511168920600,0.584920654296875,0.015720639377832413,-0.11009534448385239,-0.03251053765416145
1780625511178950400,0.594950439453125,0.07950600981712341,-0.47227832674980164,0.0018698053900152445
1780625511188979500,0.6049794921875,0.14899639785289764,-0.9086801409721375,0.07510140538215637
1780625511199009500,0.615009521484375,0.20865733921527863,-1.2669330835342407,0.17492413520812988
1780625511209038600,0.62503857421875,0.27761563658714294,-1.420957326889038,0.16112764179706573
1780625511219068400,0.635068359375,0.41419583559036255,-1.3440850973129272,0.05186878889799118
1780625511229097500,0.645097412109375,0.6038067936897278,-1.068618893623352,-0.15301138162612915
1780625511239127300,0.655127197265625,0.7600568532943726,-0.7741153836250305,-0.4272085726261139
1780625511249156400,0.66515625,0.79006427526474,-0.4824904799461365,-0.7412149906158447
1780625511259186400,0.6751865234375,0.7627924680709839,-0.3878505229949951,-0.9873536229133606
1780625511269215200,0.68521533203125,0.7672870755195618,-0.5847124457359314,-1.103063702583313
1780625511279244500,0.69524462890625,0.8534850478172302,-0.8624977469444275,-0.9890495538711548
1780625511289274400,0.7052744140625,1.0388157367706299,-1.000475287437439,-0.6449952125549316
1780625511299303400,0.715303466796875,1.2125470638275146,-1.1241018772125244,-0.1772695928812027
1780625511309333200,0.725333251953125,1.2746567726135254,-1.3431764841079712,0.2568504214286804
1780625511319362300,0.7353623046875,1.2632536888122559,-1.6726491451263428,0.5231239199638367
1780625511329392400,0.745392333984375,1.3128113746643066,-2.038213014602661,0.5715271234512329
1780625511339421400,0.75542138671875,1.5137250423431396,-2.3959360122680664,0.45108383893966675
1780625511349451300,0.765451171875,1.8035070896148682,-2.721571683883667,0.2525659501552582
1780625511359480300,0.775480224609375,2.091402053833008,-2.789085865020752,-0.006984672509133816
1780625511369510400,0.785510498046875,2.235873222351074,-2.5115275382995605,-0.3796365261077881
1780625511379539500,0.79553955078125,2.299168109893799,-2.1850364208221436,-0.8024559617042542
1780625511389569500,0.805569580078125,2.371061325073242,-1.8881958723068237,-1.130984902381897
1780625511399598300,0.815598388671875,2.490527629852295,-1.7167577743530273,-1.2753374576568604
1780625511409628400,0.82562841796875,2.693892002105713,-1.9611976146697998,-1.1670507192611694
1780625511419657500,0.835657470703125,3.08569073677063,-2.6715633869171143,-0.7736032605171204
1780625511429687600,0.8456875,3.6695163249969482,-3.704413652420044,-0.16588030755519867
1780625511439716400,0.85571630859375,4.325422763824463,-4.8640899658203125,0.4971309304237366
1780625511449745400,0.865745361328125,5.0215864181518555,-6.029050350189209,1.081101655960083
1780625511459775500,0.875775390625,5.7417168617248535,-7.092499256134033,1.5149215459823608
1780625511469804500,0.885804443359375,6.464514255523682,-7.806413173675537,1.7614269256591797
1780625511479834400,0.89583447265625,7.150477886199951,-7.8294878005981445,1.817723035812378
1780625511489863400,0.905863525390625,7.839517116546631,-7.273365497589111,1.754368543624878
1780625511499893500,0.9158935546875,8.438837051391602,-6.601353168487549,1.7019245624542236
1780625511509922600,0.925922607421875,8.926395416259766,-6.172734260559082,1.8678479194641113
1780625511519952400,0.935952392578125,9.386569023132324,-5.8680100440979,2.407177209854126
1780625511529981400,0.9459814453125,9.709515571594238,-5.68019437789917,3.261460542678833
1780625511540011500,0.956011474609375,9.876093864440918,-5.508448600769043,4.207198143005371
1780625511550040600,0.96604052734375,9.850573539733887,-5.308505058288574,5.013807773590088
1780625511560070400,0.9760703125,9.562323570251465,-4.801432132720947,5.565737247467041
1780625511570099500,0.986099365234375,8.943034172058105,-3.556912899017334,5.7825493812561035
1780625511580129300,0.99612939453125,7.973351955413818,-1.6615309715270996,5.660801887512207
1780625511590158300,1.006158447265625,6.783139228820801,0.35304781794548035,5.258598804473877
1780625511600188400,1.0161884765625,5.467822074890137,1.9919168949127197,4.7714738845825195
1780625511610217200,1.02621728515625,4.0742573738098145,3.1274490356445312,4.504791259765625
1780625511620246500,1.03624658203125,2.7564961910247803,3.762174606323242,4.392268180847168
1780625511630276400,1.0462763671875,1.6036757230758667,3.951700210571289,4.251859188079834
1780625511640305400,1.056305419921875,0.653850257396698,3.8892765045166016,3.9560961723327637
1780625511650335200,1.066335205078125,-0.007179349660873413,3.6627514362335205,3.545537233352661
1780625511660364300,1.0763642578125,-0.483085960149765,3.2355740070343018,3.1925570964813232
1780625511670394400,1.086394287109375,-0.9040206670761108,2.5529019832611084,2.96435284614563
1780625511680423400,1.09642333984375,-1.2507996559143066,1.6784729957580566,2.7175538539886475
1780625511690453500,1.10645361328125,-1.4899941682815552,1.0264874696731567,2.214198112487793
1780625511700482300,1.116482421875,-1.8092880249023438,0.5756806135177612,1.4628267288208008
1780625511710512400,1.126512451171875,-2.331390142440796,0.1566535234451294,0.6030920147895813
1780625511720541400,1.13654150390625,-2.8051369190216064,0.1495727151632309,-0.6363388895988464
1780625511730571500,1.146571533203125,-3.3569114208221436,0.44275426864624023,-1.5497653484344482
1780625511740600300,1.156600341796875,-3.9041643142700195,0.5634679198265076,-1.8942310810089111
1780625511750630400,1.16663037109375,-4.320845603942871,0.6759723424911499,-2.0479633808135986
1780625511760659500,1.176659423828125,-4.520393371582031,0.9096958637237549,-2.213395357131958
1780625511770689500,1.186689453125,-4.455391883850098,0.6811628341674805,-2.4365196228027344
1780625511780718300,1.19671826171875,-4.182441234588623,0.2940004765987396,-2.543164014816284
1780625511790748400,1.20674853515625,-3.668461322784424,-0.10247310996055603,-2.646862030029297
1780625511800777500,1.216777587890625,-3.013026237487793,-0.5139389634132385,-2.7143759727478027
1780625511810806500,1.226806640625,-2.4563372135162354,-1.094759225845337,-2.7895655632019043
1780625511820836400,1.23683642578125,-2.0262861251831055,-1.6687713861465454,-2.7632100582122803
1780625511830865400,1.246865478515625,-1.607766032218933,-1.8047072887420654,-2.6344549655914307
1780625511840895500,1.2568955078125,-1.1856441497802734,-1.4845101833343506,-2.569298505783081
1780625511850924500,1.266924560546875,-0.7927634119987488,-0.8000756502151489,-2.4742202758789062
1780625511860954600,1.27695458984375,-0.5320364832878113,-0.16321022808551788,-2.2242496013641357
1780625511870983400,1.2869833984375,-0.338914155960083,0.1975780576467514,-2.139799118041992
1780625511881013500,1.297013427734375,-0.2774665057659149,0.22452685236930847,-2.3374149799346924
1780625511891042600,1.30704248046875,-0.31974896788597107,-0.15686817467212677,-2.415297746658325
1780625511901072400,1.317072265625,-0.42652228474617004,-0.7748299241065979,-2.3949687480926514
1780625511911101400,1.327101318359375,-0.554323136806488,-1.632494568824768,-2.395458221435547
1780625511921131300,1.33713134765625,-0.43333545327186584,-2.5422120094299316,-2.5424556732177734
1780625511931160600,1.34716064453125,0.2839803099632263,-2.9166743755340576,-2.7025067806243896
1780625511941190400,1.3571904296875,0.934782862663269,-2.4931278228759766,-2.848388671875
1780625511951219200,1.36721923828125,1.070099115371704,-1.504213571548462,-2.941290855407715
1780625511961249300,1.377249267578125,0.6815681457519531,-0.3210533857345581,-2.8206348419189453
1780625511971278300,1.3872783203125,0.24531202018260956,0.5769120454788208,-2.673142671585083
1780625511981308400,1.397308349609375,-0.004448011517524719,1.0622329711914062,-2.513150691986084
1780625511991337200,1.407337158203125,0.03115925006568432,0.7798462510108948,-2.319161891937256
1780625512001367300,1.4173671875,0.3228371739387512,0.09864508360624313,-1.9048362970352173
1780625512011396400,1.427396240234375,0.6117027997970581,-0.7104828953742981,-1.3573181629180908
1780625512021426400,1.437426513671875,0.6046097278594971,-1.3429391384124756,-0.7845579385757446
1780625512031455500,1.44745556640625,0.3193306028842926,-1.652387261390686,-0.2743375599384308
1780625512041484300,1.457484375,0.1696729212999344,-1.7965219020843506,0.23990873992443085
1780625512051514400,1.467514404296875,0.7269039750099182,-2.604644536972046,0.6134178638458252
1780625512061543400,1.47754345703125,1.8818128108978271,-3.773569107055664,0.5914720892906189
1780625512071573500,1.487573486328125,3.154036045074463,-4.5090837478637695,0.5892214775085449
1780625512081602300,1.497602294921875,4.323267459869385,-4.333986282348633,0.7584072947502136
1780625512091633000,1.5076328125,5.40808629989624,-3.755359411239624,0.9843423962593079
1780625512101662000,1.517661865234375,5.4977593421936035,-2.7664105892181396,1.3328300714492798
1780625512111692000,1.527692138671875,5.285440444946289,-2.029772996902466,2.2765538692474365
1780625512121720800,1.537720947265625,4.6042585372924805,-1.0543543100357056,2.935983180999756
1780625512131751000,1.5477509765625,3.9594788551330566,0.1021450087428093,3.324258327484131
1780625512141780000,1.557780029296875,2.737480401992798,1.1246297359466553,3.413980722427368
1780625512151810000,1.56781005859375,0.9034914970397949,2.2175726890563965,3.1111338138580322
1780625512161838800,1.5778388671875,-0.7680559158325195,2.8021490573883057,2.3872597217559814
1780625512171869000,1.587868896484375,-2.067357063293457,2.7288081645965576,1.600008249282837
1780625512181898000,1.59789794921875,-2.7049944400787354,2.9719345569610596,1.027294635772705
1780625512191927800,1.607927734375,-3.024083137512207,3.441847324371338,0.5633054375648499
1780625512201956900,1.617956787109375,-3.302295446395874,3.680755615234375,0.3230994939804077
1780625512211986700,1.627986572265625,-3.734313488006592,3.633295774459839,0.2301037758588791
1780625512222015700,1.638015625,-4.113837242126465,3.58876371383667,-0.05116491764783859
1780625512232045800,1.6480458984375,-4.258137226104736,3.1248130798339844,-0.33381393551826477
1780625512242075000,1.658074951171875,-4.11517858505249,2.2843306064605713,-0.3827314078807831
1780625512252104700,1.668104736328125,-4.039217472076416,1.2045009136199951,-0.20970076322555542
1780625512262133800,1.6781337890625,-3.6891531944274902,0.6362760663032532,-0.17065322399139404
1780625512272163800,1.688163818359375,-2.22208833694458,0.785504162311554,-1.131016492843628
1780625512282193000,1.69819287109375,-0.7381685972213745,0.5269719362258911,-2.32269024848938
1780625512292223000,1.708222900390625,-0.32768678665161133,-0.4895169734954834,-2.004563570022583
1780625512302251800,1.718251708984375,-0.6220020651817322,-1.567791223526001,-1.2211253643035889
1780625512312281900,1.72828173828125,-0.9122543931007385,-1.3624851703643799,-0.9542542695999146
1780625512322311000,1.738310791015625,-1.0084927082061768,-0.6301140189170837,-0.934340238571167
1780625512332339700,1.748339599609375,-0.9669799208641052,-0.006061887368559837,-1.1868510246276855
1780625512342369800,1.758369873046875,-0.7682543396949768,0.4643583595752716,-1.5628914833068848
1780625512352398800,1.76839892578125,-0.6199383735656738,0.45291101932525635,-1.7656645774841309
1780625512362429000,1.778428955078125,-0.5788268446922302,0.2061678171157837,-1.7820409536361694
1780625512372458000,1.7884580078125,-0.6370621919631958,-0.06855589151382446,-1.902604579925537
1780625512382487800,1.79848779296875,-0.6890367269515991,-0.49953100085258484,-1.8554635047912598
1780625512392516900,1.808516845703125,-0.7389800548553467,-0.49646276235580444,-1.5762139558792114
1780625512402547000,1.818546875,-0.7027389407157898,-0.2948630750179291,-1.712459921836853
1780625512412576000,1.828575927734375,-0.4875534176826477,0.14203809201717377,-1.9010272026062012
1780625512422606000,1.838606201171875,-0.3506610691547394,0.6418090462684631,-1.936889886856079
1780625512432635000,1.848634765625,-0.38210421800613403,1.0254992246627808,-1.988760232925415
1780625512442665000,1.8586650390625,-0.4574330747127533,1.5157601833343506,-2.1236443519592285
1780625512452694000,1.868694091796875,-0.37735846638679504,2.371713161468506,-2.552905559539795
1780625512462724000,1.87872412109375,-0.40642979741096497,2.794882297515869,-3.0824661254882812
1780625512472753000,1.8887529296875,-0.7926214337348938,2.813877820968628,-3.790472984313965
1780625512482782700,1.89878271484375,-0.8169568777084351,2.5949478149414062,-3.5049242973327637
1780625512492812000,1.90881201171875,-1.1118814945220947,1.5695339441299438,-2.8649184703826904
1780625512502841900,1.918841796875,-0.929119348526001,0.7635509371757507,-1.7591670751571655
1780625512512871000,1.928870849609375,-1.164320945739746,0.036919668316841125,-0.8893160223960876
1780625512522900700,1.938900634765625,-1.6864185333251953,-0.01167343370616436,-0.5928332209587097
1780625512532929800,1.9489296875,-1.8752774000167847,0.43760237097740173,-0.5548000931739807
1780625512542959900,1.9589599609375,-2.2635014057159424,0.5457512140274048,-0.7729257941246033
1780625512552988700,1.96898876953125,-1.8428760766983032,0.6882684230804443,-0.9876396656036377
1780625512563018800,1.979018798828125,-1.2699488401412964,0.13506674766540527,-0.7385693788528442
1780625512573047800,1.9890478515625,-1.3385710716247559,-0.9000488519668579,-0.24364887177944183
1780625512583078000,1.999077880859375,-1.5780774354934692,-1.6452462673187256,0.07491818070411682
1780625512593107000,2.00910693359375,-1.8471431732177734,-1.8280459642410278,0.2692010998725891
1780625512603136800,2.01913671875,-1.6149715185165405,-1.8128288984298706,0.36527809500694275
1780625512613165800,2.029165771484375,-0.9987716674804688,-1.9884222745895386,0.5035339593887329
1780625512623196000,2.03919580078125,-0.11225436627864838,-2.158470392227173,0.6454858183860779
1780625512633225000,2.049224853515625,0.7435244917869568,-1.993159532546997,0.4361099302768707
1780625512643254800,2.0592548828125,1.5689009428024292,-1.3578931093215942,-0.345010906457901
1780625512653283800,2.069283935546875,2.0730650424957275,-0.5907482504844666,-1.2331074476242065
1780625512663314000,2.07931396484375,2.4066054821014404,-0.18380951881408691,-1.7566384077072144
1780625512673343000,2.089343017578125,2.6568691730499268,-0.3264651894569397,-1.8758803606033325
1780625512683373000,2.099373046875,2.7691397666931152,-0.5156928896903992,-1.8451149463653564
1780625512693401900,2.10940185546875,2.741670846939087,-0.3492860794067383,-1.8469983339309692
1780625512703432000,2.119431884765625,2.85195255279541,0.21456663310527802,-1.7082561254501343
1780625512713461000,2.1294609375,3.1290066242218018,1.4392657279968262,-1.2672321796417236
1780625512723491000,2.139490966796875,3.38694429397583,2.5042049884796143,-0.7217429876327515
1780625512733520000,2.149519775390625,3.565031051635742,3.800111770629883,-0.405898779630661
1780625512743549700,2.1595498046875,3.296947479248047,3.8217430114746094,-0.7738631963729858
1780625512753579000,2.1695791015625,2.4973552227020264,2.0292885303497314,-1.1732468605041504
1780625512763608000,2.179608154296875,1.864362120628357,-0.42245909571647644,-1.3251479864120483
1780625512773638000,2.189637939453125,1.470947265625,-2.3377084732055664,-1.37069833278656
1780625512783667000,2.1996669921875,1.6756761074066162,-3.0717828273773193,-1.3106539249420166
1780625512793696800,2.20969677734375,1.4966355562210083,-3.4124224185943604,-1.1314258575439453
1780625512803726000,2.21972607421875,1.555403470993042,-3.9839446544647217,-0.766296923160553
1780625512813756000,2.229755859375,1.7330416440963745,-3.972419261932373,-0.46133726835250854
1780625512823784700,2.23978466796875,1.853945255279541,-3.191422700881958,-0.2676559388637543
1780625512833814800,2.249814697265625,2.0521717071533203,-2.3920445442199707,-0.15372857451438904
1780625512843843800,2.25984375,2.1725287437438965,-2.0048463344573975,-0.024154605343937874
1780625512853874000,2.2698740234375,2.1369690895080566,-2.0609867572784424,0.1511772722005844
1780625512863902700,2.27990283203125,1.93638014793396,-2.2486443519592285,0.39660778641700745
1780625512873932800,2.289932861328125,1.6301352977752686,-2.345222234725952,0.7906360626220703
1780625512883961900,2.2999619140625,1.2850193977355957,-2.3880252838134766,1.2395193576812744
1780625512893992000,2.309991943359375,0.9532934427261353,-2.5199263095855713,1.6896729469299316
1780625512904020700,2.320020751953125,0.5775336623191833,-2.862717390060425,2.1591954231262207
1780625512914050800,2.33005078125,0.8373755812644958,-3.167579412460327,2.5935521125793457
1780625512924079900,2.340079833984375,1.6217801570892334,-3.902677297592163,3.3286731243133545
1780625512934110000,2.35010986328125,2.01228928565979,-4.275848865509033,4.231153964996338
1780625512944138800,2.360138671875,2.3222668170928955,-3.583691120147705,4.601921081542969
1780625512954168800,2.3701689453125,2.186795949935913,-2.9109127521514893,4.669465065002441
1780625512964198000,2.380197998046875,2.4045300483703613,-2.4321939945220947,4.5108962059021
1780625512974228000,2.39022802734375,2.8468379974365234,-1.4313074350357056,3.896070718765259
1780625512984257000,2.400257080078125,2.7157669067382812,0.3944738209247589,2.4903838634490967
1780625512994286800,2.410286865234375,2.4191083908081055,2.001573324203491,0.5568099617958069
1780625513004316000,2.42031591796875,1.7971223592758179,1.9220837354660034,-0.9684193730354309
1780625513014346000,2.430345947265625,1.171638011932373,1.0062626600265503,-1.8442260026931763
1780625513024375000,2.440375,0.6204142570495605,0.4572620987892151,-2.1359660625457764
1780625513034404900,2.45040478515625,0.40918058156967163,0.23634089529514313,-2.0255467891693115
1780625513044434000,2.460433837890625,0.27526405453681946,0.4160025417804718,-1.913199782371521
1780625513054463700,2.470463623046875,0.06416860222816467,0.7821589708328247,-1.9006298780441284
1780625513064493000,2.4804931640625,-0.19075636565685272,1.0736474990844727,-1.8633182048797607
1780625513074523000,2.49052294921875,-0.3975108861923218,1.3196375370025635,-1.7555270195007324
1780625513084552000,2.500552001953125,-0.5642010569572449,1.5124443769454956,-1.5377992391586304
1780625513094581200,2.510581298828125,-0.6243972778320312,1.7164368629455566,-1.219310998916626
1780625513104610300,2.5206103515625,-0.6353836059570312,1.8373435735702515,-0.8617714643478394
1780625513114640100,2.53064013671875,-0.593639612197876,1.7830915451049805,-0.5353827476501465
1780625513124669400,2.54066943359375,-0.5057294964790344,1.8173155784606934,-0.2965291440486908
1780625513134699300,2.55069921875,-0.26499783992767334,1.7118178606033325,-0.2066200226545334
1780625513144728000,2.56072802734375,0.30511757731437683,1.2342300415039062,-0.35368242859840393
1780625513154758100,2.570758056640625,0.9870034456253052,0.6917739510536194,-0.5321967601776123
1780625513164787200,2.580787109375,1.3060975074768066,0.10219907015562057,-0.7054367661476135
1780625513174817300,2.5908173828125,1.0889865159988403,-0.4650763273239136,-0.9933369755744934
1780625513184846000,2.60084619140625,0.6181439161300659,-0.71161288022995,-1.1285041570663452
1780625513194876200,2.610876220703125,0.29431578516960144,-0.6316719651222229,-0.9972310662269592
1780625513204905200,2.6209052734375,0.12912948429584503,-0.4547472596168518,-0.6156754493713379
1780625513214935300,2.630935302734375,0.042215362191200256,-0.27008020877838135,-0.12043293565511703
1780625513224964000,2.640964111328125,-0.029332589358091354,-0.08724462240934372,0.3588460385799408
1780625513234994200,2.650994140625,-0.017493773251771927,-0.1038675457239151,0.7158049941062927
1780625513245023200,2.661023193359375,0.03225860372185707,-0.19158275425434113,0.9431856274604797
1780625513255053300,2.67105322265625,-0.016929714009165764,-0.3317558467388153,1.0433796644210815
1780625513265082400,2.681082275390625,-0.04424655809998512,-0.4161476790904999,1.1037236452102661
1780625513275112200,2.6911123046875,-0.04806393384933472,-0.3936450481414795,1.1873629093170166
1780625513285141200,2.701141357421875,-0.033552635461091995,-0.27299532294273376,1.227767825126648
1780625513295171300,2.71117138671875,-0.06810262054204941,-0.12720829248428345,1.183142066001892
1780625513305200400,2.721200439453125,-0.2125074714422226,-0.04038150981068611,1.033395767211914
1780625513315230200,2.731230224609375,-0.34763360023498535,-0.07606919854879379,0.8420595526695251
1780625513325259300,2.74125927734375,-0.3530651032924652,-0.200764000415802,0.6703583598136902
1780625513335289300,2.751289306640625,-0.2320641279220581,-0.32105979323387146,0.4837474822998047
1780625513345318400,2.761318359375,-0.12044545263051987,-0.3016378879547119,0.27636340260505676
1780625513355348200,2.77134814453125,-0.10849052667617798,-0.12628017365932465,0.08875090628862381
1780625513365377300,2.781377197265625,-0.1683160364627838,0.14756016433238983,-0.030070018023252487
1780625513375407000,2.791406982421875,-0.19469144940376282,0.46325448155403137,-0.05926625430583954
1780625513385436400,2.8014365234375,-0.12057781219482422,0.756507396697998,0.015355254523456097
1780625513395466200,2.81146630859375,0.07208111882209778,1.0250741243362427,0.16593118011951447
1780625513405495000,2.8214951171875,0.28262582421302795,0.9620312452316284,0.29722660779953003
1780625513415525000,2.831525146484375,0.3389330506324768,0.33947235345840454,0.28602588176727295
1780625513425554200,2.84155419921875,0.23249369859695435,-0.5841907262802124,0.1420048028230667
1780625513435584300,2.851584228515625,0.07368779927492142,-1.1683692932128906,0.03789704665541649
1780625513445613000,2.861613037109375,-0.02455647476017475,-1.138177752494812,0.0778692290186882
1780625513455643100,2.87164306640625,-0.05558949336409569,-0.7661171555519104,0.22237208485603333
1780625513465672200,2.881672119140625,-0.06906694918870926,-0.3867378532886505,0.37357279658317566
1780625513475702300,2.891702392578125,-0.0784415453672409,-0.16277000308036804,0.45208704471588135
1780625513485731300,2.9017314453125,-0.07458635419607162,-0.07422922551631927,0.44135528802871704
1780625513495761200,2.91176123046875,-0.07983171194791794,0.014117150567471981,0.3337406814098358
1780625513505790200,2.921790283203125,-0.09044121950864792,0.10773684829473495,0.1778687983751297
1780625513515820300,2.9318203125,-0.06450974941253662,0.18108056485652924,0.03074486367404461
1780625513525849300,2.941849365234375,0.011842012405395508,0.2319493442773819,-0.0567634142935276
1780625513535879200,2.951879150390625,0.12025263905525208,0.2527523636817932,-0.09155814349651337
1780625513545908200,2.961908203125,0.2029360681772232,0.23227745294570923,-0.10002060979604721
1780625513555938300,2.971938232421875,0.2288062870502472,0.1611044704914093,-0.10393039137125015
1780625513565967400,2.98196728515625,0.2154444009065628,0.04791346192359924,-0.11468902975320816
1780625513575997400,2.99199755859375,0.19319875538349152,-0.12679523229599,-0.1245935931801796
1780625513586026200,3.002026123046875,0.2086951583623886,-0.33207273483276367,-0.12817901372909546
1780625513596056300,3.012056396484375,0.24199825525283813,-0.5130015015602112,-0.1014893427491188
1780625513606085400,3.02208544921875,0.2700892686843872,-0.6446990966796875,-0.03339284285902977
1780625513616115500,3.032115478515625,0.2799759805202484,-0.7327256202697754,0.05417641997337341
1780625513626144300,3.042144287109375,0.2627336084842682,-0.7980005145072937,0.1353927105665207
1780625513636174000,3.052174072265625,0.2550908923149109,-0.7589718699455261,0.20639285445213318
1780625513646203400,3.062203369140625,0.2551657259464264,-0.703829288482666,0.25835752487182617
1780625513656233200,3.072233154296875,0.21097934246063232,-0.6888529658317566,0.26803410053253174
1780625513666262300,3.08226220703125,0.13982075452804565,-0.6815460324287415,0.23112855851650238
1780625513676292000,3.0922919921875,0.10184380412101746,-0.683213472366333,0.19406987726688385
1780625513686321200,3.102321044921875,0.09693613648414612,-0.600793719291687,0.18815632164478302
1780625513696351200,3.112351318359375,0.1202145591378212,-0.42640483379364014,0.22699852287769318
1780625513706380000,3.122380126953125,0.15383990108966827,-0.23608070611953735,0.29244038462638855
1780625513716410000,3.13241015625,0.19163094460964203,-0.10553814470767975,0.35443106293678284
1780625513726439200,3.142439208984375,0.19849072396755219,-0.0989028811454773,0.377471923828125
1780625513736469200,3.15246923828125,0.12741973996162415,-0.2816646993160248,0.32016414403915405
1780625513746498300,3.162498291015625,0.013377058319747448,-0.5181587338447571,0.1890772432088852
1780625513756528000,3.172528076171875,-0.028120851144194603,-0.5440566539764404,0.10458686202764511
1780625513766557200,3.18255712890625,-0.1427536904811859,-0.6233570575714111,0.0281570702791214
1780625513776587300,3.192587158203125,-0.29019108414649963,-0.8228632211685181,-0.06468871235847473
1780625513786616300,3.2026162109375,-0.4217347204685211,-0.9570186734199524,-0.10393864661455154
1780625513796646400,3.212646484375,-0.5215638279914856,-1.10124933719635,-0.09473823010921478
1780625513806675200,3.22267529296875,-0.5276579856872559,-0.8675848841667175,-0.11369780451059341
1780625513816705300,3.232705322265625,-0.3977345824241638,-0.4139833152294159,-0.09911193698644638
1780625513826734300,3.242734375,-0.23622557520866394,-0.15058311820030212,-0.05745290592312813
1780625513836764400,3.252764404296875,-0.14356036484241486,-0.05807608738541603,-0.06300106644630432
1780625513846793200,3.262793212890625,-0.1941058188676834,-0.015126221813261509,-0.1472802609205246
1780625513856823300,3.2728232421875,-0.3049311339855194,0.11403682082891464,-0.24600817263126373
1780625513866852400,3.282852294921875,-0.3745863735675812,0.35858264565467834,-0.25066232681274414
1780625513876882400,3.29288232421875,-0.3705674111843109,0.6587965488433838,-0.17035335302352905
1780625513886911200,3.3029111328125,-0.28901395201683044,0.9619308710098267,-0.025623604655265808
1780625513896941300,3.31294140625,-0.15254266560077667,1.1891051530838013,0.1142759770154953
1780625513906970400,3.322970458984375,0.011898204684257507,1.2023727893829346,0.2066916525363922
1780625513917000200,3.333000244140625,0.1613374948501587,0.9403752088546753,0.21851982176303864
1780625513927029200,3.343029296875,0.2642287313938141,0.6033415198326111,0.15599572658538818
1780625513937059000,3.35305908203125,0.2245662659406662,0.32589900493621826,0.0038096518255770206
1780625513947088100,3.363088134765625,0.1783638745546341,0.10801994055509567,-0.026567162945866585
1780625513957118200,3.3731181640625,0.1616474837064743,0.12144041061401367,0.04448277875781059
1780625513967147300,3.383147216796875,0.17041167616844177,0.25650662183761597,0.14769838750362396
1780625513977177000,3.393177001953125,0.14767947793006897,0.27968090772628784,0.2528889775276184
1780625513987206100,3.4032060546875,0.11311403661966324,0.1959436684846878,0.31669193506240845
1780625513997236200,3.413236328125,0.07027309387922287,0.09839048236608505,0.3301851153373718
1780625514007265300,3.423265380859375,0.05368399992585182,0.02460308000445366,0.31506794691085815
1780625514017295400,3.43329541015625,0.060088638216257095,-0.03346182033419609,0.27666381001472473
1780625514027324200,3.44332421875,0.07403507828712463,-0.06757531315088272,0.22584271430969238
1780625514037354200,3.453354248046875,0.049624279141426086,-0.07967326045036316,0.1641484647989273
1780625514047383300,3.46338330078125,-0.02250451035797596,-0.13394315540790558,0.10588409006595612
1780625514057413400,3.473413330078125,-0.007765777874737978,-0.21883566677570343,0.06132221221923828
1780625514067442200,3.483442138671875,0.11838176846504211,-0.3668568432331085,0.036012064665555954
1780625514077472300,3.49347216796875,0.30228954553604126,-0.6273717880249023,0.005828327964991331
1780625514087501600,3.50350146484375,0.4450671970844269,-0.9613486528396606,-0.04235757514834404
1780625514097531600,3.51353173828125,0.46494317054748535,-1.2253267765045166,-0.10852248221635818
1780625514107560400,3.523560546875,0.370706707239151,-1.259443998336792,-0.1573491394519806
1780625514117590500,3.533590576171875,0.23653104901313782,-1.010085105895996,-0.18665297329425812
1780625514127619600,3.54361962890625,0.12832094728946686,-0.592951774597168,-0.16695941984653473
1780625514137649700,3.553649658203125,0.06617555767297745,-0.14475318789482117,-0.11565496027469635
1780625514147678700,3.5636787109375,0.022241123020648956,0.22410394251346588,-0.05542837083339691
1780625514157708300,3.573708251953125,-0.02575409971177578,0.4305860102176666,0.011569038033485413
1780625514167737600,3.583737548828125,-0.04813077673316002,0.4727560877799988,0.060874003916978836
1780625514177767400,3.593767333984375,-0.020321516320109367,0.4212510883808136,0.10399723798036575
1780625514187796500,3.60379638671875,0.009880327619612217,0.37006860971450806,0.13375885784626007
1780625514197826300,3.613826416015625,0.04826739802956581,0.2932465374469757,0.14179201424121857
1780625514207855400,3.62385546875,0.0898907408118248,0.1852092742919922,0.1301010102033615
1780625514217885400,3.633885498046875,0.12476590275764465,0.09229797124862671,0.10615359991788864
1780625514227914500,3.64391455078125,0.14441470801830292,0.03959720954298973,0.06715293973684311
1780625514237944600,3.653944580078125,0.17648528516292572,0.07866764813661575,0.046611443161964417
1780625514247973400,3.663973388671875,0.20384207367897034,0.15985678136348724,0.05784386023879051
1780625514258003500,3.67400341796875,0.23273417353630066,0.24605290591716766,0.0690336599946022
1780625514268032500,3.684032470703125,0.24883244931697845,0.28527969121932983,0.0797552838921547
1780625514278062600,3.6940625,0.2159687876701355,0.2250773310661316,0.08917994052171707
1780625514288091400,3.70409130859375,0.14105965197086334,0.10856456309556961,0.08548960089683533
1780625514298121500,3.71412158203125,0.06414862722158432,-0.0006327670416794717,0.08576177805662155
1780625514308150500,3.724150634765625,-0.011904596351087093,-0.08774955570697784,0.10666146874427795
1780625514318180600,3.7341806640625,-0.072971411049366,-0.1493745744228363,0.13028156757354736
1780625514328209400,3.74420947265625,-0.07907910645008087,-0.16897571086883545,0.16649577021598816
1780625514338239500,3.754239501953125,-0.060211941599845886,-0.1655474156141281,0.21742287278175354
1780625514348268500,3.7642685546875,-0.07766496390104294,-0.13419322669506073,0.21969693899154663
1780625514358298600,3.774298583984375,-0.15009309351444244,-0.050821635872125626,0.17146523296833038
1780625514368327400,3.784327392578125,-0.13651257753372192,0.038952991366386414,0.1676076352596283
1780625514378357500,3.794357421875,-0.108647920191288,0.25323572754859924,0.25399258732795715
1780625514388386600,3.804386474609375,-0.12203802168369293,0.4471801519393921,0.32782500982284546
1780625514398416600,3.814416748046875,-0.09662081301212311,0.569196343421936,0.43337008357048035
1780625514408445700,3.82444580078125,-0.03111903741955757,0.6349279880523682,0.5426465272903442
1780625514418475300,3.834475341796875,0.09873563051223755,0.6621020436286926,0.5957211852073669
1780625514428504600,3.844504638671875,0.23080658912658691,0.5860775709152222,0.5515907406806946
1780625514438534400,3.854534423828125,0.31262287497520447,0.38128504157066345,0.4277353584766388
1780625514448563500,3.8645634765625,0.31298375129699707,0.1114913746714592,0.24889451265335083
1780625514458593500,3.874593505859375,0.25805923342704773,-0.15772731602191925,0.04574618116021156
1780625514468622300,3.884622314453125,0.16686728596687317,-0.34633636474609375,-0.10759729892015457
1780625514478652400,3.89465234375,0.06987974792718887,-0.3833348751068115,-0.1500379741191864
1780625514488681500,3.904681396484375,0.005870139691978693,-0.2472798377275467,-0.06497100740671158
1780625514498711600,3.914711669921875,-0.05613091215491295,-0.08357664942741394,0.09627300500869751
1780625514508740400,3.924740234375,-0.11191907525062561,0.07542072236537933,0.2410789281129837
1780625514518770400,3.9347705078125,-0.14089453220367432,0.20487192273139954,0.3083104193210602
1780625514528799500,3.944799560546875,-0.09898517280817032,0.25889813899993896,0.30970218777656555
1780625514538829600,3.95482958984375,-0.008855543099343777,0.20325778424739838,0.2646433711051941
1780625514548858400,3.9648583984375,0.05716102570295334,-0.05723505839705467,0.17606450617313385
1780625514558888400,3.974888427734375,0.09202606230974197,-0.3630160093307495,0.07889508455991745
1780625514568917500,3.98491748046875,0.13820287585258484,-0.5066264271736145,0.03356834501028061
1780625514578947600,3.994947509765625,0.17983794212341309,-0.5392147302627563,0.017784856259822845
1780625514588976400,4.004976318359375,0.2035834789276123,-0.5276289582252502,0.019339609891176224
1780625514599006500,4.01500634765625,0.1873890608549118,-0.45998942852020264,0.04024355858564377
1780625514609035500,4.025035400390625,0.07454188168048859,-0.35269200801849365,0.0760207325220108
1780625514619065600,4.035065673828125,-0.07429473847150803,-0.2188527137041092,0.11128577589988708
1780625514629094700,4.0450947265625,-0.16032150387763977,-0.2109772115945816,0.13320386409759521
1780625514639124500,4.05512451171875,-0.16007542610168457,0.04475495591759682,0.18940800428390503
1780625514649153500,4.065153564453125,-0.12117249518632889,0.13872165977954865,0.2202436923980713
1780625514659183600,4.07518359375,-0.12367107719182968,0.021328724920749664,0.19271379709243774
1780625514669212700,4.085212646484375,-0.20048515498638153,-0.1662028282880783,0.09369746595621109
1780625514679242500,4.095242431640625,-0.32627904415130615,-0.40898990631103516,0.00015472965606022626
1780625514689271600,4.105271484375,-0.40232932567596436,-0.49314525723457336,-0.010963701643049717
1780625514699301400,4.11530126953125,-0.5074213743209839,-0.5993446707725525,-0.05812455713748932
1780625514709330400,4.125330322265625,-0.5610936880111694,-0.6366526484489441,-0.1056705042719841
1780625514719360500,4.135360595703125,-0.4932033121585846,-0.5092099905014038,-0.05163150280714035
1780625514729389300,4.145389404296875,-0.4248918890953064,-0.16665077209472656,0.08895757049322128
1780625514739419400,4.15541943359375,-0.5279924273490906,-0.03881397470831871,0.16299371421337128
1780625514749448400,4.165448486328125,-0.5351225137710571,0.08287624269723892,0.24199558794498444
1780625514759478500,4.175478515625,-0.5022796392440796,0.3250470757484436,0.30723902583122253
1780625514769507300,4.18550732421875,-0.4769303500652313,0.4719017446041107,0.34127265214920044
1780625514779537400,4.195537353515625,-0.45652785897254944,0.4383142292499542,0.34030911326408386
1780625514789566500,4.20556640625,-0.45648393034935,0.24415674805641174,0.3044818639755249
1780625514799596500,4.215596435546875,-0.45802801847457886,0.07018761336803436,0.26907965540885925
1780625514809625300,4.225625244140625,-0.4032987356185913,0.018991000950336456,0.2628185749053955
1780625514819655400,4.235655517578125,-0.3339734375476837,0.09544316679239273,0.29223504662513733
1780625514829684500,4.2456845703125,-0.32195115089416504,0.27061232924461365,0.31100741028785706
1780625514839714600,4.255714599609375,-0.3395770192146301,0.4559427499771118,0.2954905033111572
1780625514849743600,4.26574365234375,-0.3642139136791229,0.5732116103172302,0.2597399652004242
1780625514859773400,4.2757734375,-0.3611659109592438,0.6352297067642212,0.2469053864479065
1780625514869802500,4.285802490234375,-0.3146634101867676,0.6265949010848999,0.282772034406662
1780625514879832600,4.29583251953125,-0.27569788694381714,0.3762447237968445,0.29278287291526794
1780625514889861600,4.305861572265625,-0.27395007014274597,-0.15724554657936096,0.19704915583133698
1780625514899891700,4.3158916015625,-0.27927133440971375,-0.5721428990364075,0.07525400817394257
1780625514909920500,4.32592041015625,-0.30842387676239014,-0.6066968441009521,0.07015591859817505
1780625514919950600,4.33595068359375,-0.34861230850219727,-0.430972158908844,0.1593363881111145
1780625514929979600,4.345979736328125,-0.3632359802722931,-0.24773816764354706,0.2740033268928528
1780625514940009500,4.356009521484375,-0.3502293825149536,-0.11674153059720993,0.3423384428024292
1780625514950038500,4.36603857421875,-0.31575796008110046,-0.006297843065112829,0.32897576689720154
1780625514960068400,4.376068359375,-0.28239867091178894,0.13189305365085602,0.23781761527061462
1780625514970097700,4.38609765625,-0.25248390436172485,0.3703320026397705,0.08327704668045044
1780625514980127500,4.39612744140625,-0.2446155995130539,0.6226584911346436,-0.09650976210832596
1780625514990156300,4.40615625,-0.272303968667984,0.7253177762031555,-0.2655627131462097
1780625515000186400,4.416186279296875,-0.31807225942611694,0.5992085933685303,-0.4051227271556854
1780625515010215400,4.42621533203125,-0.315573126077652,0.2580339312553406,-0.46587955951690674
1780625515020245500,4.43624560546875,-0.2776968479156494,0.12553316354751587,-0.43681326508522034
1780625515030274300,4.4462744140625,-0.29099002480506897,0.1772802472114563,-0.38817089796066284
1780625515040304400,4.456304443359375,-0.309662789106369,0.24935975670814514,-0.34596407413482666
1780625515050333400,4.46633349609375,-0.35328909754753113,0.22540248930454254,-0.3046666979789734
1780625515060363500,4.476363525390625,-0.3732241690158844,0.4014483690261841,-0.271563857793808
1780625515070392600,4.486392578125,-0.22040560841560364,0.5647630095481873,-0.20718275010585785
1780625515080422400,4.49642236328125,-0.07658185809850693,0.36663365364074707,-0.15386945009231567
1780625515090451500,4.506451416015625,0.008309595286846161,-0.006994526367634535,-0.10048026591539383
1780625515100481500,4.5164814453125,0.05131884664297104,-0.1627095490694046,-0.0035305526107549667
1780625515110510600,4.526510498046875,0.16259238123893738,-0.06258987635374069,0.10830596834421158
1780625515120540400,4.53654052734375,0.315572589635849,0.1288945972919464,0.22649545967578888
1780625515130569500,4.546569580078125,0.45340824127197266,0.2629578709602356,0.31073975563049316
1780625515140599600,4.556599609375,0.5391793251037598,0.3408617079257965,0.3278369903564453
1780625515150628600,4.566628662109375,0.5346919298171997,0.4447007477283478,0.22871893644332886
1780625515160658700,4.57665869140625,0.5089910626411438,0.5220996737480164,0.04759921133518219
1780625515170687500,4.5866875,0.5912137627601624,0.40276235342025757,0.0030184267088770866
1780625515180717600,4.596717529296875,0.4947338402271271,0.26155197620391846,-0.052020322531461716
1780625515190747400,4.606747314453125,0.40835288166999817,0.013548832386732101,-0.1530446708202362
1780625515200776700,4.616776611328125,0.3626335859298706,-0.0320892259478569,-0.2475282996892929
1780625515210806500,4.626806640625,0.3393770158290863,-0.019400862976908684,-0.3063998818397522
1780625515220835300,4.63683544921875,0.3521631062030792,-0.05998850241303444,-0.37957262992858887
1780625515230865400,4.646865478515625,0.3264031410217285,-0.17178507149219513,-0.49047037959098816
1780625515240894500,4.65689453125,0.28287965059280396,-0.2604566216468811,-0.6131707429885864
1780625515250924500,4.666924560546875,0.2722752094268799,-0.12208649516105652,-0.7065060138702393
1780625515260953300,4.676953369140625,0.28610551357269287,0.21461616456508636,-0.6776732802391052
1780625515270983400,4.6869833984375,0.34403806924819946,0.6046278476715088,-0.534307599067688
1780625515281012500,4.697012451171875,0.4405534267425537,0.8163579106330872,-0.41773173213005066
1780625515291042600,4.70704248046875,0.5599130988121033,0.4709661900997162,-0.48705780506134033
1780625515301071400,4.7170712890625,0.5486828088760376,-0.26939553022384644,-0.7350907921791077
1780625515311101400,4.727101318359375,0.38986361026763916,-0.7103164792060852,-0.9352084398269653
1780625515321130500,4.737130615234375,0.21740901470184326,-0.7048755884170532,-0.9449617266654968
1780625515331160600,4.74716064453125,0.06968507170677185,-0.5416078567504883,-0.8075633645057678
1780625515341189400,4.757189453125,-0.022058431059122086,-0.6351854801177979,-0.5874419212341309
1780625515351219500,4.767219482421875,0.034395258873701096,-0.4564809799194336,-0.31909382343292236
1780625515361248500,4.77724853515625,0.052868541330099106,-0.23612651228904724,-0.27486351132392883
1780625515371278600,4.787278564453125,0.14644429087638855,-0.14190253615379333,-0.3829308748245239
1780625515381307600,4.7973076171875,0.25818386673927307,-0.17838545143604279,-0.5708041191101074
1780625515391337500,4.80733740234375,0.30496788024902344,-0.09610682725906372,-0.7705678343772888
1780625515401366500,4.817366455078125,0.3395112156867981,-0.08842679858207703,-0.8506408333778381
1780625515411396600,4.827396728515625,0.45426762104034424,-0.07595361769199371,-0.8499484062194824
1780625515421425700,4.83742578125,0.5963611006736755,-0.019821109250187874,-0.7604581713676453
1780625515431455500,4.84745556640625,0.7477378845214844,-0.01625540293753147,-0.5972626209259033
1780625515441484500,4.857484619140625,0.8276132345199585,-0.040224120020866394,-0.3931198716163635
1780625515451514400,4.867514404296875,0.9055749177932739,-0.045770950615406036,-0.19871336221694946
1780625515461543700,4.877543701171875,1.01100492477417,-0.0279136560857296,-0.0237567275762558
1780625515471573500,4.887573486328125,1.1463457345962524,-0.13620683550834656,0.08292844146490097
1780625515481602300,4.897602294921875,1.323862910270691,-0.43794459104537964,0.0763416439294815
1780625515491632400,4.90763232421875,1.4710146188735962,-0.760322630405426,0.004655472002923489
1780625515501661400,4.917661376953125,1.5417771339416504,-0.946969747543335,-0.09467218071222305
1780625515511691500,4.92769140625,1.5562876462936401,-0.9055381417274475,-0.21854166686534882
1780625515521720300,4.93772021484375,1.5655040740966797,-0.6805356740951538,-0.3720231056213379
1780625515531750400,4.94775048828125,1.554278016090393,-0.4450022280216217,-0.5476668477058411
1780625515541779500,4.957779541015625,1.471250295639038,-0.22998446226119995,-0.7058130502700806
1780625515551809500,4.9678095703125,1.3753058910369873,-0.03062342293560505,-0.811066746711731
1780625515561838300,4.97783837890625,1.2682119607925415,0.0947243794798851,-0.8896294832229614
1780625515571868400,4.987868408203125,1.1780786514282227,0.1397874653339386,-0.9469265937805176
1780625515581897500,4.9978974609375,1.161113977432251,0.11771278083324432,-1.0217087268829346
1780625515591927600,5.007927490234375,1.1476149559020996,0.020870395004749298,-1.1135257482528687
1780625515601956600,5.01795654296875,1.0447930097579956,-0.1667967140674591,-1.203834056854248
1780625515611986400,5.027986328125,0.8471110463142395,-0.3713381290435791,-1.2850711345672607
1780625515622015500,5.038015380859375,0.655423104763031,-0.4176984429359436,-1.3163334131240845
1780625515632045600,5.048045654296875,0.5529366731643677,-0.2769240140914917,-1.2738075256347656
1780625515642074600,5.05807470703125,0.4808560907840729,-0.10050050914287567,-1.1893104314804077
1780625515652104700,5.068104736328125,0.4475061297416687,-0.011427357792854309,-1.1068278551101685
1780625515662133500,5.078133544921875,0.4487801790237427,-0.022725285962224007,-1.026030421257019
1780625515672163600,5.08816357421875,0.49501052498817444,-0.052317265421152115,-0.9174094796180725
1780625515682192600,5.098192626953125,0.5541359186172485,-0.046669501811265945,-0.7757620215415955
1780625515692222700,5.10822265625,0.6511942744255066,-0.21213781833648682,-0.6501372456550598
1780625515702251500,5.11825146484375,0.6801670789718628,-0.3380347788333893,-0.5721524357795715
1780625515712281300,5.12828125,0.678514838218689,-0.37082308530807495,-0.5258326530456543
1780625515722310700,5.138310546875,0.664311945438385,-0.25661608576774597,-0.46509310603141785
1780625515732340500,5.148340576171875,0.6676872372627258,-0.041722945868968964,-0.44364801049232483
1780625515742369500,5.15836962890625,0.6486403346061707,0.13955283164978027,-0.42551401257514954
1780625515752399400,5.1683994140625,0.6010230183601379,0.17449750006198883,-0.40809720754623413
1780625515762428400,5.178428466796875,0.5025265216827393,0.06684720516204834,-0.3832398056983948
1780625515772458500,5.18845849609375,0.4203706681728363,-0.09623093158006668,-0.3567466735839844
1780625515782488600,5.198488525390625,0.3115978240966797,-0.25961586833000183,-0.35631948709487915
1780625515792517400,5.208517333984375,0.24798662960529327,-0.3952876627445221,-0.3727906048297882
1780625515802547500,5.21854736328125,0.20065879821777344,-0.45242658257484436,-0.36835378408432007
1780625515812576500,5.228576416015625,0.171400249004364,-0.3977108895778656,-0.32993024587631226
1780625515822606600,5.238606689453125,0.1562359482049942,-0.28074297308921814,-0.2948976755142212
1780625515832635400,5.248635498046875,0.1479812115430832,-0.21885058283805847,-0.276046484708786
1780625515842665500,5.25866552734375,0.1488880217075348,-0.21112795174121857,-0.26410460472106934
1780625515852694500,5.268694580078125,0.15526415407657623,-0.2206847071647644,-0.26419490575790405
1780625515862724600,5.278724609375,0.18534162640571594,-0.2163168489933014,-0.2786247134208679
1780625515872753400,5.28875341796875,0.25665417313575745,-0.18239110708236694,-0.2913186550140381
1780625515882783500,5.298783447265625,0.31730952858924866,-0.12184520810842514,-0.2946534752845764
1780625515892812500,5.3088125,0.37519413232803345,-0.0010668623726814985,-0.285643994808197
1780625515902842600,5.318842529296875,0.427646666765213,0.13052845001220703,-0.28053686022758484
1780625515912871700,5.32887158203125,0.43822234869003296,0.21871715784072876,-0.29491740465164185
1780625515922901500,5.338901611328125,0.4188734292984009,0.2617804706096649,-0.30652159452438354
1780625515932930600,5.3489306640625,0.40512245893478394,0.2322329729795456,-0.29637786746025085
1780625515942960400,5.35896044921875,0.3282226324081421,0.11568398773670197,-0.26581302285194397
1780625515952989700,5.36898974609375,0.2024705559015274,0.013422864489257336,-0.23418480157852173
1780625515963019500,5.37901953125,0.10359163582324982,0.041070204228162766,-0.20463116466999054
1780625515973048600,5.389048583984375,0.07098443061113358,0.16168370842933655,-0.15532460808753967
1780625515983078400,5.399078369140625,0.1045927181839943,0.3124806582927704,-0.05620015412569046
1780625515993107500,5.409107421875,0.15863385796546936,0.35921064019203186,0.032994434237480164
1780625516003137500,5.419137451171875,0.23046302795410156,0.32331761717796326,0.09794813394546509
1780625516013166300,5.429166259765625,0.2964963912963867,0.26101988554000854,0.14008307456970215
1780625516023196400,5.439196533203125,0.31547221541404724,0.1967460811138153,0.1587241291999817
1780625516034480600,5.450480712890625,0.3087051212787628,0.10794777423143387,0.13796372711658478
1780625516044509400,5.460509521484375,0.27281635999679565,-0.025347966700792313,0.06392252445220947
1780625516054539500,5.47053955078125,0.195515438914299,-0.16378013789653778,-0.04831426963210106
1780625516064568600,5.480568603515625,0.11466719210147858,-0.23071470856666565,-0.1826592981815338
1780625516074598700,5.4905986328125,0.06756279617547989,-0.2508530020713806,-0.3059585988521576
1780625516084627500,5.50062744140625,0.04423963278532028,-0.18481005728244781,-0.37454378604888916
1780625516094657500,5.510657470703125,-0.024451546370983124,-0.1725158393383026,-0.3842882812023163
1780625516104686300,5.520686279296875,-0.08803398162126541,-0.22183918952941895,-0.3513031601905823
1780625516114716400,5.53071630859375,-0.14275474846363068,-0.2948766350746155,-0.3245525062084198
1780625516124746200,5.540746337890625,-0.23565833270549774,-0.4544902741909027,-0.3154711425304413
1780625516134775300,5.550775390625,-0.1677546501159668,-0.45860034227371216,-0.2339821308851242
1780625516144805400,5.560805419921875,-0.025722939521074295,-0.4364452362060547,-0.1512736678123474
1780625516154834200,5.570834228515625,0.07085765898227692,-0.3435482978820801,-0.11648613214492798
1780625516164864300,5.5808642578125,0.05013667047023773,-0.24600684642791748,-0.1163143590092659
1780625516174893300,5.590893310546875,0.01643090508878231,-0.24693095684051514,-0.07057749480009079
1780625516184923400,5.60092333984375,0.005038434639573097,-0.302119642496109,0.008196410723030567
1780625516194952400,5.610952392578125,0.03431909158825874,-0.2900051772594452,0.09591347724199295
1780625516204981200,5.620981201171875,0.10306992381811142,-0.20849807560443878,0.19078512489795685
1780625516215011300,5.63101123046875,0.18295224010944366,-0.19040243327617645,0.2396882176399231
1780625516225040400,5.641040283203125,0.2890254259109497,-0.22612234950065613,0.22466719150543213
1780625516235070500,5.651070556640625,0.40110722184181213,-0.2624361515045166,0.13265392184257507
1780625516245099300,5.661099365234375,0.4727987051010132,-0.24414288997650146,-0.0018692727899178863
1780625516255129300,5.67112939453125,0.5186498165130615,-0.15081001818180084,-0.11213825643062592
1780625516265158400,5.681158447265625,0.49888384342193604,-0.06918466091156006,-0.18315917253494263
1780625516275188500,5.6911884765625,0.41404297947883606,-0.01392753329128027,-0.19361181557178497
1780625516285217300,5.70121728515625,0.373925119638443,0.05453408136963844,-0.12252112478017807
1780625516295247400,5.711247314453125,0.29787322878837585,0.03205646947026253,-0.01474565640091896
1780625516305276400,5.7212763671875,0.13278894126415253,-0.08211617171764374,0.08033984899520874
1780625516315306500,5.731306396484375,-0.010456635616719723,-0.1409675031900406,0.14445438981056213
1780625516325335300,5.741335205078125,-0.10555678606033325,-0.12203695625066757,0.11907658725976944
1780625516335365400,5.751365478515625,-0.10135458409786224,-0.1410234272480011,0.055818792432546616
1780625516345394400,5.76139453125,-0.008284561336040497,-0.14804059267044067,0.008981244638562202
1780625516355424500,5.771424560546875,0.08785075694322586,-0.18464814126491547,-0.03844139724969864
1780625516365453600,5.78145361328125,0.21189174056053162,-0.15829482674598694,-0.024444090202450752
1780625516375483400,5.7914833984375,0.3457414209842682,-0.12958648800849915,0.0443996898829937
1780625516385512400,5.801512451171875,0.47484320402145386,-0.044866275042295456,0.14052382111549377
1780625516395542300,5.811542236328125,0.5475701689720154,0.005681321490556002,0.18427503108978271
1780625516405571600,5.821571533203125,0.5639429688453674,-0.0005941512063145638,0.13379934430122375
1780625516415601200,5.83160107421875,0.415245920419693,-0.13411279022693634,-0.005795304663479328
1780625516425630200,5.841630126953125,0.2367052137851715,-0.304960161447525,-0.15270085632801056
1780625516435660300,5.851660400390625,0.13052338361740112,-0.3606407344341278,-0.23119060695171356
1780625516445689300,5.861689453125,0.04187394678592682,-0.343325138092041,-0.2847696840763092
1780625516455719400,5.871719482421875,0.0017249294323846698,-0.24159717559814453,-0.2871236503124237
1780625516465748200,5.881748291015625,-0.008756207302212715,-0.19784250855445862,-0.24374474585056305
1780625516475778300,5.8917783203125,-0.009515208192169666,-0.23499652743339539,-0.21463081240653992
1780625516485807400,5.901807373046875,0.0492333248257637,-0.1854071468114853,-0.17717771232128143
1780625516495837400,5.91183740234375,0.11713381111621857,-0.10372186452150345,-0.1612490713596344
1780625516505866200,5.9218662109375,0.13884177803993225,-0.020481040701270103,-0.1904519647359848
1780625516515896300,5.931896240234375,0.1764325499534607,0.12231126427650452,-0.22852611541748047
1780625516525925400,5.94192529296875,0.36304929852485657,0.23692013323307037,-0.24122007191181183
1780625516535955500,5.95195556640625,0.4883781969547272,0.21268829703330994,-0.2578333914279938
1780625516545984300,5.961984375,0.6871941089630127,0.1796129047870636,-0.2294451743364334
1780625516556014300,5.972014404296875,0.9273790121078491,0.17249880731105804,-0.11677109450101852
1780625516566043400,5.98204345703125,0.9294738173484802,0.05583396926522255,-0.018067417666316032
1780625516576073500,5.992073486328125,1.1533466577529907,0.12035011500120163,0.10662364959716797
1780625516586102500,6.0021025390625,1.1806586980819702,0.18536293506622314,0.17387539148330688
1780625516596132400,6.01213232421875,0.9355224370956421,0.05973630025982857,0.16920553147792816
1780625516606161400,6.022161376953125,0.4804401099681854,-0.17693109810352325,0.11683713644742966
1780625516616191500,6.03219140625,0.14936178922653198,-0.44397690892219543,0.08580784499645233
1780625516626221300,6.04222119140625,0.19911442697048187,-0.701890766620636,0.19870217144489288
1780625516636250400,6.05225048828125,-0.0030069751664996147,-1.0478702783584595,0.3522757589817047
1780625516646280200,6.0622802734375,0.2582128942012787,-1.546219825744629,0.4792126715183258
1780625516656309200,6.072309326171875,0.417666494846344,-1.9303081035614014,0.635466992855072
1780625516666339300,6.08233935546875,0.6927899122238159,-2.104799509048462,0.7723747491836548
1780625516676368400,6.092368408203125,0.7266658544540405,-2.1071677207946777,0.7609812021255493
1780625516686398200,6.102398193359375,0.4990593492984772,-2.059061050415039,0.7405084371566772
1780625516696427300,6.11242724609375,0.05010711029171944,-2.019052505493164,0.7608581781387329
1780625516706457300,6.122457275390625,-0.31629350781440735,-1.6918087005615234,0.7866144180297852
1780625516716486400,6.132486328125,-0.616788387298584,-1.3489341735839844,0.6847714185714722
1780625516726516500,6.1425166015625,-0.788871705532074,-0.9209003448486328,0.39274275302886963
1780625516736545300,6.152545166015625,-0.8247389197349548,-0.4323982894420624,-0.11373855173587799
1780625516746575400,6.162575439453125,-0.8094390630722046,-0.11959484219551086,-0.6162333488464355
1780625516756604400,6.1726044921875,-0.5732907056808472,0.21065577864646912,-0.7714365124702454
1780625516766634500,6.182634521484375,-0.45876383781433105,0.7207176685333252,-0.5145980715751648
1780625516776663300,6.192663330078125,-0.5109820365905762,0.9965924024581909,-0.18550434708595276
1780625516786693400,6.202693359375,-0.6720154285430908,1.118828535079956,-0.0046874298714101315
1780625516796722400,6.212722412109375,-0.8080478310585022,1.0074243545532227,0.05621054023504257
1780625516806752500,6.22275244140625,-0.7544695138931274,0.6903970837593079,0.03235527500510216
1780625516816781300,6.23278125,-0.45773693919181824,0.31220743060112,-0.09042124450206757
1780625516826811400,6.242811279296875,0.34787487983703613,-0.2543249726295471,-0.4055488407611847
1780625516836840400,6.25284033203125,1.2554599046707153,-0.8409080505371094,-0.9135502576828003
1780625516846870500,6.26287060546875,1.686355710029602,-1.0631285905838013,-1.4291212558746338
1780625516856899300,6.2728994140625,1.9412872791290283,-0.8774905204772949,-1.9429922103881836
1780625516866929400,6.282929443359375,2.4953198432922363,0.07066138833761215,-2.133918046951294
1780625516876958500,6.29295849609375,2.8706862926483154,1.8782622814178467,-1.2174286842346191
1780625516886988300,6.30298828125,2.400830030441284,2.1852688789367676,0.010100836865603924
1780625516897017600,6.313017578125,1.4262127876281738,1.0873210430145264,0.02051566168665886
1780625516907047200,6.323047119140625,0.631206214427948,-0.0028871328104287386,-0.5616729259490967
1780625516917076200,6.333076171875,0.13503079116344452,-0.6662062406539917,-0.8692600131034851
1780625516927106300,6.343106201171875,-0.1973961591720581,-1.007177472114563,-0.9645655155181885
1780625516937135400,6.35313525390625,-0.39465516805648804,-1.1243184804916382,-0.8986823558807373
1780625516947165400,6.36316552734375,-0.5255519151687622,-1.1595776081085205,-0.8014500737190247
1780625516957194200,6.3731943359375,-0.5720621943473816,-1.1262314319610596,-0.8044586777687073
1780625516967224300,6.383224365234375,-0.5840839743614197,-1.0177339315414429,-0.9433259963989258
1780625516977254400,6.39325439453125,-0.5777949094772339,-0.6959636211395264,-1.059656023979187
1780625516987283500,6.403283447265625,-0.5699985027313232,-0.3077724575996399,-1.0552035570144653
1780625516997313300,6.413313232421875,-0.5445711612701416,-0.008648082613945007,-0.9193194508552551
1780625517007342300,6.42334228515625,-0.4933455288410187,0.12143775075674057,-0.7005770206451416
1780625517017372400,6.433372314453125,-0.47676175832748413,0.006265086587518454,-0.4673032760620117
1780625517027401500,6.4434013671875,-0.5145784020423889,-0.3821069002151489,-0.338767945766449
1780625517037431600,6.453431640625,-0.6693386435508728,-0.8236635327339172,-0.3296290338039398
1780625517047460400,6.46346044921875,-0.8041308522224426,-1.0810761451721191,-0.341904878616333
1780625517057490400,6.473490478515625,-0.7553734183311462,-1.117464303970337,-0.3093269467353821
1780625517067519500,6.48351953125,-0.4837336540222168,-1.1209295988082886,-0.4695208966732025
1780625517077549600,6.493549560546875,-0.16532744467258453,-1.0264549255371094,-1.12099027633667
1780625517087578400,6.503578369140625,-0.10477194935083389,-0.5663057565689087,-1.7298493385314941
1780625517097608400,6.5136083984375,-0.2401268482208252,-0.381171315908432,-2.0232632160186768
1780625517107637500,6.523637451171875,-0.6121922731399536,-0.6614892482757568,-1.737418532371521
1780625517117667300,6.533667236328125,-1.0447050333023071,-1.023557186126709,-1.05584716796875
1780625517127696400,6.5436962890625,-1.3069920539855957,-1.4423837661743164,-0.7166987061500549
1780625517137726200,6.553726318359375,-1.412395715713501,-1.6683244705200195,-0.6370097398757935
1780625517147755300,6.56375537109375,-1.459920883178711,-1.4447494745254517,-0.5849417448043823
1780625517157785300,6.573785400390625,-1.3662490844726562,-1.0778870582580566,-0.340337336063385
1780625517167814100,6.583814208984375,-1.0832034349441528,-0.8798413276672363,0.12562556564807892
1780625517177844200,6.59384423828125,-0.749708890914917,-0.8044512271881104,0.3802943527698517
1780625517187873300,6.603873291015625,-0.4526654779911041,-0.6630921959877014,0.2795323133468628
1780625517197903400,6.6139033203125,-0.27822017669677734,-0.28982728719711304,0.11135395616292953
1780625517207932400,6.623932373046875,-0.26962241530418396,0.16264377534389496,-0.008666991256177425
1780625517217962200,6.633962158203125,-0.3950367867946625,0.34694063663482666,-0.13404248654842377
1780625517227991300,6.6439912109375,-0.5344676375389099,0.19314628839492798,-0.18220070004463196
1780625517238021400,6.654021484375,-0.5875620245933533,0.034559573978185654,-0.05718179792165756
1780625517248050400,6.664050537109375,-0.5531284213066101,-0.04008163884282112,0.15944452583789825
1780625517258080500,6.67408056640625,-0.42112699151039124,-0.16458947956562042,0.32926443219184875
1780625517268110300,6.6841103515625,-0.2594382166862488,-0.3361852169036865,0.3437730669975281
1780625517278139400,6.694139404296875,-0.1545616090297699,-0.4132198095321655,0.2479163259267807
1780625517288169500,6.70416943359375,-0.08286212384700775,-0.4052620232105255,0.07708120346069336
1780625517298198500,6.714198486328125,-0.0036333505995571613,-0.30248209834098816,-0.1213112473487854
1780625517308228400,6.724228271484375,0.062007177621126175,-0.12688124179840088,-0.3027747869491577
1780625517318257400,6.73425732421875,0.10034391283988953,-0.03205806761980057,-0.43620607256889343
1780625517328287500,6.74428759765625,0.07599596679210663,0.04682210087776184,-0.5330708622932434
1780625517338316500,6.754316650390625,0.0033811493776738644,0.137107253074646,-0.5453197956085205
1780625517348346400,6.764346435546875,-0.07839707285165787,0.18681302666664124,-0.4627000093460083
1780625517358375400,6.77437548828125,-0.12734144926071167,0.2038806974887848,-0.3247341513633728
1780625517368405200,6.7844052734375,-0.13458125293254852,0.18295224010944366,-0.17152754962444305
1780625517378434300,6.794434326171875,-0.11077684909105301,0.12653183937072754,-0.010039584711194038
1780625517388464400,6.80446435546875,-0.06429989635944366,0.05588323995471001,0.13785161077976227
1780625517398493200,6.8144931640625,-0.014230867847800255,-0.009705091826617718,0.23159034550189972
1780625517408523300,6.824523193359375,0.021769743412733078,-0.0697852075099945,0.2777799367904663
1780625517418552300,6.83455224609375,0.02894749492406845,-0.1206372007727623,0.32843300700187683
1780625517428582400,6.84458251953125,0.011295264586806297,-0.14744937419891357,0.3574955463409424
1780625517438611200,6.854611083984375,-0.022297048941254616,-0.16684916615486145,0.33491966128349304
1780625517448641300,6.864641357421875,-0.05302859842777252,-0.1952882707118988,0.284676730632782
1780625517458670300,6.87467041015625,-0.09798568487167358,-0.20815107226371765,0.24359242618083954
1780625517468700400,6.884700439453125,-0.14407674968242645,-0.21645215153694153,0.24805641174316406
1780625517478729500,6.8947294921875,-0.14815378189086914,-0.2533281445503235,0.3142833709716797
1780625517488759300,6.90475927734375,-0.06126335635781288,-0.32487156987190247,0.38815784454345703
1780625517498788400,6.914788330078125,0.11578278988599777,-0.471022367477417,0.3981758654117584
1780625517508818400,6.924818359375,0.2949804961681366,-0.6292580962181091,0.3421565294265747
1780625517518847500,6.934847412109375,0.4247171878814697,-0.6863850355148315,0.29681381583213806
1780625517528877300,6.944877197265625,0.48134931921958923,-0.6362550258636475,0.26332777738571167
1780625517538906400,6.95490625,0.4648129642009735,-0.5611152648925781,0.21414558589458466
1780625517548936400,6.9649365234375,0.3964110016822815,-0.46558794379234314,0.14092382788658142
1780625517558965500,6.974965576171875,0.308360755443573,-0.3278582990169525,0.08413857966661453
1780625517568995600,6.98499560546875,0.227866992354393,-0.16918210685253143,0.09084735065698624
1780625517579025200,6.995025146484375,0.14702007174491882,-0.0685681402683258,0.2042258381843567
1780625517589054500,7.005054443359375,0.08903773128986359,-0.046966709196567535,0.39253637194633484
1780625517599084300,7.015084228515625,0.07272613793611526,-0.1299571990966797,0.6046267747879028
1780625517609113300,7.02511328125,0.07357275485992432,-0.2932142913341522,0.7623636722564697
1780625517619143400,7.035143310546875,0.10134898871183395,-0.46595731377601624,0.8319107890129089
1780625517629172200,7.045172119140625,0.1301417499780655,-0.5952804088592529,0.8362951874732971
1780625517639202300,7.055202392578125,0.14674817025661469,-0.6204566359519958,0.8054312467575073
1780625517649231400,7.0652314453125,0.16501478850841522,-0.5773376226425171,0.7448787093162537
1780625517659261400,7.075261474609375,0.16802655160427094,-0.516962468624115,0.6702486872673035
1780625517669290200,7.085290283203125,0.1480214148759842,-0.4496971070766449,0.6085874438285828
1780625517679320300,7.0953203125,0.13286137580871582,-0.4047858417034149,0.5610790252685547
1780625517689349400,7.105349365234375,0.14788560569286346,-0.3702166676521301,0.523620069026947
1780625517699379500,7.11537939453125,0.19546909630298615,-0.33505362272262573,0.49617087841033936
1780625517709408300,7.125408203125,0.24677009880542755,-0.29370778799057007,0.4799327850341797
1780625517719438300,7.135438232421875,0.292891263961792,-0.23585113883018494,0.45097410678863525
1780625517729467400,7.14546728515625,0.3156546354293823,-0.1603582501411438,0.3975907862186432
1780625517739497500,7.15549755859375,0.3203982412815094,-0.10015855729579926,0.3189423084259033
1780625517749526300,7.1655263671875,0.29684978723526,-0.05648351460695267,0.2364884316921234
1780625517759556400,7.175556396484375,0.23346121609210968,-0.028148280456662178,0.1879347562789917
1780625517769585400,7.18558544921875,0.1408330202102661,-0.03746481612324715,0.16350238025188446
1780625517779615500,7.195615478515625,0.04423696920275688,-0.12374857068061829,0.12331021577119827
1780625517789644500,7.20564453125,-0.039864324033260345,-0.24264167249202728,0.09242846816778183
1780625517799674400,7.21567431640625,-0.09824587404727936,-0.30285388231277466,0.1355852633714676
1780625517809703400,7.225703369140625,-0.10308536887168884,-0.3087410628795624,0.2187214195728302
1780625517819733500,7.2357333984375,-0.04182174801826477,-0.25899454951286316,0.26512834429740906
1780625517829762600,7.245762451171875,0.049133989959955215,-0.13485582172870636,0.2639206051826477
1780625517839792400,7.25579248046875,0.1347612738609314,0.04490862041711807,0.24116574227809906
1780625517849822200,7.265822265625,0.20380985736846924,0.22148765623569489,0.2324550747871399
1780625517859851300,7.275851318359375,0.23666873574256897,0.40406811237335205,0.26554298400878906
1780625517869881300,7.28588134765625,0.23439545929431915,0.5387119650840759,0.2910371720790863
1780625517879910400,7.295910400390625,0.20756970345973969,0.6175276637077332,0.28488606214523315
1780625517889940200,7.305940185546875,0.15478505194187164,0.6773582696914673,0.24839062988758087
1780625517899969300,7.31596923828125,0.09032589942216873,0.7552975416183472,0.18037989735603333
1780625517909999400,7.325999267578125,0.03627624735236168,0.8040517568588257,0.10447634011507034
1780625517920028400,7.3360283203125,0.021215273067355156,0.7821586728096008,0.021800104528665543
1780625517930058500,7.34605859375,0.040410805493593216,0.6710132360458374,-0.028836442157626152
1780625517940087300,7.35608740234375,0.04260764643549919,0.5561040043830872,-0.038363102823495865
1780625517950117400,7.366117431640625,0.02010047435760498,0.5482359528541565,-0.023094134405255318
1780625517960146400,7.376146484375,-0.03086124360561371,0.5618505477905273,0.006785201840102673
1780625517970176500,7.386176513671875,-0.10590885579586029,0.49853843450546265,0.07571260631084442
1780625517980205300,7.396205322265625,-0.1624099463224411,0.36467117071151733,0.16097237169742584
1780625517990235400,7.4062353515625,-0.18719545006752014,0.21371148526668549,0.2359536737203598
1780625518000264400,7.416264404296875,-0.1758040487766266,0.07067789882421494,0.29651767015457153
1780625518010294500,7.42629443359375,-0.132883220911026,-0.01563674956560135,0.3281014561653137
1780625518020323300,7.4363232421875,-0.0773368626832962,-0.05169062316417694,0.3521937429904938
1780625518030353400,7.446353515625,-0.023861922323703766,-0.05497776344418526,0.3792352080345154
1780625518040382500,7.456382568359375,0.012695555575191975,-0.027879301458597183,0.434262752532959
1780625518050412500,7.46641259765625,0.010788465850055218,0.04686098173260689,0.5111040472984314
1780625518060441300,7.47644140625,0.006570817437022924,0.136788472533226,0.5851103067398071
1780625518070471200,7.48647119140625,0.008511196821928024,0.11427437514066696,0.5896155834197998
1780625518080500500,7.49650048828125,0.0266590416431427,0.04150456562638283,0.5004920959472656
1780625518090530800,7.50653076171875,0.07019054144620895,0.06672017276287079,0.34082815051078796
1780625518100560000,7.516559814453125,0.09740857779979706,0.20396724343299866,0.1885150521993637
1780625518110590000,7.52658984375,0.0692049041390419,0.44313400983810425,0.10906869918107986
1780625518120619800,7.536619873046875,0.043724045157432556,0.632185697555542,0.13258041441440582
1780625518130648800,7.54664892578125,0.034807782620191574,0.6996438503265381,0.2193422019481659
1780625518140679000,7.556678955078125,0.026396453380584717,0.6216856837272644,0.29543378949165344
1780625518150708000,7.5667080078125,0.02780926041305065,0.48225292563438416,0.3192474842071533
1780625518160738000,7.576738037109375,0.04495096206665039,0.3970690667629242,0.3240734040737152
1780625518170766800,7.586766845703125,0.06740859895944595,0.4007926881313324,0.3293816149234772
1780625518180797000,7.596796875,0.09024547040462494,0.47027722001075745,0.33302029967308044
1780625518190826000,7.606825927734375,0.11637481302022934,0.520039439201355,0.3294849693775177
1780625518200856000,7.61685595703125,0.14028200507164001,0.5542701482772827,0.33084210753440857
1780625518210884900,7.626884765625,0.1282232105731964,0.5934441685676575,0.36730530858039856
1780625518220915000,7.6369150390625,0.08816847205162048,0.5899785757064819,0.4326840341091156
1780625518230944000,7.646944091796875,0.03972157835960388,0.5321182012557983,0.4769580364227295
1780625518240973800,7.656973876953125,-0.01895025558769703,0.41637590527534485,0.47145941853523254
1780625518251003000,7.6670029296875,-0.0785592570900917,0.2858586609363556,0.4562908411026001
1780625518261032700,7.67703271484375,-0.12065983563661575,0.18258924782276154,0.44252070784568787
1780625518271062000,7.68706201171875,-0.13815973699092865,0.08459824323654175,0.40909910202026367
1780625518281091800,7.697091796875,-0.13270291686058044,-0.03170306980609894,0.3194030225276947
1780625518291120600,7.70712060546875,-0.12895771861076355,-0.16566592454910278,0.1713709533214569
1780625518301150700,7.717150634765625,-0.14380617439746857,-0.2523145377635956,0.015032212249934673
1780625518311179800,7.7271796875,-0.1804954707622528,-0.28290972113609314,-0.12027101963758469
1780625518321209900,7.7372099609375,-0.24790513515472412,-0.21842847764492035,-0.2477637231349945
1780625518331239000,7.747239013671875,-0.35407179594039917,-0.09422716498374939,-0.3446276783943176
1780625518341268700,7.757268798828125,-0.481026291847229,0.010422014631330967,-0.3961279094219208
1780625518351298800,7.767298828125,-0.6060811281204224,0.06034563109278679,-0.39902541041374207
1780625518361327900,7.777327880859375,-0.7294912338256836,0.1354164183139801,-0.3183548152446747
1780625518371358000,7.78735791015625,-0.8427296280860901,0.22886620461940765,-0.14448900520801544
1780625518381386800,7.79738671875,-0.9503727555274963,0.4015865921974182,0.1251954734325409
1780625518391416800,7.807416748046875,-1.0646321773529053,0.6587432622909546,0.4503423869609833
1780625518401446000,7.81744580078125,-1.1307734251022339,0.9043530225753784,0.7756736278533936
1780625518411476000,7.82747607421875,-1.1077088117599487,1.0265295505523682,1.0501033067703247
1780625518421505000,7.837505126953125,-1.0272209644317627,1.0290307998657227,1.3161594867706299
1780625518431534800,7.847534912109375,-0.9034630060195923,1.0369372367858887,1.613302230834961
1780625518441564000,7.85756396484375,-0.7931615114212036,1.128604769706726,1.9479156732559204
1780625518451594000,7.867593994140625,-0.7140262126922607,1.3061596155166626,2.3016366958618164
1780625518461623000,7.877623046875,-0.6170392632484436,1.4304994344711304,2.6015071868896484
1780625518471652900,7.88765283203125,-0.47871971130371094,1.4507343769073486,2.781688928604126
1780625518481682000,7.897681884765625,-0.3430175483226776,1.3270206451416016,2.823366403579712
1780625518491711700,7.907711669921875,-0.2115710973739624,1.0314207077026367,2.7234983444213867
1780625518501741000,7.917740966796875,-0.08019230514764786,0.6839077472686768,2.473635196685791
1780625518511771000,7.92777099609375,-0.01067954208701849,0.3611108064651489,2.1179842948913574
1780625518521799700,7.937799560546875,-0.08095557242631912,0.3394305408000946,1.8021115064620972
1780625518531829800,7.947829833984375,-0.21417327225208282,0.5532253980636597,1.497122049331665
1780625518541858800,7.95785888671875,-0.3462327718734741,0.710273027420044,1.1574430465698242
1780625518551889000,7.967888916015625,-0.445727676153183,0.6340925097465515,0.8068627119064331
1780625518561917700,7.977917724609375,-0.45757368206977844,0.4159300923347473,0.5900291800498962
1780625518571947800,7.98794775390625,-0.4334438443183899,0.2248978316783905,0.5406975746154785
1780625518581977900,7.997977783203125,-0.4541451334953308,0.07225289195775986,0.5971278548240662
1780625518592007000,8.0080068359375,-0.49703720211982727,0.020239224657416344,0.6906660795211792
1780625518602037000,8.018037109375,-0.5438308119773865,0.011501659639179707,0.7774877548217773
1780625518612065800,8.028065673828126,-0.6014443039894104,0.0054272557608783245,0.8521795868873596
1780625518622096000,8.038095947265624,-0.6764175891876221,-0.04195890203118324,0.9271875023841858
1780625518632125000,8.048125,-0.7926698923110962,-0.1321050375699997,1.0398224592208862
1780625518642155000,8.058155029296875,-0.9549560546875,-0.2510325014591217,1.1662219762802124
1780625518652183800,8.068183837890626,-1.0918889045715332,-0.43515387177467346,1.252259612083435
1780625518662214000,8.0782138671875,-1.1363593339920044,-0.6030696034431458,1.1892881393432617
1780625518672243000,8.088242919921875,-1.1336733102798462,-0.7880780696868896,0.9953988194465637
1780625518682273000,8.09827294921875,-1.1456010341644287,-1.3701540231704712,0.5609922409057617
1780625518692302000,8.108302001953126,-1.0137940645217896,-2.4259958267211914,-0.020539630204439163
1780625518702332000,8.118331787109375,-0.6760886907577515,-3.050740957260132,-0.5099013447761536
1780625518712361000,8.12836083984375,-0.2832101285457611,-3.1964704990386963,-0.8123267292976379
1780625518722390800,8.138390869140625,-0.08983162045478821,-4.590902328491211,-0.2988317012786865
1780625518732419800,8.148419921875,-0.04003503546118736,-6.807466983795166,1.2992841005325317
1780625518742449700,8.15844970703125,-0.017616543918848038,-5.153101444244385,0.7698681950569153
1780625518752478700,8.168478759765625,0.34064972400665283,-3.845846176147461,-0.7664143443107605
1780625518762508800,8.1785087890625,0.8951537013053894,-2.678359031677246,-1.5900213718414307
1780625518772537900,8.188537841796874,1.340644121170044,-0.8502035140991211,-2.142573356628418
1780625518782568000,8.19856787109375,1.164398193359375,0.020506873726844788,-2.234851598739624
1780625518792596700,8.2085966796875,1.2132948637008667,0.3543844521045685,-2.532475709915161
1780625518802626800,8.218626708984376,1.515418291091919,1.1978975534439087,-2.8642959594726562
1780625518812657000,8.228656982421874,1.4926106929779053,1.4389828443527222,-2.837970733642578
1780625518822686000,8.23868603515625,1.3216432332992554,1.5501930713653564,-2.9378535747528076
1780625518832716000,8.248716064453125,0.7440667152404785,2.3982620239257812,-2.542640447616577
1780625518842744800,8.258744873046876,0.517271101474762,3.00573468208313,-2.0640480518341064
1780625518852775000,8.26877490234375,0.7129079699516296,2.407435178756714,-1.855733036994934
1780625518862804000,8.278803955078125,0.4356958270072937,1.5117048025131226,-1.5957615375518799
1780625518872834000,8.288833984375,0.40886953473091125,1.0593525171279907,-1.2018158435821533
1780625518882862800,8.29886279296875,0.37733662128448486,0.566353440284729,-1.0528229475021362
1780625518892893000,8.308892822265625,0.26786765456199646,0.20630790293216705,-0.841460108757019
1780625518902922000,8.318921875,0.25031983852386475,0.06850183010101318,-0.5621964931488037
1780625518912952000,8.3289521484375,0.23650841414928436,0.4372100830078125,-0.36464932560920715
1780625518922980900,8.33898095703125,0.1923619955778122,0.8622276782989502,-0.15982002019882202
1780625518933011000,8.349010986328125,0.17216484248638153,1.2216495275497437,0.0500759519636631
1780625518943040000,8.3590400390625,0.26529771089553833,0.9225914478302002,0.3229879140853882
1780625518953069800,8.36906982421875,0.38648298382759094,1.5734232664108276,0.5002663135528564
1780625518963099000,8.379098876953124,0.5008098483085632,2.4158010482788086,0.5343528985977173
1780625518973128700,8.389128662109375,0.7292832136154175,2.7952592372894287,0.5623171329498291
1780625518983157800,8.39915771484375,0.9301468133926392,2.859578847885132,0.6666762828826904
1780625518993187800,8.409187744140626,1.1508680582046509,2.6846601963043213,0.8542928099632263
1780625519003218000,8.419218017578125,1.3268449306488037,2.3674442768096924,1.073307752609253
1780625519013246700,8.429246826171875,1.4349462985992432,2.0415282249450684,1.3081876039505005
1780625519023276800,8.43927685546875,1.4343007802963257,1.7792185544967651,1.5007506608963013
1780625519033305900,8.449305908203126,1.328763723373413,1.4674537181854248,1.6303714513778687
1780625519043336000,8.4593359375,1.1455507278442383,1.1496198177337646,1.6368789672851562
1780625519053364700,8.46936474609375,0.874498188495636,0.9706234335899353,1.5486385822296143
1780625519063394800,8.479394775390626,0.601318359375,0.8092475533485413,1.4042435884475708
1780625519073424000,8.489423828125,0.39319148659706116,0.5950079560279846,1.239274024963379
1780625519083454000,8.499453857421875,0.3308580815792084,0.4093821942806244,1.0330222845077515
1780625519093483000,8.50948291015625,0.343622624874115,0.3447278141975403,0.8416390419006348
1780625519103512800,8.519512939453126,0.40423721075057983,0.3747107684612274,0.6746314167976379
1780625519113542000,8.5295419921875,0.47473829984664917,0.3595658838748932,0.5384733080863953
1780625519123572000,8.539572021484375,0.5394400358200073,0.3011680841445923,0.45161938667297363
1780625519133601000,8.54960107421875,0.5978500843048096,0.28287723660469055,0.4301055669784546
1780625519143631000,8.559631103515626,0.6295467615127563,0.31935614347457886,0.4926784038543701
1780625519153660000,8.569659912109374,0.6479926109313965,0.384828120470047,0.6214539408683777
1780625519163689700,8.579689697265625,0.6616826057434082,0.38593676686286926,0.7675741314888
1780625519173719000,8.589718994140625,0.6862902045249939,0.32000064849853516,0.8791302442550659
1780625519183748900,8.599748779296876,0.6908948421478271,0.2277681827545166,0.9239968061447144
1780625519193778000,8.60977783203125,0.7130728363990784,0.15367184579372406,0.904688835144043
1780625519203807700,8.619807861328125,0.7604336738586426,0.16695863008499146,0.7940353155136108
1780625519213836800,8.6298369140625,0.7623114585876465,0.24040967226028442,0.6297544836997986
1780625519223867000,8.639866943359374,0.7303168177604675,0.29068723320961,0.422305166721344
1780625519233897000,8.64989697265625,0.678591787815094,0.2286454290151596,0.18807242810726166
1780625519243925800,8.65992578125,0.627993643283844,0.037340980023145676,-0.05919434875249863
1780625519253955800,8.669955810546876,0.614775538444519,-0.22650638222694397,-0.2921319901943207
1780625519263985000,8.67998486328125,0.6338270306587219,-0.47412627935409546,-0.4874255955219269
1780625519274015000,8.690014892578125,0.6456642150878906,-0.6737640500068665,-0.6017963886260986
1780625519284043800,8.700043701171875,0.6129806041717529,-0.8165931105613708,-0.6707517504692078
1780625519294073900,8.710073974609376,0.5916569232940674,-0.9028459787368774,-0.760401725769043
1780625519304103000,8.72010302734375,0.615532398223877,-0.9296607971191406,-0.8940516710281372
1780625519314133000,8.730133056640625,0.6837578415870667,-0.889279842376709,-1.0629371404647827
1780625519324161800,8.740161865234375,0.7858016490936279,-0.8347287178039551,-1.1927571296691895
1780625519334191900,8.75019189453125,0.9210103154182434,-0.8768425583839417,-1.2664119005203247
1780625519344221000,8.760220947265625,1.0988706350326538,-0.9914128184318542,-1.3042404651641846
1780625519354251000,8.7702509765625,1.299036979675293,-1.0699018239974976,-1.3172316551208496
1780625519364280000,8.780280029296875,1.465585708618164,-1.1300228834152222,-1.2964673042297363
1780625519374310000,8.790309814453124,1.549798607826233,-1.2003092765808105,-1.261526346206665
1780625519384339000,8.8003388671875,1.5063550472259521,-1.1737653017044067,-1.206158995628357
1780625519394368800,8.81036865234375,1.3397748470306396,-1.0248022079467773,-1.2174912691116333
1780625519404398000,8.820398193359376,1.116895079612732,-0.8365241885185242,-1.3080967664718628
1780625519414427600,8.830427734375,0.9401411414146423,-0.5847470760345459,-1.4488248825073242
1780625519424457700,8.840457763671875,0.9170049428939819,-0.27521398663520813,-1.5996381044387817
1780625519434486800,8.85048681640625,1.096916675567627,-0.07765404880046844,-1.8266390562057495
1780625519444516900,8.860516845703126,1.2643368244171143,0.04412511736154556,-2.0627024173736572
1780625519454546000,8.8705458984375,1.311504602432251,0.09757662564516068,-2.174866199493408
1780625519464575700,8.88057568359375,1.188439130783081,0.06454543769359589,-2.102698802947998
1780625519474604800,8.890604736328125,0.8839721083641052,0.004659200087189674,-1.8220330476760864
1780625519484635000,8.900634765625,0.5025302171707153,0.04659200459718704,-1.4302592277526855
1780625519494664000,8.910663818359374,0.12963148951530457,0.07005711644887924,-1.0159602165222168
1780625519504694000,8.920694091796875,-0.12187743932008743,0.09095893800258636,-0.6745448708534241
1780625519514722800,8.930722900390625,-0.2282044142484665,0.0641784518957138,-0.46561217308044434
1780625519524753000,8.9407529296875,-0.2634721100330353,-0.02990703284740448,-0.2823142409324646
1780625519534782000,8.950781982421875,-0.23051390051841736,-0.10013005882501602,-0.15010374784469604
1780625519544812000,8.96081201171875,-0.130513533949852,-0.22276677191257477,-0.07176846265792847
1780625519554840800,8.9708408203125,0.009662747383117676,-0.37369370460510254,-0.003719104453921318
1780625519564871000,8.980870849609374,0.08635512739419937,-0.4983900785446167,0.03923581913113594
1780625519574900000,8.99089990234375,0.09971807152032852,-0.5733974575996399,0.016571253538131714
1780625519584930000,9.000929931640625,0.10265154391527176,-0.6508105397224426,-0.05234336480498314
1780625519594958800,9.010958740234376,0.06548500061035156,-0.5821409225463867,-0.12187450379133224
1780625519604989000,9.020989013671874,0.0019172097090631723,-0.41581133008003235,-0.17436301708221436
1780625519615018800,9.031018798828125,-0.0197294969111681,-0.2657792270183563,-0.24077878892421722
1780625519625047800,9.0410478515625,0.000014647385796706658,-0.1793961226940155,-0.33946141600608826
1780625519635078000,9.051077880859374,0.0010484865633770823,-0.13567021489143372,-0.42937907576560974
1780625519645106700,9.061106689453124,-0.01648656465113163,-0.12797127664089203,-0.47938019037246704
1780625519655136800,9.07113671875,-0.045218344777822495,-0.13519564270973206,-0.49356549978256226
1780625519665165800,9.081165771484375,-0.09424208104610443,-0.14157497882843018,-0.4670010209083557
1780625519675196000,9.09119580078125,-0.14205247163772583,-0.13114842772483826,-0.4103558361530304
1780625519685224700,9.101224609375,-0.14637692272663116,-0.09928317368030548,-0.33699026703834534
1780625519695254800,9.1112548828125,-0.12855584919452667,-0.06185537949204445,-0.2841259837150574
1780625519705283800,9.121283935546876,-0.09882324934005737,-0.01998915523290634,-0.25844088196754456
1780625519715314000,9.13131396484375,-0.04434562474489212,0.025121331214904785,-0.2617969810962677
1780625519725343000,9.141343017578125,0.034215494990348816,0.08100590109825134,-0.30520543456077576
1780625519735372800,9.151372802734375,0.09775079786777496,0.19010841846466064,-0.35558873414993286
1780625519745401900,9.16140185546875,0.09481093287467957,0.3786509037017822,-0.3767416775226593
1780625519755432000,9.171431884765624,0.06984379887580872,0.5477280616760254,-0.3924628496170044
1780625519765461000,9.1814609375,0.06736625730991364,0.6639444231987,-0.43553656339645386
1780625519775490800,9.19149072265625,0.05559135600924492,0.6200302243232727,-0.4428938031196594
1780625519785519900,9.201519775390626,0.06840036064386368,0.44073718786239624,-0.49629896879196167
1780625519795550000,9.211550048828125,0.0761413723230362,0.2604145407676697,-0.578309178352356
1780625519805579800,9.221579833984375,0.08878099918365479,0.15804529190063477,-0.6700912714004517
1780625519815609000,9.231609130859376,0.10327871888875961,0.19005915522575378,-0.781842052936554
1780625519825638700,9.241638671875,0.0863812267780304,0.3907238245010376,-0.931125819683075
1780625519835668000,9.25166796875,0.042880088090896606,0.7038348317146301,-1.1285851001739502
1780625519845697800,9.26169775390625,0.020484501495957375,1.0690354108810425,-1.2878607511520386
1780625519855726800,9.271726806640626,0.05560760200023651,1.3114176988601685,-1.342202067375183
1780625519865757000,9.2817568359375,0.1197652816772461,1.3098927736282349,-1.296649694442749
1780625519875785700,9.29178564453125,0.2133689969778061,1.0713385343551636,-1.2006142139434814
1780625519885815800,9.30181591796875,0.26775553822517395,0.6952499151229858,-1.109021544456482
1780625519895844900,9.311844970703126,0.24871820211410522,0.33525416254997253,-1.0426357984542847
1780625519905875000,9.321875,0.14202344417572021,0.13144057989120483,-1.0107545852661133
1780625519915903700,9.33190380859375,0.0054698665626347065,0.2074304223060608,-0.9908429384231567
1780625519925933800,9.341933837890625,-0.08316359668970108,0.38859862089157104,-0.9148067235946655
1780625519935963000,9.351962890625,-0.11563631892204285,0.5521475672721863,-0.7519767880439758
1780625519945993000,9.361992919921875,-0.13692429661750793,0.5763080716133118,-0.49074283242225647
1780625519956021800,9.372021728515625,-0.17572841048240662,0.49203523993492126,-0.17388257384300232
1780625519966051800,9.3820517578125,-0.2488500326871872,0.42376723885536194,0.1400630921125412
1780625519976081000,9.392080810546876,-0.33134862780570984,0.3983186185359955,0.38225311040878296
1780625519986111000,9.402111083984375,-0.40615496039390564,0.4094751179218292,0.5370831489562988
1780625519996139800,9.412139892578125,-0.46699780225753784,0.4155455529689789,0.6213812828063965
1780625520006169900,9.422169921875,-0.5086536407470703,0.413784384727478,0.6589904427528381
1780625520016200000,9.432199951171874,-0.5357523560523987,0.42068544030189514,0.6777462363243103
1780625520026229000,9.44222900390625,-0.560373842716217,0.44482991099357605,0.6678731441497803
1780625520036258800,9.4522587890625,-0.6134900450706482,0.4620025157928467,0.6675570011138916
1780625520046289000,9.462288818359376,-0.6543745994567871,0.5100760459899902,0.6673149466514587
1780625520056317700,9.472317626953124,-0.6829308867454529,0.5026133060455322,0.6608080267906189
1780625520066347800,9.48234765625,-0.7403467893600464,0.46192342042922974,0.6502634882926941
1780625520076376800,9.492376953125,-0.8231207728385925,0.40083131194114685,0.629938542842865
1780625520086407000,9.502406982421874,-0.8948698043823242,0.29493844509124756,0.5105774998664856
1780625520096435500,9.512435546875,-0.9104133248329163,0.1382518857717514,0.2480098009109497
1780625520106465500,9.522465576171875,-0.8337872624397278,0.0810365304350853,-0.11670957505702972
1780625520116494300,9.532494384765625,-0.727888286113739,0.14692020416259766,-0.4080372750759125
1780625520126524400,9.5425244140625,-0.6636325716972351,0.1365613043308258,-0.5306609272956848
1780625520136553500,9.552553466796875,-0.6158120632171631,-0.040217459201812744,-0.5573031902313232
1780625520146583600,9.56258349609375,-0.5541366934776306,-0.21188747882843018,-0.7227816581726074
1780625520156613600,9.572613525390626,-0.4104844629764557,-0.1622679978609085,-0.9244391322135925
1780625520166642400,9.582642333984374,-0.2840341031551361,0.16396097838878632,-0.7550415992736816
1780625520176672500,9.592672607421875,-0.3897714614868164,0.5740443468093872,-0.24984338879585266
1780625520186701600,9.60270166015625,-0.6715946197509766,0.9213354587554932,0.42200130224227905
1780625520196731600,9.612731689453126,-0.8408254384994507,0.5284553170204163,0.9157090187072754
1780625520206760400,9.622760498046874,-0.7665368318557739,-0.31255149841308594,1.033554196357727
1780625520216789500,9.63278955078125,-0.5775850415229797,-0.9155881404876709,0.947045087814331
1780625520226819600,9.642819580078125,-0.49114736914634705,-0.9832377433776855,1.0087308883666992
1780625520236848600,9.6528486328125,-0.5117818117141724,-0.803884744644165,1.2163604497909546
1780625520246878500,9.66287841796875,-0.5805200934410095,-0.6756572723388672,1.3921469449996948
1780625520256907500,9.672907470703125,-0.6203162670135498,-0.7641187310218811,1.524092435836792
1780625520266937600,9.6829375,-0.6351412534713745,-0.9126219153404236,1.6441656351089478
1780625520276966700,9.692966552734376,-0.6980019807815552,-1.00786292552948,1.6906242370605469
1780625520286996500,9.70299658203125,-0.8309890627861023,-0.9326903820037842,1.584073781967163
1780625520297025500,9.713025634765625,-0.9510656595230103,-0.8201718330383301,1.3485262393951416
1780625520307055400,9.723055419921875,-1.0726655721664429,-0.758013129234314,1.042019009590149
1780625520317084700,9.733084716796874,-1.2027887105941772,-0.6260034441947937,0.7647181749343872
1780625520327114500,9.743114501953125,-1.2868168354034424,-0.4705424904823303,0.5253138542175293
1780625520337143300,9.753143310546875,-1.3016958236694336,-0.3205125033855438,0.2981986701488495
1780625520347173400,9.76317333984375,-1.2894477844238281,-0.11656256765127182,0.09980995208024979
1780625520357202400,9.773202392578124,-1.3043159246444702,0.07925567030906677,0.020771324634552002
1780625520367232500,9.783232421875,-1.311572790145874,0.153919517993927,0.10396421700716019
1780625520377261300,9.79326123046875,-1.3123184442520142,0.08472873270511627,0.322070449590683
1780625520387291400,9.80329150390625,-1.331830620765686,-0.14560113847255707,0.6103152632713318
1780625520397321500,9.813321533203125,-1.4032036066055298,-0.5288236141204834,0.877408504486084
1780625520407350500,9.8233505859375,-1.544945240020752,-0.8890933990478516,1.0934641361236572
1780625520417380600,9.833380615234375,-1.7213314771652222,-1.0694186687469482,1.228050708770752
1780625520427409400,9.843409423828126,-1.8985600471496582,-1.0013141632080078,1.2480840682983398
1780625520437439500,9.853439453125,-2.0571773052215576,-0.7210588455200195,1.1583994626998901
1780625520447468500,9.863468505859375,-2.1122331619262695,-0.311196506023407,0.9984846115112305
1780625520457498600,9.87349853515625,-2.1416118144989014,0.05083921179175377,0.8702206611633301
1780625520467527400,9.88352734375,-2.146286725997925,0.1946626901626587,0.8212626576423645
1780625520477557500,9.8935576171875,-2.1518335342407227,0.08581237494945526,0.8130353689193726
1780625520487586600,9.903586669921875,-2.1677489280700684,-0.24575969576835632,0.8067468404769897
1780625520497616600,9.91361669921875,-2.2450766563415527,-0.6699708700180054,0.8139991760253906
1780625520507645700,9.923645751953124,-2.380605697631836,-0.9721387624740601,0.8145059943199158
1780625520517675500,9.933675537109375,-2.542534828186035,-0.9938890337944031,0.7577020525932312
1780625520527704600,9.94370458984375,-2.724778652191162,-0.8152852058410645,0.6359913349151611
1780625520537734400,9.953734375,-2.871514081954956,-0.5568150281906128,0.5126861929893494
1780625520547763700,9.963763671875,-2.9726803302764893,-0.26569637656211853,0.41027113795280457
1780625520557793300,9.973793212890625,-2.9959192276000977,0.060927797108888626,0.21950651705265045
1780625520567822300,9.983822265625,-3.037132501602173,0.22086261212825775,0.07583697140216827
1780625520577852400,9.993852294921876,-3.0773041248321533,0.23375336825847626,-0.04571795463562012
1780625520587881500,10.003881591796874,-3.031473398208618,0.23344683647155762,-0.1831439882516861
1780625520597911600,10.01391162109375,-3.021350383758545,0.2854618430137634,-0.29465827345848083
1780625520607941400,10.02394140625,-3.029278039932251,0.35930171608924866,-0.34034132957458496
1780625520617970400,10.033970458984374,-2.974371910095215,0.404890239238739,-0.32816776633262634
1780625520628000500,10.04400048828125,-2.870112180709839,0.3990571200847626,-0.3210142254829407
1780625520638029600,10.054029541015625,-2.7489013671875,0.3036264479160309,-0.28246816992759705
1780625520648059600,10.0640595703125,-2.6213784217834473,0.14081357419490814,-0.17779342830181122
1780625520658088400,10.07408837890625,-2.511361598968506,-0.008821454830467701,0.0182836651802063
1780625520668118500,10.084118408203125,-2.462385892868042,-0.05017688497900963,0.30037394165992737
1780625520678147600,10.094147705078125,-2.47090482711792,0.021081317216157913,0.5888307690620422
1780625520688177700,10.104177734375,-2.470003843307495,0.1544652134180069,0.8186450600624084
1780625520698206500,10.11420654296875,-2.4296929836273193,0.250674307346344,0.9757382869720459
1780625520708236500,10.124236572265625,-2.334242343902588,0.2238040715456009,1.0329041481018066
1780625520718265600,10.134265625,-2.1998794078826904,0.05458255112171173,0.9499447345733643
1780625520728295700,10.144295654296876,-2.033639907836914,-0.14879080653190613,0.727753221988678
1780625520738324500,10.154324462890624,-1.8628844022750854,-0.13876613974571228,0.5053238868713379
1780625520748354600,10.1643544921875,-1.6934937238693237,0.13783696293830872,0.3656592071056366
1780625520758383600,10.174383544921875,-1.5338451862335205,0.4847014546394348,0.2903631329536438
1780625520768413400,10.184413330078126,-1.3861351013183594,0.7878810167312622,0.24126215279102325
1780625520778442500,10.1944423828125,-1.2686623334884644,0.9792962670326233,0.17551963031291962
1780625520788472300,10.204472412109375,-1.1914817094802856,1.0486372709274292,0.11132758855819702
1780625520798502400,10.21450244140625,-1.123000979423523,0.9575496912002563,0.06243567913770676
1780625520808531500,10.224531494140624,-1.0623700618743896,0.7129439115524292,0.04051040858030319
1780625520818561500,10.2345615234375,-1.0396109819412231,0.45850497484207153,0.047561392188072205
1780625520828590300,10.24459033203125,-1.0189094543457031,0.3387908339500427,0.04502499848604202
1780625520838620400,10.254620361328126,-0.9680076241493225,0.3363194167613983,0.0013946974650025368
1780625520848649500,10.2646494140625,-0.9014765620231628,0.3865354657173157,-0.08217503130435944
1780625520858679600,10.274679443359375,-0.7932177186012268,0.39809995889663696,-0.19570238888263702
1780625520868708600,10.28470849609375,-0.63039231300354,0.33859482407569885,-0.3158873915672302
1780625520878738400,10.294738525390626,-0.4373171329498291,0.2274256944656372,-0.46487128734588623
1780625520888767500,10.304767578125,-0.2760624885559082,0.08199766278266907,-0.6036152839660645
1780625520898797600,10.314797607421875,-0.20699578523635864,0.05621426925063133,-0.6938141584396362
1780625520908826600,10.32482666015625,-0.2013339102268219,0.2053193300962448,-0.6907592415809631
1780625520918856400,10.3348564453125,-0.22898338735103607,0.37037673592567444,-0.6015095710754395
1780625520928885500,10.344885498046875,-0.2786446809768677,0.4062865376472473,-0.4794883131980896
1780625520938915600,10.35491552734375,-0.3227226436138153,0.3747328519821167,-0.3550065755844116
1780625520948944600,10.364944580078125,-0.35062938928604126,0.319225937128067,-0.24288348853588104
1780625520958974700,10.374974609375,-0.36151692271232605,0.23356269299983978,-0.15396666526794434
1780625520969003500,10.38500341796875,-0.3023257851600647,0.16819539666175842,-0.09696117043495178
1780625520979033300,10.395033447265625,-0.20197413861751556,0.1042473092675209,-0.0960112139582634
1780625520989063400,10.4050634765625,-0.10880424082279205,0.08031907677650452,-0.14107856154441833
1780625520999092500,10.415092529296874,-0.031192008405923843,0.03464879095554352,-0.2091071456670761
1780625521009122600,10.42512255859375,-0.00108284130692482,-0.008767658844590187,-0.33246901631355286
1780625521019151400,10.4351513671875,0.0003499393642414361,0.013627927750349045,-0.4352089762687683
1780625521029181400,10.445181396484376,0.017670074477791786,0.09250889718532562,-0.4749830365180969
1780625521039210500,10.45521044921875,0.06518326699733734,0.17259973287582397,-0.4485072195529938
1780625521049240600,10.465240478515625,0.11428849399089813,0.2667965292930603,-0.3413133919239044
1780625521059269400,10.475269287109375,0.13907799124717712,0.38227227330207825,-0.1747579574584961
1780625521069299500,10.485299560546874,0.1454850286245346,0.5311986207962036,-0.0467081181704998
1780625521079328500,10.49532861328125,0.1632765382528305,0.6211133599281311,-0.01907489076256752
1780625521089358300,10.5053583984375,0.1436098963022232,0.5382035374641418,-0.10347392410039902
1780625521099387400,10.515387451171875,0.06366020441055298,0.4591691792011261,-0.2536626160144806
1780625521109417500,10.52541748046875,-0.030407972633838654,0.5095580816268921,-0.34582850337028503
1780625521119446300,10.5354462890625,-0.04463963955640793,0.5073415040969849,-0.3116516172885895
1780625521129476400,10.545476318359375,0.020296216011047363,0.42869436740875244,-0.24846254289150238
1780625521139505400,10.55550537109375,0.07408967614173889,0.37567776441574097,-0.25595587491989136
1780625521149535500,10.565535400390624,0.12210273742675781,0.5010868310928345,-0.2960337996482849
1780625521159564300,10.575564208984375,0.16774292290210724,0.6474466919898987,-0.3616764545440674
1780625521169594400,10.585594482421875,0.21137721836566925,0.6827250719070435,-0.4408940374851227
1780625521179623400,10.59562353515625,0.24548593163490295,0.6559056639671326,-0.5187004208564758
1780625521189653500,10.605653564453124,0.250829815864563,0.6879714727401733,-0.5933048725128174
1780625521199683300,10.615683349609375,0.23185746371746063,0.8214059472084045,-0.6382904648780823
1780625521209712400,10.62571240234375,0.21318364143371582,1.087443232536316,-0.5927227139472961
1780625521219742200,10.6357421875,0.19309090077877045,1.3507814407348633,-0.3971782624721527
1780625521229771300,10.645771240234374,0.11199897527694702,1.3526901006698608,-0.1694747805595398
1780625521239801300,10.65580126953125,-0.07336316257715225,0.9897483587265015,-0.05264616757631302
1780625521249830400,10.665830322265625,-0.3147132098674774,0.33928778767585754,-0.11753036081790924
1780625521259860200,10.675860107421874,-0.42744186520576477,-0.17141516506671906,-0.26536908745765686
1780625521269889300,10.68588916015625,-0.49521932005882263,-0.3825465738773346,-0.48258209228515625
1780625521279919400,10.69591943359375,-0.6906641721725464,-0.3318149447441101,-0.664231538772583
1780625521289948400,10.705948486328126,-0.9149079322814941,-0.150385782122612,-0.7577124834060669
1780625521299978200,10.715978271484374,-0.9748149514198303,0.04844769462943077,-0.7537033557891846
1780625521310007300,10.72600732421875,-0.8392336964607239,0.25756630301475525,-0.6636030077934265
1780625521320037400,10.736037353515625,-0.6683338284492493,0.28603893518447876,-0.5944066047668457
1780625521330066400,10.74606640625,-0.5303552150726318,0.2557734549045563,-0.5346868634223938
1780625521340096500,10.756096435546874,-0.4477311670780182,0.26374536752700806,-0.48472967743873596
1780625521350125300,10.766125244140625,-0.4375496506690979,0.26959607005119324,-0.4696228802204132
1780625521360155400,10.7761552734375,-0.4365687966346741,0.22295264899730682,-0.49046745896339417
1780625521370184400,10.786184326171876,-0.4520984888076782,0.10164406895637512,-0.5407130718231201
1780625521380214500,10.796214599609375,-0.49959596991539,-0.01647910848259926,-0.576370358467102
1780625521390244600,10.80624462890625,-0.5256659388542175,-0.039735693484544754,-0.5086102485656738
1780625521400273400,10.8162734375,-0.48986372351646423,0.04727696627378464,-0.3647918105125427
1780625521410303200,10.82630322265625,-0.4016401171684265,0.18089255690574646,-0.19467654824256897
1780625521420332500,10.83633251953125,-0.31002071499824524,0.20457391440868378,-0.09240343421697617
1780625521430362400,10.8463623046875,-0.22219258546829224,0.17794683575630188,-0.09896492958068848
1780625521440391400,10.856391357421876,-0.1545190066099167,0.15813423693180084,-0.19958314299583435
1780625521450421200,10.866421142578124,-0.08982309699058533,0.12679043412208557,-0.30681905150413513
1780625521460450300,10.8764501953125,-0.019356653094291687,0.103650763630867,-0.3285541832447052
1780625521470480400,10.88648046875,0.032518260180950165,0.08714316040277481,-0.2653030455112457
1780625521480509200,10.89650927734375,0.0868012085556984,0.0863945409655571,-0.15651237964630127
1780625521490539300,10.906539306640624,0.1460847705602646,0.11350338906049728,-0.0742902085185051
1780625521500568300,10.916568359375,0.15040229260921478,0.18389074504375458,-0.0480322390794754
1780625521510598400,10.926598388671875,0.09335444867610931,0.2666833698749542,-0.0453171469271183
1780625521520627200,10.936627197265626,0.0317842960357666,0.23798006772994995,-0.07091997563838959
1780625521530657300,10.9466572265625,-0.004550276789814234,0.1337846964597702,-0.10236764699220657
1780625521540686300,10.956686279296875,-0.023429159075021744,0.0033372072502970695,-0.13979224860668182
1780625521550716400,10.96671630859375,-0.03146231919527054,-0.10162808746099472,-0.14227086305618286
1780625521560745500,10.976745361328126,-0.015873771160840988,-0.19129033386707306,-0.10424544662237167
1780625521570775300,10.986775390625,0.04237302392721176,-0.23120099306106567,-0.019217370077967644
1780625521580805400,10.996805419921875,0.11861240118741989,-0.13579244911670685,0.12884293496608734
1780625521590834400,11.00683447265625,0.20956361293792725,0.09980648756027222,0.29709213972091675
1780625521600864500,11.016864501953124,0.29626283049583435,0.3348885178565979,0.39821314811706543
1780625521610893600,11.0268935546875,0.4081645905971527,0.4786193072795868,0.4030393362045288
1780625521620923400,11.03692333984375,0.5296249985694885,0.5034575462341309,0.3221050798892975
1780625521630952400,11.046952392578126,0.5898145437240601,0.38899463415145874,0.11827284842729568
1780625521640982300,11.056982177734374,0.525334358215332,0.2319599986076355,-0.14367008209228516
1780625521651011600,11.067011474609375,0.392792284488678,0.10466010123491287,-0.32377034425735474
1780625521661041200,11.077041259765625,0.2637879550457001,-0.03497449681162834,-0.3530949354171753
1780625521671070500,11.087070556640626,0.17551696300506592,-0.14054912328720093,-0.31606873869895935
1780625521681100300,11.097100341796875,0.12911218404769897,-0.15167394280433655,-0.22104476392269135
1780625521691129300,11.10712939453125,0.1415238380432129,-0.031006384640932083,-0.08172602206468582
1780625521701159400,11.117159423828125,0.23597151041030884,0.16506539285182953,0.09336962550878525
1780625521711188200,11.127188232421876,0.3994307518005371,0.34934201836586,0.20864242315292358
1780625521721218300,11.13721826171875,0.5540363192558289,0.47930482029914856,0.2407228648662567
1780625521731247400,11.147247314453125,0.6582295298576355,0.5555793642997742,0.17676465213298798
1780625521741277400,11.15727734375,0.7207651138305664,0.5847891569137573,0.07821331173181534
1780625521751306200,11.16730615234375,0.7368900179862976,0.5646625757217407,-0.019041867926716805
1780625521761336300,11.17733642578125,0.6964706778526306,0.5369569063186646,-0.10163421928882599
1780625521771366400,11.187366455078125,0.597959578037262,0.48866528272628784,-0.1731819063425064
1780625521781395500,11.1973955078125,0.45152217149734497,0.4393065273761749,-0.21022248268127441
1780625521791425500,11.207425537109375,0.2651839852333069,0.42910289764404297,-0.20348681509494781
1780625521801454300,11.217454345703125,0.10943381488323212,0.46446433663368225,-0.17049477994441986
1780625521811484400,11.227484375,0.01689908839762211,0.5271346569061279,-0.10922902077436447
1780625521821513500,11.237513427734376,-0.011571967042982578,0.5383316278457642,-0.06848984211683273
1780625521831543600,11.24754345703125,-0.0049675945192575455,0.47188469767570496,-0.060917410999536514
1780625521841572400,11.257572265625,-0.019278356805443764,0.3852531611919403,-0.052257876843214035
1780625521851602400,11.2676025390625,-0.031614650040864944,0.34446656703948975,-0.021645108237862587
1780625521861631500,11.277631591796874,-0.012112056836485863,0.31354621052742004,-0.010201770812273026
1780625521871661300,11.287661376953125,0.006806773599237204,0.2768539786338806,-0.02425793558359146
1780625521881690400,11.2976904296875,0.003968109842389822,0.23518988490104675,-0.03783153370022774
1780625521891720200,11.30772021484375,-0.016878049820661545,0.2335248738527298,0.008177235722541809
1780625521901749200,11.317749267578124,-0.016261527314782143,0.2322193831205368,0.08813492208719254
1780625521911779300,11.327779296875,-0.0032176312524825335,0.23441490530967712,0.15429556369781494
1780625521921808400,11.337808349609375,0.030546456575393677,0.2245718538761139,0.16170261800289154
1780625521931838200,11.347838134765626,0.06578700244426727,0.23010137677192688,0.10886096954345703
1780625521941867300,11.3578671875,0.08318276703357697,0.22585444152355194,0.04808150976896286
1780625521951897300,11.3678974609375,0.09156081080436707,0.2029123604297638,0.027948010712862015
1780625521961926400,11.377926513671875,0.1098114550113678,0.20037810504436493,0.08307171612977982
1780625521971956500,11.38795654296875,0.12870657444000244,0.18869934976100922,0.18587026000022888
1780625521981986300,11.397986328125,0.1564900130033493,0.14512576162815094,0.2778555750846863
1780625521992015400,11.408015380859375,0.16660656034946442,0.11227940022945404,0.3836544454097748
1780625522002045400,11.41804541015625,0.1520467847585678,0.1360907256603241,0.4913066029548645
1780625522012074500,11.428074462890624,0.13321077823638916,0.2228780835866928,0.5882701873779297
1780625522022104300,11.438104248046875,0.11691463738679886,0.35260146856307983,0.6708771586418152
1780625522032133400,11.44813330078125,0.09490706771612167,0.4944576621055603,0.737540602684021
1780625522042163500,11.45816357421875,0.1224614679813385,0.5300936698913574,0.7699180245399475
1780625522052192500,11.468192626953124,0.19379396736621857,0.467282235622406,0.7642518877983093
1780625522062222600,11.47822265625,0.250149130821228,0.3937169313430786,0.7153239846229553
1780625522072251400,11.48825146484375,0.31230437755584717,0.3341665267944336,0.5812175869941711
1780625522082281500,11.498281494140626,0.3768058717250824,0.36756524443626404,0.39129504561424255
1780625522092310300,11.508310302734374,0.4495184123516083,0.4807056188583374,0.1476653516292572
1780625522102340000,11.518340087890625,0.6565869450569153,0.6711986064910889,-0.09101299941539764
1780625522112369400,11.528369384765625,0.8670386672019958,0.8729873895645142,-0.2753780484199524
1780625522122399200,11.538399169921876,1.0126696825027466,0.849090576171875,-0.5794020891189575
1780625522132428300,11.54842822265625,1.0522184371948242,0.7044769525527954,-1.026924729347229
1780625522142458000,11.5584580078125,0.9391866326332092,0.43965885043144226,-1.573836088180542
1780625522152487200,11.568487060546875,0.8894422650337219,0.1422668695449829,-2.0210752487182617
1780625522162517200,11.578517333984376,0.6100074052810669,-0.056226521730422974,-2.2920005321502686
1780625522172547300,11.58854736328125,-0.06722697615623474,0.0810900554060936,-2.1378185749053955
1780625522182576000,11.598576171875,-1.0791549682617188,0.37787166237831116,-1.530737042427063
1780625522192606200,11.608606201171876,-1.7704715728759766,0.2437354326248169,-0.8484021425247192
1780625522202635300,11.61863525390625,-1.8149445056915283,-0.3126319348812103,-0.5411074757575989
1780625522212665300,11.628665283203125,-1.6531386375427246,-0.5090786814689636,-0.4434298872947693
1780625522222694100,11.638694091796875,-1.5059571266174316,-0.4990236461162567,-0.42811113595962524
1780625522232724200,11.64872412109375,-1.3779795169830322,-0.46642017364501953,-0.39258989691734314
1780625522242753300,11.658753173828124,-1.2858484983444214,-0.4341522455215454,-0.2964684069156647
1780625522252783400,11.668783447265625,-1.2700839042663574,-0.35651150345802307,-0.19766433537006378
1780625522262812200,11.678812255859375,-1.2284890413284302,-0.3221769630908966,-0.16836291551589966
1780625522272842200,11.68884228515625,-1.1352698802947998,-0.33567094802856445,-0.20046332478523254
1780625522282871300,11.698871337890624,-1.0991941690444946,-0.4355895519256592,-0.2660367488861084
1780625522292901400,11.7089013671875,-1.2292003631591797,-0.5465075373649597,-0.31354114413261414
1780625522302930400,11.718930419921875,-1.4993983507156372,-0.5357427597045898,-0.21799437701702118
1780625522312960300,11.728960205078126,-1.82213294506073,-0.4849714934825897,-0.01931111328303814
1780625522322989300,11.7389892578125,-2.073946952819824,-0.4708561897277832,0.09879608452320099
1780625522333019100,11.74901904296875,-2.1586172580718994,-0.45821285247802734,0.1806616634130478
1780625522343048400,11.75904833984375,-2.0981483459472656,-0.5885170698165894,0.27381396293640137
1780625522353078300,11.769078369140624,-1.8954148292541504,-0.843705415725708,0.3018927574157715
1780625522363108000,11.779108154296875,-1.4382438659667969,-1.1593691110610962,0.22881826758384705
1780625522373137200,11.78913720703125,-1.0633046627044678,-1.4168083667755127,0.16080085933208466
1780625522383167200,11.799167236328126,-0.9588620662689209,-1.52730393409729,0.08135370910167694
1780625522393196300,11.8091962890625,-1.0083223581314087,-1.501890778541565,-0.008980445563793182
1780625522403226000,11.81922607421875,-1.146677851676941,-1.3322590589523315,0.016115853562951088
1780625522413255200,11.829255126953125,-1.2138488292694092,-1.228509783744812,0.16062137484550476
1780625522423285200,11.83928515625,-1.2307755947113037,-1.255718469619751,0.38259637355804443
1780625522433314300,11.849314208984374,-1.2557262182235718,-1.2311420440673828,0.5800159573554993
1780625522443344400,11.859344482421875,-1.378606915473938,-1.2455295324325562,0.6425613760948181
1780625522453373200,11.869373291015625,-1.5460699796676636,-1.4850918054580688,0.47015419602394104
1780625522463403300,11.8794033203125,-1.6115604639053345,-1.7679331302642822,0.0841716006398201
1780625522473432300,11.889432373046875,-1.4488246440887451,-1.916419506072998,-0.36355558037757874
1780625522483462400,11.89946240234375,-1.129361867904663,-1.8961656093597412,-0.5548053979873657
1780625522493491200,11.9094912109375,-0.9438349604606628,-1.7121424674987793,-0.37330514192581177
1780625522503521300,11.919521240234374,-1.1581346988677979,-1.5461394786834717,-0.16196013987064362
1780625522513550300,11.92955029296875,-1.382481575012207,-1.6058692932128906,-0.283443421125412
1780625522523580400,11.939580322265625,-1.5529693365097046,-1.5968444347381592,-0.4287540316581726
1780625522533609200,11.949609130859375,-1.7905960083007812,-1.2302345037460327,-0.26725780963897705
1780625522543639300,11.959639404296874,-1.8892930746078491,-0.9851073026657104,0.03978842496871948
1780625522553668400,11.96966845703125,-2.019493579864502,-1.0161134004592896,0.20994098484516144
1780625522563698200,11.9796982421875,-2.425901412963867,-1.1535130739212036,0.13795866072177887
1780625522573728300,11.989728271484376,-2.770904541015625,-1.334242343902588,-0.1368662416934967
1780625522583757000,11.999757080078124,-2.881354331970215,-1.5000749826431274,-0.3733823597431183
1780625522593787100,12.009787109375,-2.958390235900879,-1.7743587493896484,-0.6169393658638
1780625522603816200,12.019816162109375,-3.061225652694702,-1.9851104021072388,-0.9069056510925293
1780625522613846300,12.02984619140625,-3.0227935314178467,-1.9202531576156616,-1.059651494026184
1780625522623875000,12.039875,-3.0046286582946777,-1.597230076789856,-1.0523043870925903
1780625522633905200,12.0499052734375,-2.9758381843566895,-1.228511929512024,-0.9606637358665466
1780625522643934200,12.059934326171875,-2.9193313121795654,-1.0556496381759644,-0.8130231499671936
1780625522653964300,12.06996435546875,-2.6910653114318848,-1.0855673551559448,-0.7038242220878601
1780625522663993300,12.079993408203125,-2.277252435684204,-1.408486008644104,-0.6794866323471069
1780625522674023200,12.090023193359375,-1.699384093284607,-1.7575377225875854,-0.6226547956466675
1780625522684052200,12.10005224609375,-1.1662248373031616,-1.904780387878418,-0.6119638085365295
1780625522694082300,12.110082275390624,-0.7930542230606079,-1.719840407371521,-0.6770618557929993
1780625522704111400,12.120111328125,-0.6065634489059448,-1.2676098346710205,-0.7186212539672852
1780625522714141200,12.13014111328125,-0.5784146189689636,-0.7876442670822144,-0.6428700089454651
1780625522724170200,12.140170166015626,-0.5878749489784241,-0.49944841861724854,-0.44783928990364075
1780625522734200300,12.150200439453124,-0.5166545510292053,-0.426525741815567,-0.22451379895210266
1780625522744229400,12.1602294921875,-0.295585036277771,-0.42614492774009705,-0.07146140187978745
1780625522754259500,12.170259521484375,-0.010128268040716648,-0.356815367937088,-0.0704355537891388
1780625522764289000,12.1802890625,0.25833195447921753,-0.20816704630851746,-0.11963079124689102
1780625522774318300,12.190318359375,0.46695998311042786,-0.12839765846729279,-0.15859657526016235
1780625522784348200,12.20034814453125,0.5557585954666138,-0.03128708153963089,-0.18607692420482635
1780625522794377200,12.210377197265625,0.5020732283592224,0.09685623645782471,-0.15821653604507446
1780625522804407300,12.2204072265625,0.3641689121723175,0.20394301414489746,-0.06950903683900833
1780625522814436000,12.23043603515625,0.24582867324352264,0.24602335691452026,-0.048475123941898346
1780625522824466200,12.240466064453125,0.14403973519802094,0.25385305285453796,-0.13542068004608154
1780625522834495200,12.2504951171875,0.06603973358869553,0.25033020973205566,-0.26034823060035706
1780625522844525300,12.260525390625,0.040892839431762695,0.19883160293102264,-0.3659958243370056
1780625522854554000,12.27055419921875,0.110993891954422,0.12701867520809174,-0.43679729104042053
1780625522864584200,12.280584228515625,0.21785269677639008,0.10999494045972824,-0.4682700037956238
1780625522874613200,12.29061328125,0.2940409481525421,0.18264251947402954,-0.46650272607803345
1780625522884643300,12.300643310546874,0.3058624565601349,0.31370386481285095,-0.42611294984817505
1780625522894672100,12.310672119140625,0.24639566242694855,0.4604189991950989,-0.39530178904533386
1780625522904702200,12.3207021484375,0.130719393491745,0.5253913402557373,-0.39954420924186707
1780625522914731300,12.330731201171876,-0.06430388987064362,0.5585690140724182,-0.4395720362663269
1780625522924761300,12.34076123046875,-0.2615368068218231,0.5920901894569397,-0.5553018450737
1780625522934790100,12.3507900390625,-0.30339768528938293,0.5843004584312439,-0.7265569567680359
1780625522944820200,12.3608203125,-0.22626908123493195,0.5432512760162354,-0.8640255928039551
1780625522954849300,12.370849365234376,-0.14663177728652954,0.4978731572628021,-0.9311204552650452
1780625522964879400,12.38087939453125,-0.09872125089168549,0.4721110761165619,-0.951982855796814
1780625522974909200,12.3909091796875,-0.095535047352314,0.5137078166007996,-0.9216793179512024
1780625522984938200,12.400938232421876,-0.1272767335176468,0.6049208045005798,-0.8360639810562134
1780625522994968000,12.410968017578124,-0.16794453561306,0.6172325611114502,-0.7492193579673767
1780625523004997400,12.420997314453125,-0.16717886924743652,0.5164005160331726,-0.6730021238327026
1780625523015027200,12.431027099609375,-0.13799382746219635,0.4076780378818512,-0.6192280650138855
1780625523025056300,12.44105615234375,-0.07332774251699448,0.32428112626075745,-0.6196134686470032
1780625523035086000,12.451086181640624,0.029680663719773293,0.2583298087120056,-0.665577232837677
1780625523045115100,12.461115234375,0.18606281280517578,0.2314784973859787,-0.7062678933143616
1780625523055145200,12.471145263671875,0.33970484137535095,0.22328820824623108,-0.7333101630210876
1780625523065174300,12.48117431640625,0.4151391386985779,0.29260390996932983,-0.7514058351516724
1780625523075204000,12.4912041015625,0.3603416681289673,0.46762579679489136,-0.7607705593109131
1780625523085233200,12.501233154296875,0.19729815423488617,0.6145251989364624,-0.7740530967712402
