time,seconds_elapsed,z,y,x
1780625760044656600,0.06865673828125,0.4855787003755569,-0.12152736156284809,-0.06539334987606853
1780625760054651600,0.078651611328125,0.43584582443535325,-0.27938451213538645,-0.21903960475530473
1780625760064647700,0.088647705078125,0.2007680715382099,-0.43863311706632374,-0.32567532133031635
1780625760074643000,0.098642822265625,0.056844753772020334,-0.4377680246695876,-0.43298824304714795
1780625760084638000,0.108637939453125,0.006107669225335121,-0.4147968989267945,-0.5488384722890332
1780625760094633000,0.118633056640625,-0.05840776530504226,-0.3977566245377063,-0.5909113715279847
1780625760104628000,0.1286279296875,-0.12573825725615023,-0.2095212868362665,-0.47912448273487385
1780625760114622700,0.138622802734375,-0.18029694591760634,0.08410334757566451,-0.24840737273264674
1780625760124617700,0.14861767578125,-0.1026560723543167,0.4002481490924954,0.07287639910783618
1780625760134613800,0.15861376953125,0.12332125924229621,0.4361199652016163,0.28435294819772244
1780625760144608800,0.16860888671875,0.3346200771450996,0.3686462653875351,0.38892658114377404
1780625760154603800,0.178603759765625,0.36798867826163767,0.4134454843178391,0.47437674021851267
1780625760164598800,0.188598876953125,0.12447744354009628,0.7239052259355783,0.6815732008364052
1780625760174593800,0.19859375,-0.3901034794360399,0.6926660380631685,0.8922016451969742
1780625760184588500,0.208588623046875,-0.2599094118148088,0.2159352455317974,0.28019593811612575
1780625760194584800,0.218584716796875,-0.09498188446462154,0.2995619155064225,-0.3276477539144456
1780625760204579800,0.228579833984375,-0.4362409612327814,0.15406594159603118,-0.4992969176698476
1780625760214574800,0.238574951171875,-0.3431254551619291,0.1361728497698903,-0.49315523657705634
1780625760224569900,0.24856982421875,-0.18672844026982782,0.08922346706837415,-0.37817419138513503
1780625760234564900,0.25856494140625,-0.09214052355885505,0.4325350924521684,-0.026973000061605124
1780625760244560000,0.268559814453125,-0.01745557719171047,2.1732009479284287,1.168841388668865
1780625760254555600,0.2785556640625,-0.5308557659506797,2.201839305652678,1.6328395408771932
1780625760264550700,0.288550537109375,-0.09766367089450359,1.2933929203584789,1.6480979002855718
1780625760274545700,0.298545654296875,0.8578805656611919,2.8932459913045165,2.8295564862042664
1780625760284541000,0.308541015625,0.3009580460399389,1.819126520989835,2.1296032137423753
1780625760294536000,0.318535888671875,0.9676952775985002,0.7656807131305337,1.4123027928993106
1780625760304531000,0.328531005859375,1.8297113356292247,0.06132131466418504,0.987044632647559
1780625760314526700,0.338526611328125,1.6186925037115811,-0.6369155092686415,0.054414823211356995
1780625760324521700,0.348521728515625,1.0021247859448195,-0.8712728389367461,-0.8666426949180662
1780625760334516700,0.358516845703125,0.4230103082597255,-0.7943588183432817,-1.1173958635918795
1780625760344511700,0.36851171875,-0.934008112052083,-0.4953282332345843,-1.234063364033401
1780625760354506800,0.3785068359375,-2.4188936183422802,-0.03837181623131036,-1.3196262627676127
1780625760364501800,0.388501708984375,-2.697369198939204,0.09217588713318109,-1.2471905566319823
1780625760374497800,0.398497802734375,-2.2794003919780255,0.10102525628209114,-1.2100315502565353
1780625760384492800,0.408492919921875,-1.6217109747499228,0.25542642118185754,-1.3298381524413823
1780625760394487800,0.41848779296875,-0.49422027199268337,0.25869243724048135,-1.1336688068702816
1780625760404482800,0.42848291015625,0.5846212584078312,0.13101824348568916,-0.8720037835597991
1780625760414477800,0.438477783203125,0.9921779769480228,0.07936521313786506,-0.6245816590048372
1780625760424472800,0.448472900390625,0.5274421581149101,0.19296996500790117,-0.25384375510029494
1780625760434468900,0.45846875,-0.3196189073681831,0.4246387862443924,-0.10376344907432794
1780625760444463600,0.468463623046875,-0.7372785022497177,0.7834229983091354,-0.24466665183436123
1780625760454458600,0.478458740234375,-0.5105711028128862,1.726059237974882,-0.8406468875918537
1780625760464453600,0.48845361328125,-0.5040098446011543,1.1240998912751674,-0.8380711188197135
1780625760474448600,0.49844873046875,-0.19859131202101707,0.10781915420591831,-0.007888323830720037
1780625760484444000,0.50844384765625,-0.02567512400448322,0.1677630430370569,0.11796455451473593
1780625760494440000,0.51843994140625,-0.276768776679039,0.8320517123997211,-0.2551457776095718
1780625760504435000,0.52843505859375,-0.5301210219353437,1.38036539362967,-0.3296222688578069
1780625760514429700,0.5384296875,-0.9956588048011064,1.92679340724349,1.439468593852967
1780625760524424400,0.548424560546875,-1.2833937966525555,2.161701064270735,8.424758419716358
1780625760534419500,0.55841943359375,0.40224692169427867,1.373711196437478,5.944543194448948
1780625760544414500,0.56841455078125,1.094378122228384,1.4210872801184653,1.1976944120571016
1780625760554410500,0.578410400390625,-0.1802373246848583,0.829817669737339,-0.5596285271769389
1780625760564405500,0.588405517578125,-0.8068845379173755,0.45570729372501373,-1.9684094660930334
1780625760574400500,0.598400390625,-0.8903367281079292,0.9612012394040822,-3.1553210567206142
1780625760584395500,0.6083955078125,-0.49669104602038855,0.8824363302469252,-2.8187819942116734
1780625760594390300,0.618390380859375,0.8843804500520229,0.4652449373990297,-1.8894266764014958
1780625760604385300,0.62838525390625,2.7143770323634144,-0.31427520825266836,-0.4669171083949506
1780625760614380500,0.638380615234375,3.2331735272079705,-1.6593004084318874,2.699051160676777
1780625760624376600,0.64837646484375,1.5049486356317996,-2.834723075187206,2.160878349711001
1780625760634371600,0.65837158203125,-0.9014584261029959,-3.0927362979918716,0.6712445529151707
1780625760644366600,0.66836669921875,-1.5726783560335635,-1.8090321202158928,-0.2448884048262611
1780625760654361600,0.678361572265625,1.9939257462739943,0.6646037266612053,-0.4284735786342993
1780625760664356400,0.6883564453125,2.837316014289856,1.6439724909186362,-0.19061658854847774
1780625760674351400,0.698351318359375,0.6060813950657844,1.3319979608237742,-0.1232445224779658
1780625760684347400,0.708347412109375,-0.33088498227000235,1.2879782018333672,-0.3743679309699684
1780625760694342400,0.71834228515625,-0.05405658435821533,0.8420189796626567,-1.565417571250349
1780625760704337700,0.728337646484375,0.4481318900346756,-0.2020575268268585,-1.4644365925014018
1780625760714332700,0.738332763671875,0.9697978028357028,-1.6861790630072355,-0.6004554449427872
1780625760724327700,0.74832763671875,2.020161426770687,-2.598618901851773,-0.1144106614254415
1780625760734322400,0.758322509765625,3.1085107902288436,-1.9411288065880536,0.012037424600496888
1780625760744318500,0.768318359375,3.3969057072937487,-0.36543782473504544,-0.08947561519853771
1780625760754313500,0.7783134765625,2.635115279600024,0.45237201182246206,-0.344865211501345
1780625760764308500,0.78830859375,2.06693077673018,0.30127018072903156,-0.4212372341725975
1780625760774303500,0.798303466796875,1.7943641279160976,0.12485738276839256,-0.4334628748215735
1780625760784298500,0.808298583984375,1.0331061996638775,0.495873299896717,0.011835910679027438
1780625760794293500,0.81829345703125,0.10991115804910659,1.331552847404778,0.6535198764584959
1780625760804289500,0.82828955078125,-0.4650625665694475,1.8095427000865338,0.904800503072515
1780625760814284500,0.838284423828125,-0.1897977647125721,2.018753313538432,0.8934972379654645
1780625760824279600,0.848279541015625,0.6663409257173538,2.4832538623109457,0.8079479293651879
1780625760834274600,0.858274658203125,0.8254302484333514,2.1602093644082543,0.8575227651994675
1780625760844269600,0.86826953125,0.46535541203618047,1.5892141880318522,-0.6980732308689505
1780625760854264600,0.8782646484375,0.49000820725560185,1.714690579481423,-3.6153275089442727
1780625760864260400,0.88826025390625,0.8404957156181335,-0.3737932728871703,1.0491342282705007
1780625760874255400,0.89825537109375,1.0406412713438271,-0.6492053742602467,2.5297081549718974
1780625760884250400,0.90825048828125,0.7245908701121807,0.538397267371416,2.122500542130321
1780625760894245400,0.918245361328125,1.3478542861253022,1.5815812089353798,1.5437123737901448
1780625760904240600,0.92824072265625,1.990657099866867,2.044182646088302,0.47203255171254277
1780625760914235600,0.938235595703125,1.7872312072962522,2.215201768311858,-0.2788967651510611
1780625760924231400,0.9482314453125,1.954813633069396,2.293880022098869,-0.5205190808534622
1780625760934226400,0.958226318359375,2.5208792440891266,2.000685449667275,-0.5437119595881551
1780625760944221400,0.968221435546875,2.242507123866677,1.3446025908529757,-0.484477315004915
1780625760954216400,0.978216552734375,2.5607044739991425,0.6622825902372598,-0.7273171532709151
1780625760964211500,0.98821142578125,2.932300236842036,0.25112463233470916,-1.178186724641174
1780625760974206500,0.99820654296875,2.458297992491722,0.03655687576383352,-1.599399189698696
1780625760984202500,1.008202392578125,1.452203718394041,0.3262826030410826,-1.8102007256038486
1780625760994197500,1.018197509765625,1.400996093726158,0.9670254155129193,-1.6033495347596705
1780625761004192500,1.028192626953125,2.652159353381395,1.6098481029987335,-0.7107207501918077
1780625761014187500,1.0381875,2.739322673049569,2.110351400783658,-0.21902692793682216
1780625761024182500,1.0481826171875,2.8352760328948494,2.1742367207169533,-0.5193928533025086
1780625761034177500,1.058177490234375,3.179012897953391,1.935836399268359,-0.8473606329515576
1780625761044173600,1.068173583984375,3.5254566838830708,1.8506043399237095,-0.9740399704501033
1780625761054168600,1.07816845703125,4.08335652410388,1.8479194847539067,-0.8880071161165833
1780625761064163300,1.088163330078125,4.401386116454005,1.7949214695379136,-1.667190284898877
1780625761074158300,1.098158447265625,4.457458716809749,1.7222439174704252,-2.700548998019099
1780625761084153300,1.1081533203125,3.3866672218739984,1.8507948940597474,-2.7605785193070767
1780625761094148400,1.1181484375,1.4657961904168129,2.5585417430073023,-0.7191261749655008
1780625761104143400,1.128143310546875,-0.22683073355555533,3.075616820886731,0.6935533422917127
1780625761114139600,1.1381396484375,-0.6637924102783203,3.7123926294237375,0.39601007313132286
1780625761124134700,1.148134765625,0.038622283861041065,3.717119657945633,0.1479740544617176
1780625761134129400,1.15812939453125,0.5128068990409373,2.7513451192766425,0.14600596925914286
1780625761144124400,1.16812451171875,1.1186720210075378,2.538433313219249,0.5575479580432177
1780625761154119400,1.178119384765625,1.3502525794386864,2.7835826705366373,0.7031055990129709
1780625761164114400,1.188114501953125,1.3677613481223583,2.762379723510146,0.6250777719587087
1780625761174110500,1.1981103515625,0.6585673691064119,2.402352379516512,-0.2150502793908119
1780625761184105500,1.20810546875,-1.0363532187610864,2.365415272263437,-0.990726609095931
1780625761194100500,1.2181005859375,-3.1663743656545877,2.4144588507652283,-1.5244506239593028
1780625761204095500,1.228095458984375,-4.726359828853607,1.9264711895518003,-2.3408108462303874
1780625761214090500,1.238090576171875,-5.055065713518857,1.467338159161806,-2.453320204079151
1780625761224085500,1.24808544921875,-4.615413190276921,1.0025975180231035,-2.377026068949699
1780625761234081500,1.25808154296875,-3.5574782543048262,0.4584461441043764,-1.8805682471632956
1780625761244076500,1.26807666015625,-2.1921122768864034,-0.2122309841863811,-1.7746832758903501
1780625761254071600,1.278071533203125,-1.842890550675988,-0.711927934024483,-2.158006301406026
1780625761264066600,1.288066650390625,-2.2361112853497267,-0.41307226709127426,-2.1344243502885103
1780625761274061600,1.2980615234375,-2.7941505340412256,0.037221477152407166,-2.291243974506855
1780625761284056300,1.308056396484375,-3.072332392388582,0.5645999223813414,-2.5845693337112663
1780625761294052600,1.318052490234375,-2.762574369299412,0.7325567344248295,-2.827767264699936
1780625761304047600,1.328047607421875,-2.2178291942059993,0.1936424574419856,-3.364155530336499
1780625761314042600,1.338042724609375,-2.161575392064452,-0.44537586932480333,-4.052428301876783
1780625761324037600,1.34803759765625,-2.4684412008434533,-0.8714429348066449,-4.719088376545906
1780625761334032600,1.35803271484375,-2.390555997130275,-1.1107184316545724,-5.111519422146678
1780625761344027400,1.36802734375,-2.017617879767716,-1.3440864580243825,-5.343371198734641
1780625761354023400,1.3780234375,-1.7771984735816717,-1.7221306663542986,-5.600360339188575
1780625761364018400,1.388018310546875,-1.7852219133004545,-2.2031626632109282,-6.077047877100109
1780625761374013400,1.398013427734375,-2.0807067886263133,-2.802427071738243,-6.595391952002048
1780625761384008400,1.408008544921875,-1.8318527315720914,-3.0851407282963392,-6.171760296973586
1780625761394003500,1.41800341796875,-1.2741940066307782,-2.9140464950099587,-5.527262954273819
1780625761403998500,1.42799853515625,-0.7004445631101727,-2.5781477762311695,-4.919271926194429
1780625761413994500,1.437994384765625,0.8863242775961756,-2.043219938535988,-4.642124963852763
1780625761423989500,1.447989501953125,3.2477029878199097,-2.04880299936533,-2.8085154517412185
1780625761433984500,1.457984619140625,1.7747081180706619,-2.7721932615160942,-1.020644777497649
1780625761443979500,1.4679794921875,1.1368085662007332,-2.6694191157400606,-2.586115394109487
1780625761453974500,1.477974609375,1.8589552580311894,-2.7806495396941897,-3.130917267826199
1780625761463969500,1.487969482421875,2.3539196263894437,-3.5935692661225795,-2.71522517362535
1780625761473965300,1.49796533203125,1.855508770839125,-3.639930035281181,-2.311642619413137
1780625761483960300,1.507960205078125,1.8726072051562368,-2.973499677714705,-2.108924582850933
1780625761493955600,1.51795556640625,2.4301427421092985,-2.5822674865096804,-1.5469652381062506
1780625761503950600,1.52795068359375,2.737440804825723,-2.4022107790887355,-1.058944989797473
1780625761513945900,1.53794580078125,2.2783786477148533,-2.2972347393542525,-1.128735149860382
1780625761523940900,1.54794091796875,0.9719869834430516,-2.13664377990365,-1.538068230423331
1780625761533937000,1.55793701171875,-0.36114626502096653,-1.6881372113376856,-1.9215321257144211
1780625761543932000,1.567931884765625,-1.2854577434450387,-1.0462824921011924,-1.8124363757014275
1780625761553927000,1.577927001953125,-1.8103098850667476,-0.4783545943409204,-1.5328677391707897
1780625761563922000,1.587921875,-2.0066507878124713,-0.09582651859521865,-1.693445839139819
1780625761573917000,1.5979169921875,-2.429124943368882,-0.2533008073300123,-2.515492290353775
1780625761583912000,1.607911865234375,-2.887413047367334,-0.643870735234022,-3.5291800883203743
1780625761593907700,1.61790771484375,-3.09773688275814,-0.6940583692044019,-4.16177831891179
1780625761603902700,1.62790283203125,-3.173708946326375,-0.5548872144013643,-4.216281477993727
1780625761613897700,1.637897705078125,-2.998396218562126,-0.4448901316344738,-3.9058138453304765
1780625761623892700,1.647892822265625,-2.510557464300096,-0.5504682289153338,-3.541448618263006
1780625761633887700,1.6578876953125,-2.2586900507740677,-0.7600345239371061,-3.283520151132345
1780625761643882800,1.6678828125,-1.7936017652414737,-0.7594511710911989,-3.067396105030179
1780625761653879000,1.677879150390625,-0.3353821475587785,-0.7829998044610023,-2.556199563795328
1780625761663873800,1.687873779296875,0.3094347824841738,-0.716714437648654,-1.6549340299159288
1780625761673868800,1.697868896484375,0.25589944552108645,-0.3652268123328686,-1.504205708310008
1780625761683863800,1.70786376953125,0.8808834017165005,-0.5052490310072899,-1.5213205092400313
1780625761693858800,1.71785888671875,0.739402070274949,-0.7611375167429447,-1.23416770119071
1780625761703853800,1.727853759765625,0.8457271865308285,-0.5052458161368966,-0.7507090617090463
1780625761713849900,1.737849853515625,0.5509773474812507,-0.10878244628012179,-0.018919220003485678
1780625761723844900,1.747844970703125,0.40688583354130387,0.3195882199689746,0.5776999347120523
1780625761733840000,1.75783984375,0.7499462606430053,0.3889709682747721,1.0239221917331218
1780625761743835000,1.7678349609375,0.928317791455984,0.3517603047773242,1.5080962860077618
1780625761753830000,1.777829833984375,1.1680015768438576,0.4277180475592613,2.1993822678893804
1780625761763825000,1.787824951171875,1.4579542447447775,0.4116705835998058,2.6759873882144687
1780625761773820000,1.79781982421875,0.8020385591909289,0.7474103124246001,2.8135961160063743
1780625761783816000,1.80781591796875,-0.31216742231845857,1.3031433300003408,2.2508915058523415
1780625761793811000,1.81781103515625,-0.9949906962811946,1.285246731042862,1.4451187285691498
1780625761803806000,1.827805908203125,-1.770284456409514,1.1394546967953443,0.6322960327744483
1780625761813800700,1.83780078125,-1.5117729286938906,0.9849345816910267,0.460803740081191
1780625761823795700,1.847795654296875,-0.4906564420312643,0.5452390960901975,1.006155648896098
1780625761833790700,1.857790771484375,-0.6743278328180313,0.14904226821511982,0.877184985589981
1780625761843787000,1.867787109375,-0.2145426221296191,-0.3864823663294315,0.8565513628840445
1780625761853782000,1.877781982421875,0.3522863744780421,-1.3809206894248722,1.3219704878062009
1780625761863777000,1.887777099609375,1.517741773970425,-1.9309382519632576,1.4348545241862534
1780625761873772000,1.89777197265625,5.855991050770879,-2.560372173304856,2.607270994862914
1780625761883766800,1.907766845703125,6.591987111994624,-3.6372915034711357,3.453517236831784
1780625761893761800,1.91776171875,5.812238418284058,-3.7803064742207524,3.1296938635110854
1780625761903757800,1.9277578125,6.168175424224138,-4.160510783194005,2.6641636794298886
1780625761913752800,1.9377529296875,6.274254456764459,-4.651761683987081,2.3264608338385817
1780625761923747800,1.947747802734375,6.273482887870073,-4.4837437894061205,2.638161223167181
1780625761933742800,1.957742919921875,5.7602691615939134,-4.227227234899997,2.9577047272115946
1780625761943737900,1.96773779296875,5.129163215386868,-4.051963022452592,2.9981372753649946
1780625761953732900,1.97773291015625,4.787354103520513,-4.127868742786347,2.441810968071222
1780625761963729000,1.98772900390625,3.5371316318467256,-4.650808036524057,0.6872025119602679
1780625761973724000,1.997723876953125,1.363537592947483,-4.6863475519388915,-0.9320797743380069
1780625761983719000,2.007718994140625,1.0357377172112465,-3.421434291611612,-1.215612638324499
1780625761993714000,2.0177138671875,2.6956787616342304,-1.8274495281770824,-0.0020697920113801954
1780625762003709000,2.027708984375,4.111731262455881,0.027838147257268426,1.8024112407714128
1780625762013704000,2.037703857421875,3.8841438653141256,1.8652797848775982,3.35149069455266
1780625762023699700,2.04769970703125,1.5167837425932287,2.7988153109818694,3.570872281146049
1780625762033695000,2.057695068359375,-1.643790412349999,3.4608743215963242,1.7108102309167383
1780625762043690000,2.06768994140625,-4.643427570883929,3.720590548926592,-0.7885048316180705
1780625762053685000,2.07768505859375,-5.4671226660877466,3.914453371120989,-2.37202606870532
1780625762063680000,2.087679931640625,-4.41243591825664,4.246352206608653,-2.0293173776507376
1780625762073675000,2.097675048828125,-3.176836138436198,4.692686984093487,-1.3898779028624295
1780625762083670800,2.1076708984375,-3.354866600726545,5.50040709605217,-2.1287989116221664
1780625762093665800,2.117665771484375,-4.458563463181257,6.120505326032638,-3.745642572596669
1780625762103660800,2.127660888671875,-6.003499241286516,6.2934431413590906,-5.036347569045424
1780625762113655800,2.13765576171875,-6.807972041887044,5.9661716734111305,-6.384562505176663
1780625762123650800,2.14765087890625,-6.824617471739649,5.277769722533225,-8.450847385218738
1780625762133645800,2.157645751953125,-4.041682451456785,4.571618472214043,-9.942088398015498
1780625762143641900,2.167641845703125,0.9332990869998932,3.4987925488412377,-9.101465256625414
1780625762153636900,2.177636962890625,4.124824845045805,2.6052427039057013,-7.945849114102125
1780625762163631900,2.1876318359375,6.664373718291521,3.439190020793676,-4.884579382997751
1780625762173627000,2.197626953125,8.230443469840287,4.648234386643767,-1.3697235881060361
1780625762183622000,2.207621826171875,6.526535857918858,5.099892697238922,0.511604537513852
1780625762193617000,2.217616943359375,3.312118176846206,4.973812494677305,0.802801067996025
1780625762203613000,2.227613037109375,0.4089464193329215,3.985978684413433,0.18832301598489284
1780625762213607700,2.237607666015625,-0.671928078199923,3.154664930899441,-0.5636339999586344
1780625762223602700,2.247602783203125,-0.7258774027913808,2.5725132774755357,-0.8840607165783643
1780625762233597700,2.25759765625,-3.1414678879350424,2.069606133419275,-1.3973808258384466
1780625762243593000,2.267593017578125,-5.63384759824872,1.307283498544991,-2.539155490013957
1780625762253588000,2.277587890625,-7.787226239854097,0.653229515209794,-3.3999218402445313
1780625762263584000,2.287583984375,-8.419047640854119,1.3414777368307114,-2.602022572815418
1780625762273579000,2.2975791015625,-6.369014807432889,2.840691043680906,-0.2259223865389824
1780625762283573800,2.30757373046875,-3.7184962069958445,2.341725622987747,2.009255417352915
1780625762293568800,2.31756884765625,-3.173447080519795,0.9434618768349289,2.3915111058980223
1780625762303563800,2.327563720703125,-2.423957915994525,0.31978929549902674,1.3842360975831747
1780625762313558800,2.337558837890625,-1.6457880159080027,-0.45047202342003584,0.7452811914414167
1780625762323554800,2.347554931640625,-0.9963763054206967,-1.109480998814106,0.9654659111112356
1780625762333550000,2.357550048828125,-0.5664432121604681,-1.1620698487073182,1.272622227269411
1780625762343545000,2.367545166015625,-0.2703042568400502,-0.6951870809733868,1.5743693778604269
1780625762353539800,2.377539794921875,0.07660626981854439,-0.17844255022257566,2.392590133306384
1780625762363534800,2.387534912109375,0.9726941087990999,0.15880203020721673,2.86455590339303
1780625762373531000,2.39753076171875,1.335524965906143,0.10457067380398512,2.9428216308563946
1780625762383526000,2.40752587890625,1.1142635569155215,0.28150895694345235,3.137446961855888
1780625762393521000,2.41752099609375,2.9336066432654855,0.5155149889558553,3.381514661416411
1780625762403516000,2.427515869140625,6.32003888733983,0.3839560627222061,3.974329163151979
1780625762413511000,2.437510986328125,10.19824459477663,0.6405626335993408,4.86673334518373
1780625762423505700,2.447505615234375,8.113532662162184,-0.4655345679953694,3.6144197464495895
1780625762433502000,2.457501953125,1.1244739852845669,-1.5055588764846324,0.16771452772021292
1780625762443497000,2.4674970703125,1.3507932621866463,-0.5741472106665373,-0.44003743090629577
1780625762453492000,2.477491943359375,2.021323456287384,-1.1912675938799977,0.3116115420013666
1780625762463487000,2.487487060546875,1.424683843305707,-1.7095438642427325,0.03730827865302563
1780625762473482000,2.49748193359375,1.4627911633819342,-2.384481645652652,-0.7009761857688427
1780625762483477000,2.50747705078125,1.0926222184717655,-3.3227143896624445,-1.1081973887443541
1780625762493472800,2.51747265625,0.7657353659272194,-3.6523128392532467,-0.57833823261559
1780625762503467800,2.5274677734375,0.850653537017107,-3.0901012733131643,0.5846762034654617
1780625762513461800,2.537461669921875,0.66838090711236,-2.2839880120292304,1.921987468266487
1780625762523456800,2.547456787109375,0.34369828661382196,-1.7369430355608462,2.9918823066234586
1780625762533451800,2.55745166015625,0.7930021430373191,-1.7071321269258857,4.170281943362951
1780625762543447000,2.567447021484375,1.4717869552642107,-1.81365305801481,4.887818803310394
1780625762553443000,2.577443115234375,1.9622960977792738,-1.9882073686271904,4.01686949723959
1780625762563437800,2.587437744140625,2.3799597843140363,-2.167981167453527,2.8149638972282407
1780625762573432800,2.597432861328125,2.514656716312468,-2.2292563048884273,1.7470225310266017
1780625762583427800,2.607427734375,1.618017673189938,-2.075380625167489,0.11859072358906268
1780625762593422800,2.6174228515625,1.0401181242525577,-1.3824451225131749,-0.6121300275802612
1780625762603417900,2.62741796875,0.8618336872011423,-1.0792273148477076,-0.10441723680794239
1780625762613414000,2.637413818359375,-0.04345452632308006,-0.2453352352783084,0.5980933189213276
1780625762623409000,2.647408935546875,-0.2167170435592532,0.24750731862038372,1.102194348937273
1780625762633404000,2.65740380859375,-0.8037129221439361,-0.2449167176052928,0.15607903498411177
1780625762643399000,2.66739892578125,-0.5201584308475256,-1.2019237201899289,-0.4205471330165863
1780625762653394000,2.677393798828125,-0.048290275916457175,-2.1953683560729025,-0.7990876004308461
1780625762663389000,2.687388916015625,-0.8668225815296172,-1.8400968283042312,-1.6343869164496658
1780625762673385000,2.697385009765625,-1.7124258494198321,-0.6714306500717997,-1.8650760789990424
1780625762683380000,2.7073798828125,-2.2218284929752348,1.81344789083153,-1.6151707593262195
1780625762693375000,2.717375,-0.9527668807968497,0.5670253959625959,-0.5648667566239833
1780625762703369700,2.72736962890625,-1.383548992101848,0.3875941269636154,-0.5747077671587467
1780625762713364700,2.73736474609375,-1.631363476975262,0.8046072406351565,-0.45935354127287864
1780625762723359700,2.74735986328125,-1.2585624299958347,0.2358186343923211,0.5227513699501752
1780625762733356000,2.75735595703125,-0.05410246932655573,-1.3619257738366721,0.49447979971170425
1780625762743351000,2.76735107421875,0.2255383556574583,-3.443237834879756,-0.390879139983654
1780625762753346000,2.777345947265625,-0.9002756460592151,-3.3454376781240103,-2.0858552574306723
1780625762763341000,2.787341064453125,-1.4583116798803208,-1.7896800617530941,-2.6356203065127133
1780625762773335800,2.797335693359375,-1.991589412280917,0.03409311599880457,-1.5754039816051721
1780625762783331800,2.807331787109375,-3.6152135271757837,2.2727640227034684,0.34179859047234057
1780625762793326800,2.817326904296875,-4.39065429455936,2.394533084067702,0.35707156292796133
1780625762803321900,2.82732177734375,-4.054434381002188,2.376996258333325,-0.26483225516974923
1780625762813316900,2.83731689453125,-2.908664509710669,1.9573083724945783,-0.40738194649517534
1780625762823312000,2.847311767578125,-1.011516006885469,2.720851781335473,0.8991022183656692
1780625762833307100,2.85730712890625,0.43690030192434787,3.1539307714059945,1.6255997988820075
1780625762843303000,2.867302978515625,0.9261594443783163,3.362141267904639,1.6003911233454942
1780625762853298000,2.8772978515625,0.9298223508000373,4.208465835806727,1.5881927360296249
1780625762863293000,2.88729296875,1.0645935170784593,4.179763472935557,1.070955161064863
1780625762873288000,2.897287841796875,1.345297879640758,3.3614053548455236,0.24456045151352881
1780625762883283000,2.907282958984375,1.3469883169457315,2.5796456135734913,-0.29255729744136333
1780625762893278000,2.91727783203125,1.2373089218258857,1.4187094450712203,-0.986873440799117
1780625762903273700,2.927273681640625,0.7029273198366165,-0.14508914667516945,-1.1486480570763349
1780625762913268700,2.937268798828125,0.47419747466146944,-0.9982458986848592,-0.4558569313287735
1780625762923264000,2.947263916015625,-0.07475859612524509,-0.5154235112801194,0.44031390976011753
1780625762933259000,2.957259033203125,-0.8973393003463744,0.6340387847885489,0.8309580719441175
1780625762943254000,2.96725390625,-1.1580495071500538,1.4088801249742506,0.6342413216233254
1780625762953249000,2.9772490234375,-0.6361103303655982,1.4969287030443548,0.3852952023714781
1780625762963244800,2.987244873046875,0.3247802356541157,1.4927105008274315,0.5747966144859791
1780625762973239800,2.99723974609375,0.9837354350343346,1.4738503175348043,0.8749240549206733
1780625762983234800,3.00723486328125,1.018254375229776,1.6640245143443344,1.187477261686325
1780625762993229800,3.017229736328125,0.6489823791593313,1.6331740335285663,1.0403753138840197
1780625763003224800,3.027224853515625,0.4886351653367281,2.0840257039159535,0.9222405173689127
1780625763013219800,3.0372197265625,0.46566111698448653,2.8122026158213616,0.8880027322024107
1780625763023216000,3.047216064453125,0.10219868397563696,2.798340971468389,0.4436649737536907
1780625763033211000,3.0572109375,-0.2526768302127719,2.767644219909608,0.26514438985884187
1780625763043206000,3.067205810546875,-1.0221613195404409,2.792025796972215,0.3743669811218977
1780625763053201000,3.077200927734375,-2.2939929809540507,2.4987463227361437,0.3474789741963148
1780625763063196000,3.08719580078125,-2.775020593896508,1.1958408931449056,-0.8746043214470147
1780625763073192000,3.09719189453125,-2.131824981445074,-0.8935697186797856,-2.2057173161298036
1780625763083187000,3.10718701171875,-1.494688815163076,-0.42400691808164115,-1.1509130793988704
1780625763093182000,3.117181884765625,-1.0995359433829783,1.3313596629202364,-0.19139818564653396
1780625763103177000,3.127177001953125,-0.15016308893859387,1.9684470216244458,0.5497568657755851
1780625763113171700,3.137171630859375,0.7895946726813912,1.9133546644777057,0.3161901019632816
1780625763123166700,3.147166748046875,1.0537746014222502,0.9643962360531091,-0.5846919855564833
1780625763133163000,3.1571630859375,1.5728168877214193,-0.24315526089072226,-1.1730208663105963
1780625763143158000,3.167157958984375,1.713239503890276,-0.7751870848834514,-1.2211357856601477
1780625763153153000,3.177153076171875,1.2422273812666536,-0.797920310217142,-0.7510802331089973
1780625763163148000,3.18714794921875,0.9423065693199634,-1.008500166195631,-0.11884440608918666
1780625763173142800,3.197142822265625,1.0833742053940891,-0.9315274011522531,0.6054740768224001
1780625763183137800,3.2071376953125,1.1877490643650293,-0.8216098133623599,1.501943024075031
1780625763193133800,3.2171337890625,1.1711351986944676,-1.8702964439958334,1.288370416021347
1780625763203128800,3.22712890625,1.0867001349464058,-3.0722160725325343,0.7458581145465374
1780625763213123800,3.237123779296875,1.6481971228763461,-3.755347974053025,0.5273667547911405
1780625763223119000,3.247119140625,1.7941200900271534,-3.963896616464853,0.6530868918687105
1780625763233114000,3.257114013671875,1.2756804457962512,-3.9830806248843666,0.6369096640497446
1780625763243110000,3.26710986328125,1.1625623083993792,-3.7718122021198273,0.26822189760804177
1780625763253105000,3.27710498046875,1.3130802021250128,-3.1598522704094645,-0.03497662083506584
1780625763263100000,3.287099853515625,1.1588988174557686,-2.199720121541619,-0.20527648887336253
1780625763273095000,3.297094970703125,1.04598847759068,-0.9468079723924397,-0.10410393307507038
1780625763283090000,3.30708984375,1.2106190678209066,0.817307147732377,0.47813539863228793
1780625763293085000,3.3170849609375,0.9764172209754586,2.2319600108891726,1.193404313647747
1780625763303080700,3.327080810546875,0.03520458437204361,2.406021277287602,1.703994705682993
1780625763313076000,3.337075927734375,-0.2630281283572316,2.116541487595439,1.91881117631793
1780625763323071000,3.347071044921875,0.2617845580369234,1.8777736480087042,2.0573411106079815
1780625763333066000,3.35706591796875,0.9003399434670806,1.8052888420343398,2.0722855817615984
1780625763343061000,3.36706103515625,1.431473941837251,1.9629121838510035,1.80812318867743
1780625763353056000,3.377055908203125,1.049192826589942,0.8021466957405209,1.5239713160097599
1780625763363051800,3.3870517578125,1.1857687042027711,-0.2905979800671339,1.0841887366473675
1780625763373046800,3.397046875,1.3760098287686704,-0.24456746577620506,0.1008481461495161
1780625763383041800,3.407041748046875,0.9187269562900066,-0.6803335029736161,-0.4420148684591055
1780625763393036800,3.417036865234375,0.013840893825888633,0.26509645906388757,-0.4211246406435966
1780625763403031800,3.42703173828125,-0.9298480697631836,1.268407532183826,-0.1337830320239067
1780625763413028000,3.437028076171875,-0.8539417649075388,1.5942282168015838,0.3985954134494066
1780625763423023000,3.447023193359375,0.13724720100313426,0.8700836291521787,0.5800444520115852
1780625763433017900,3.457017822265625,0.9526923542559146,0.012335165438055991,0.5669032308876514
1780625763443012900,3.467012939453125,1.642457556311041,-0.8306573354318737,0.8706371713817119
1780625763453008000,3.4770078125,1.9284834061570464,-1.364893391470611,0.9771925892621278
1780625763463003000,3.4870029296875,1.3854735304236412,-0.9963374347150326,0.6060387249678373
1780625763472999000,3.4969990234375,1.5932929817780852,-0.8136994786292314,0.9021721273303032
1780625763482994000,3.506993896484375,1.896730715804547,-1.1989347675070166,0.5746043067842722
1780625763492989000,3.516989013671875,1.0183470219492912,-1.8415245230197905,-0.8715069399535655
1780625763502984000,3.52698388671875,0.044064913306385275,-2.743681745041907,-1.9951719469428062
1780625763512979500,3.5369794921875,-0.7055155096989124,-3.342285059311986,-2.579353644889593
1780625763522974700,3.546974609375,-1.5187094499588012,-3.2769510018751022,-2.957744474700093
1780625763532970800,3.556970703125,-2.08309982124269,-2.805888610368967,-2.1973568995416164
1780625763542965800,3.5669658203125,-2.3279233076065777,-2.2240213268443942,-2.7487399052143093
1780625763552960500,3.57696044921875,-2.5939386350810527,-1.3969234374597668,-4.102631133416295
1780625763562955500,3.58695556640625,-3.1757518503308293,-0.7074450895220041,-5.435291942062974
1780625763572950500,3.596950439453125,-3.1118489947408436,0.4797299743473529,-6.447599683848023
1780625763582946600,3.606946533203125,-2.226242802286148,1.612694724601507,-4.965324067795276
1780625763592941600,3.616941650390625,-0.45261049675345416,2.102033069771528,-2.7028812403589484
1780625763602936600,3.6269365234375,1.5552560965895652,3.301936974571645,0.2686772401601076
1780625763612931800,3.636931884765625,2.259042663604021,4.416811064600944,2.767175141093135
1780625763622926600,3.646926513671875,2.3768203172445297,4.159847058588266,4.070709223976731
1780625763632921600,3.656921630859375,1.9843384182393549,3.4774501933440565,4.463329070147871
1780625763642917600,3.666917724609375,1.331621528726816,2.9438626643419266,4.2647330819517375
1780625763652912600,3.67691259765625,0.9455272849321364,2.2151143822893498,3.6180490428626535
1780625763662907600,3.68690771484375,0.32841943240668625,1.8151497263133525,3.143208009600639
1780625763672902700,3.696902587890625,-0.4137526505708694,1.4228472755283117,2.9517893656879663
1780625763682897700,3.706897705078125,-0.6158206257265061,0.6162275260269642,2.5306466048657894
1780625763692892700,3.716892578125,-0.6118377666354179,0.23458295511752367,2.339450663793087
1780625763702888700,3.726888671875,-0.3729706313926726,0.030901626481115815,1.762980563136935
1780625763712883700,3.7368837890625,-0.007787073679640889,-0.22480507294684648,0.8743886328697205
1780625763722878700,3.746878662109375,0.3638730596363544,-0.11465806031525135,0.6527344251692294
1780625763732873700,3.756873779296875,1.4863947418093681,0.3274760506093502,0.4135369619935751
1780625763742868700,3.76686865234375,0.8665548705041408,-0.026575872236490248,-1.1068138254314661
1780625763752864500,3.776864501953125,0.19576580627150833,-1.245540159076452,-1.827972383007407
1780625763762859500,3.786859619140625,0.4736754966139793,-1.5702765555888414,-2.17220959880352
1780625763772854500,3.7968544921875,0.8233037577986717,-0.9916182972386479,-2.085134541940689
1780625763782849500,3.806849609375,1.4987339989006518,-0.3996627504199743,-1.4655349091321228
1780625763792844500,3.816844482421875,2.211453229433298,0.06958323931396007,-0.7762655277699232
1780625763802839600,3.826839599609375,1.3000959251284598,0.9591051439076661,0.02852817534804344
1780625763812835600,3.836835693359375,-1.7214087818205355,1.1684949133187532,0.00128010293841362
1780625763822830600,3.84683056640625,-2.859324432480335,1.6600258000969885,0.009539397239685058
1780625763832825600,3.85682568359375,-3.1878631438851355,1.2037415832668543,0.31262510295808316
1780625763842820600,3.866820556640625,-3.5238159309387207,1.4204641797840594,0.8686205708622932
1780625763852815600,3.876815673828125,-2.0263784015893935,2.118948548737168,0.877791134789586
1780625763862810600,3.886810546875,-0.08344970597252249,1.622846116259694,0.3394786230921745
1780625763872806700,3.896806640625,0.600922550997883,0.08591361186802386,0.2065676977276802
1780625763882801400,3.906801513671875,1.0974036075294018,-0.9865092836618423,0.14686521643698214
1780625763892796400,3.91679638671875,1.121644607077539,-1.6496932066529988,-0.02490998485088348
1780625763902791400,3.92679150390625,0.732916653778404,-2.5425854644626376,0.09537877482771873
1780625763912786700,3.93678662109375,0.21426263614445923,-3.208890149822831,0.26942893531024453
1780625763922782700,3.94678271484375,-0.6894577435411512,-4.36241721111238,-0.02025076086819172
1780625763932777700,3.95677783203125,-1.7732652257859707,-4.062102723672986,0.6970563819766045
1780625763942772700,3.966772705078125,-2.7807360489338633,-3.428427219238877,1.5718202778995036
1780625763952767500,3.976767578125,-3.17025822135061,-3.296449775332212,2.089787920704484
1780625763962762500,3.986762451171875,-3.5841935350120067,-2.2619775480121374,2.390458381974697
1780625763972757500,3.996757568359375,-3.1502818935096264,-0.9402467141807078,2.7389433183431624
1780625763982753500,4.00675341796875,-2.7010464261472222,-0.7678472435146569,3.1621015106409787
1780625763992748800,4.016748779296875,0.36934535356760023,0.43406887789070603,3.0030349842786785
1780625764002743800,4.026743896484375,14.652951382529734,2.5406226399570704,1.54271401040256
1780625764012738800,4.03673876953125,9.259552708822488,0.10481062003970146,0.2716834362387657
1780625764022733600,4.046733642578125,-0.12249591433405875,-1.7707061889529228,-0.7217185295462608
1780625764032729600,4.0567294921875,-1.7194015336513517,0.026992051821947097,0.39359541320502756
1780625764042724600,4.066724609375,-1.388137927327305,2.302726322507858,2.165919266487658
1780625764052719600,4.0767197265625,-2.9714988592863083,2.1167197667717934,2.000986770701408
1780625764062714600,4.086714599609375,-4.634174881631136,0.8793348571002483,1.7861466269299386
1780625764072709600,4.096709716796875,-3.498257126790285,0.242159820112586,1.6266922702938318
1780625764082704600,4.10670458984375,-0.0988930665589869,0.9503922606199979,1.3214514323681592
1780625764092700700,4.11670068359375,2.5567840856850146,0.994286931926012,0.6032014557152986
1780625764102695700,4.12669580078125,3.3887481198012828,0.6920148806780576,0.30006460433155296
1780625764112690700,4.136690673828125,3.1061820550203323,1.0869611239701509,-0.10874226040020585
1780625764122685700,4.146685791015625,2.8788088851511477,1.340120477002859,-0.803446380162239
1780625764132680700,4.1566806640625,1.9304491532720625,1.6804519175320862,-1.3990196790866554
1780625764142676500,4.166676513671875,0.3392835389114916,1.7741776644557714,-1.809084581055492
1780625764152671500,4.17667138671875,-0.9208138455666601,1.3427555016815662,-2.354842294192314
1780625764162666500,4.18666650390625,-2.125291488023102,0.4306681295365095,-2.88518251183629
1780625764172661500,4.19666162109375,-1.3832804042935372,-1.0392834269940852,-3.564340833550691
1780625764182656500,4.206656494140625,0.1360135675549507,-1.877085665744543,-3.6075142048448323
1780625764192651500,4.216651611328125,0.29697102223038674,-2.785924849748611,-3.6833202641963956
1780625764202647800,4.226647705078125,-0.4384756614822894,-3.9995062745064494,-4.079642179755866
1780625764212642600,4.236642578125,-0.8618635708827524,-5.645609932234883,-4.463041193117201
1780625764222637600,4.246637451171875,-0.36934418452382084,-7.513211730319261,-4.178955079162121
1780625764232632600,4.256632568359375,0.7922761668503284,-7.282503863069414,-2.892437889792025
1780625764242627600,4.266627685546875,0.2795101843416691,-4.211525223377347,-0.41218876225501294
1780625764252623600,4.27662353515625,-0.30300328813195226,0.1528016207486391,2.2751284137472507
1780625764262618600,4.28661865234375,-0.0680932884505717,3.454899046579003,4.049097988410294
1780625764272613600,4.296613525390625,-0.2710287717223167,6.788914290195703,5.825188500750064
1780625764282608400,4.3066083984375,-0.31428456060290333,11.671221052086352,6.649391253215074
1780625764292603600,4.316603759765625,0.6612228520512581,13.714931696748733,5.740481926584243
1780625764302598700,4.3265986328125,1.0227367813408375,10.374549256187677,2.8889401108041404
1780625764312594700,4.3365947265625,1.2052175010383128,7.670823381698131,0.07258388243466615
1780625764322589700,4.346589599609375,1.6641256366312502,5.1015720286279915,-2.179877356952429
1780625764332584700,4.356584716796875,1.3945651838958262,2.1516028641045093,-3.9782060045853256
1780625764342579700,4.366579833984375,1.2469196307361126,0.31067279984652996,-4.29129404888004
1780625764352574500,4.376574462890625,1.1072843655526636,0.14479542442560195,-2.3574998229637742
1780625764362570500,4.386570556640625,0.7258324676711112,0.700712566396594,0.26848113306611776
1780625764372565500,4.3965654296875,0.469924108191207,0.4407721749216318,1.4955623831272125
1780625764382560800,4.406560791015625,0.3073099723499268,-0.2043769096851349,1.7385946021601557
1780625764392555800,4.4165556640625,0.24730076319761574,-0.910132146424055,1.4033523014634848
1780625764402550800,4.42655078125,0.12686221978478132,-1.2900497474104164,0.9474223048985004
1780625764412546600,4.436546630859375,-0.01867079820036888,-1.3921224669188261,0.5815490113556385
1780625764422541600,4.44654150390625,-0.11800459426417946,-1.3066297108113765,0.27449264844059945
1780625764432536600,4.45653662109375,-0.23689861164875328,-0.9513742573946714,0.10949176359325646
1780625764442531600,4.466531494140625,-0.19463526787161825,-0.6515846706122159,-0.1042532784178853
1780625764452526600,4.476526611328125,-0.12090016957521438,-0.5346154107451438,-0.41885318858027454
1780625764462521600,4.486521484375,-0.1330208154797554,-0.5093763400703668,-0.6846124954670667
1780625764472517600,4.496517578125,-0.22217092505097388,-0.5470283175945282,-0.9130936265781521
1780625764482512600,4.5065126953125,-0.31232758131623267,-0.4983201085269451,-1.020247887134552
1780625764492507600,4.516507568359375,-0.34024083963632584,-0.3655570672005415,-1.0428799901813268
1780625764502502700,4.526502685546875,-0.19328516843691468,-0.1649234356969595,-1.0743307749778033
1780625764512497700,4.53649755859375,0.16869067927598952,0.08529635675251483,-1.048883029988408
1780625764522493700,4.54649365234375,0.40618557631745933,0.2788888375729322,-1.050658807489276
1780625764532488700,4.55648876953125,0.569657644162327,0.38091713341772554,-1.0771066694319247
1780625764542483500,4.5664833984375,0.3184804048575461,0.6744219408422708,-0.8534422909528017
1780625764552478500,4.576478515625,0.1374386319220066,0.6713046856045722,-0.8564183841541408
1780625764562473700,4.5864736328125,-0.10018602897897362,0.4321411246985197,-1.0841200553253292
1780625764572468700,4.59646875,-0.37152328212857244,0.2636579506933689,-1.1223413571700454
1780625764582464800,4.60646484375,-0.2697197349503636,0.04752747485041618,-0.9722571786865591
1780625764592459800,4.616459716796875,-0.36099370480775833,-0.3687520638495683,-0.6065192019611597
1780625764602454800,4.626454833984375,-0.383663509516418,-0.14048516001105307,0.04111790006905794
1780625764612449500,4.636449462890625,0.6989245139360427,0.06287409706413745,0.49515433797240255
1780625764622444500,4.646444580078125,1.2809748989425598,0.24191548996269702,0.7321557524085044
1780625764632440600,4.656440673828125,1.46915836032629,0.2673369314670563,0.42528278323635454
1780625764642435600,4.666435546875,1.071861023863405,0.23061960444450377,0.3453520451702177
1780625764652430800,4.676430908203125,0.8451179685913026,0.05304828409850597,0.22807225804924963
1780625764662425900,4.68642578125,0.5822536524936557,-0.07517126857936382,0.08414148762896656
1780625764672420900,4.6964208984375,0.25664354188665744,-0.10420213275253772,0.23629765008091924
1780625764682415600,4.70641552734375,0.2572838856168091,-0.08512041566371917,0.31588892705962063
1780625764692411600,4.71641162109375,0.4394983555935323,-0.06538578762412071,0.3574285596720874
1780625764702406700,4.72640673828125,0.9001318536743521,-0.06646539955437183,0.33421295764893294
1780625764712401700,4.736401611328125,1.2084490303054451,-0.034874914026260376,0.29066242360547184
1780625764722396700,4.746396728515625,1.273512892498821,0.047391281250119204,0.10487710940465331
1780625764732391700,4.7563916015625,1.4101692880019545,-0.002853635865449905,-0.15055398795232175
1780625764742387700,4.7663876953125,1.30369058861956,-0.06599427491128444,-0.3612127543859184
1780625764752382700,4.7763828125,1.119072710762918,-0.14442483754754065,-0.6011069676540791
1780625764762377700,4.786377685546875,1.0696306344628332,-0.22988602947294712,-0.805044755269587
1780625764772372700,4.796372802734375,1.34888421369493,-0.3510357898950577,-0.9914777197241783
1780625764782367700,4.80636767578125,1.967290252804756,-0.46424423592388625,-1.1254961679391562
1780625764792362800,4.81636279296875,2.521921154357493,-0.4852174658477306,-1.1198946946702897
1780625764802358500,4.826358642578125,2.530371002794802,-0.3594002981364727,-0.9818284323692321
1780625764812353500,4.836353515625,1.9911983671367168,-0.22617256190776824,-0.8750688702188432
1780625764822348500,4.8463486328125,1.5115549020290373,-0.08901274692714214,-0.8434832069963216
1780625764832343600,4.856343505859375,1.4016829069465397,0.0700526103913784,-0.8680638137623667
1780625764842338600,4.866338623046875,1.2227496505975723,0.0792547385007143,-1.0887623281732202
1780625764852334800,4.8763349609375,0.5615756061241031,-0.0026747721672058106,-1.333160282601416
1780625764862329600,4.88632958984375,-0.39300446157455443,-0.036680502143502235,-1.2122015147067606
1780625764872324600,4.89632470703125,-1.0601581649795173,-0.01144376955628395,-0.7377097332738339
1780625764882319600,4.906319580078125,-1.5022700640723108,-0.0713771369934082,-0.15660013624876737
1780625764892314600,4.916314697265625,-1.815242080771923,-0.30103987910449503,0.4474766409963369
1780625764902310700,4.926310546875,-1.8127452955201266,-0.5986170505344868,1.0019080744542181
1780625764912305700,4.9363056640625,-1.3634689116254448,-0.8065420080900192,1.585276410191506
1780625764922300700,4.94630078125,-0.6223486392557621,-0.9984370373427868,2.0709072791457177
1780625764932295700,4.956295654296875,-0.17595745540857313,-1.222505904969573,2.27435173028633
1780625764942290400,4.96629052734375,-0.2710530293807387,-1.544004634734988,2.1487191253617404
1780625764952285700,4.97628564453125,-0.32087942882329223,-1.9273919576585292,1.8531966945044696
1780625764962281700,4.98628173828125,-0.2136716845139861,-2.2131121025562286,1.439161573730409
1780625764972276700,4.99627685546875,-0.013071370758116244,-2.2138789952754974,0.9254813989862799
1780625764982271700,5.006271728515625,-0.12816811475157738,-1.9823264938950538,0.4220062457837164
1780625764992266800,5.016266845703125,-0.27079379392266273,-1.7530197256147861,0.07102861581668257
1780625765002261800,5.02626171875,0.04509703283309936,-1.5367249991208314,-0.10441548324227333
1780625765012257500,5.036257568359375,0.5908382332265377,-1.2540063741266727,-0.07380217218324542
1780625765022252500,5.04625244140625,1.043179849910736,-0.9828063374906778,0.036426088991016146
1780625765032247600,5.05624755859375,1.239598786328733,-0.7149129411846399,0.14046835500672458
1780625765042242800,5.066242919921875,1.1624983032524585,-0.4410673584759235,0.25850188310444355
1780625765052237800,5.07623779296875,1.077482809267938,-0.21486673951745033,0.2994774520933628
1780625765062232800,5.08623291015625,0.9966168361783027,-0.019735797083377835,0.31507103480547666
1780625765072228600,5.096228515625,0.8438821431860327,0.154989486181736,0.3018618630118668
1780625765082223600,5.1062236328125,0.5819505778938532,0.39115678788125513,0.28252281016111375
1780625765092218600,5.116218505859375,0.37453620020896194,0.6379653105825185,0.31626389785185455
1780625765102213600,5.126213623046875,0.43930677854418754,0.782032420733571,0.5101128376513719
1780625765112208600,5.136208740234375,0.884246010017395,0.8393319325357675,0.9567683715231716
1780625765122204400,5.146204345703125,1.658048070283234,0.915011150637269,1.3793366351038217
1780625765132199700,5.15619970703125,2.3331644231304525,1.067701127704978,1.6196419133909046
1780625765142194700,5.166194580078125,2.469642977848649,1.2234721196532248,1.4632209331013262
1780625765152189700,5.176189697265625,1.79884478046149,1.297823888543248,0.8819204896792769
1780625765162184700,5.186184814453125,0.9546715453743934,1.1733394307404756,0.2676061037972569
1780625765172180700,5.1961806640625,0.4093719512686133,0.8700830446302891,-0.05102013927176594
1780625765182175700,5.20617578125,-0.031763796268403525,0.6545230621516704,-0.1503982128687203
1780625765192170500,5.21617041015625,-0.11451134532094001,0.713359282001853,0.014301643205434082
1780625765202165500,5.22616552734375,0.21532997311502694,0.7797802578926086,0.3190769094459712
1780625765212160500,5.236160400390625,0.3767024383321404,0.7348480602324009,0.6201609199531376
1780625765222155500,5.246155517578125,-0.6036290334776043,0.46085985418260095,0.6985188557446003
1780625765232151800,5.25615185546875,-2.541137603741884,0.009867314019799232,0.8759346932679414
1780625765242146800,5.266146728515625,-3.717975105731189,-0.34609833349287505,1.3382003225952386
1780625765252141800,5.276141845703125,-3.7148166417002675,-0.2489437811642885,1.932024878156185
1780625765262136600,5.286136474609375,-3.0953967493727803,0.1873532941699028,2.2803476097002626
1780625765272131600,5.296131591796875,-2.173174059921503,0.7594213604748249,2.476304481564462
1780625765282127600,5.306127685546875,-1.4376727964773772,1.1860773317605255,2.191796342805028
1780625765292122600,5.31612255859375,-1.5739827166303992,1.3181103052467107,1.0092463083878158
1780625765302117600,5.32611767578125,-2.257688618646562,1.262924424597621,-0.21019202570468187
1780625765312112600,5.336112548828125,-3.0271088105663657,1.0479162307828664,-0.8297557104170322
1780625765322107600,5.346107666015625,-3.539104393224418,0.6945213105410337,-1.0539181015461683
1780625765332103700,5.356103759765625,-3.6307217696920033,0.35082302392721176,-1.0482160905122757
1780625765342098700,5.3660986328125,-3.3552570613488553,0.13106734332442282,-0.8678993439156562
1780625765352093700,5.37609375,-2.6263079960271716,0.08731354179382324,-0.5817586355183273
1780625765362088700,5.386088623046875,-1.512978505091369,0.12165595637857914,-0.3608337650056928
1780625765372083700,5.396083740234375,-0.8062114609614014,0.1827560295075178,-0.25171857963986694
1780625765382078700,5.40607861328125,-1.0986977389931678,0.2980523877263069,-0.2022700735989958
1780625765392074500,5.416074462890625,-1.7377040830612183,0.4676455687999725,-0.13103417170718312
1780625765402069500,5.426069580078125,-2.164837316469848,0.614161241146922,-0.15589059973992406
1780625765412064500,5.436064453125,-2.444280865316093,0.5458265405893326,-0.20123766181133687
1780625765422059800,5.446059814453125,-2.4727786455258727,0.3735328683853149,-0.2697653276577592
1780625765432054800,5.4560546875,-2.2717665360987187,0.2022451583534479,-0.34992052212953567
1780625765442050800,5.46605078125,-1.9616846878826617,0.1387146432071924,-0.4032071450285613
1780625765452045600,5.476045654296875,-1.6183543577983974,0.14921674799919127,-0.36817806335389613
1780625765462040600,5.48604052734375,-1.3740204085171221,0.17264906151294707,-0.2299061589455232
1780625765472035600,5.49603564453125,-1.1894924009010195,0.21206804870963095,0.050632455128431314
1780625765482030600,5.506030517578125,-0.9906303091146051,0.10617138699889182,0.42978345565646886
1780625765492025600,5.516025634765625,-0.8374924421489238,-0.12460662287771701,0.7073045120075344
1780625765502021600,5.526021728515625,-0.7903552817903459,-0.2441781741976738,0.8539286131650209
1780625765512017000,5.536016845703125,-0.9040497577704488,-0.20756664563715457,0.8954692686907947
1780625765522011100,5.54601123046875,-0.9995547893263399,-0.03441898695230484,0.8920689587280154
1780625765532006100,5.556006103515625,-0.9051882602810859,0.1295394031047821,0.8025283885344863
1780625765542001000,5.5660009765625,-0.6572456189833581,0.15947452264130116,0.5724761356491596
1780625765551997200,5.5759970703125,-0.5201099155306815,0.0130406833589077,0.2194903807301074
1780625765561992200,5.5859921875,-0.48742009045854207,-0.29388766926229,-0.23907420212216673
1780625765571987200,5.5959873046875,-0.4559551310062408,-0.5488590401530266,-0.690494246982038
1780625765581982200,5.605982177734375,-0.5597158036015928,-0.5813146180778741,-0.9559227144792676
1780625765591977200,5.615977294921875,-0.8122178617693483,-0.376977455881238,-1.07084936260283
1780625765601973000,5.625972900390625,-1.0167243891835211,0.012267360898852348,-0.9883604644864797
1780625765611968000,5.635968017578125,-1.0790927286826073,0.37542788835167884,-0.7655434966169298
1780625765621963000,5.645962890625,-0.9340063584864139,0.5208762237280606,-0.4781139905180782
1780625765631958000,5.6559580078125,-0.5906103427547961,0.4204162001132965,-0.23455000269599258
1780625765641953300,5.665953369140625,-0.1174796936072409,0.20112462989091873,-0.033535043724626304
1780625765651948300,5.6759482421875,0.16627061252221464,-0.196280696991086,0.10410597890168428
1780625765661944000,5.685944091796875,-0.06330474356636405,-0.4184714957863092,0.28000023288093506
1780625765671939000,5.69593896484375,-0.741925451272726,-0.338269247302413,0.3277307925553992
1780625765681934000,5.70593408203125,-1.2564555208444594,-0.0002589431971311569,0.16394037947636098
1780625765691929000,5.71592919921875,-1.4582359842956065,0.5191355175405741,0.12031455170698463
1780625765701924000,5.725924072265625,-1.5902010071121155,0.8965402589231729,0.30017522509917616
1780625765711920000,5.735920166015625,-1.7235374644123016,1.0264309596836567,0.5352416163520887
1780625765721915000,5.745914794921875,-1.7138791169680654,0.930587489953637,0.697730993302539
1780625765731910100,5.75591015625,-1.5177544873215256,0.6026327159166336,0.7276881054751575
1780625765741905200,5.7659052734375,-1.2483704140663145,0.1010223336726427,0.7408377291012554
1780625765751900200,5.775900146484375,-0.9424902553237974,-0.3922673794716596,0.9382945571996271
1780625765761896200,5.785896240234375,-0.41009588162899013,-0.6377712493151426,1.216490809398517
1780625765771891200,5.79589111328125,-0.12697554396614433,-0.6618155572474003,1.3587395450159907
1780625765781886200,5.80588623046875,-0.39851314199343324,-0.4554243851304054,1.3488792452588676
1780625765791881000,5.815880859375,-0.4550796633459627,-0.12575228578150272,1.14621410792768
1780625765801876000,5.8258759765625,-0.5495253951072693,0.23035364698469638,0.6543577885873615
1780625765811871000,5.83587109375,-1.073163484764099,0.4068301578313112,0.1328345356600359
1780625765821867300,5.8458671875,-1.7299638441979883,-0.0016220482438802717,-0.2224457599369809
1780625765831862300,5.8558623046875,-2.2402022079251704,-0.5574959355950355,-0.14368717092275618
1780625765841857300,5.865857177734375,-2.3737306806661187,-1.01730481941998,0.05157623878456652
1780625765851852300,5.875852294921875,-2.0358103929318485,-1.2932500047564506,0.3726388786876574
1780625765861847000,5.885846923828125,-1.314589583774656,-1.070050905701518,0.7383372175224125
1780625765871843000,5.895843017578125,-0.30263752355948087,-0.6388426779389381,0.9201144651256501
1780625765881838000,5.905838134765625,1.1022715058267116,-0.09960837522149085,0.8558752902533858
1780625765891833000,5.9158330078125,2.2197287442170084,0.42879590592384337,0.41782910622954367
1780625765901828000,5.925828125,2.6214085335478186,0.8186129696339368,-0.2248592142868787
1780625765911823000,5.935822998046875,1.9223231299616395,0.944297450876236,-0.7777380845405161
1780625765921819100,5.945819091796875,0.6090390758275985,0.7505494872331618,-1.309016021426022
1780625765931814100,5.955814208984375,-0.34662864097729323,0.5892483336865901,-1.5899508317433297
1780625765941809200,5.96580908203125,-0.7423254103757441,0.4807067104250192,-1.5540341535791753
1780625765951804200,5.97580419921875,-0.7007916229821741,0.4071101438164711,-1.2545339051321147
1780625765961799200,5.985799072265625,-0.5560825616657734,0.27935937769412994,-0.5132147126568481
1780625765971794200,5.995794189453125,-0.016706950781494378,-0.004639934760332107,0.27593539459481836
1780625765981790000,6.0057900390625,0.4306207832634449,-0.5264899719566106,0.6769361886855214
1780625765991785000,6.015784912109375,0.9309117534719407,-1.1154033746004104,0.6688910485915839
1780625766001780000,6.025780029296875,1.2843280087627469,-1.419644680094719,0.46500816950108853
1780625766011775000,6.03577490234375,1.3929929661430418,-1.4994886166602373,0.12475954841710626
1780625766021770000,6.04577001953125,1.2207635913468897,-1.4142571418374776,-0.07117470975648611
1780625766031766300,6.055766357421875,0.997762352951616,-0.7974222975671291,0.04569127239920199
1780625766041761300,6.06576123046875,1.05853991612792,0.1262152271181345,0.14751082086414097
1780625766051756000,6.075756103515625,1.3661165035247802,1.0144500145107507,0.03137063223235309
1780625766061751000,6.0857509765625,1.3957995479963718,1.640824840542674,-0.20992928311526773
1780625766071746000,6.09574609375,0.7574890772379934,1.7896861992329358,-0.44705688121430576
1780625766081742000,6.1057421875,0.15675605746284127,1.394084706902504,-0.6518399605475366
1780625766091737000,6.115737060546875,0.28288872086405753,0.5376753828376531,-0.7456574043426663
1780625766101732000,6.125732177734375,0.7423812322162091,-0.2406394786775112,-0.6179522309277207
1780625766111727400,6.135727294921875,0.7562227105639875,-0.9123638509988784,-0.399626948454231
1780625766121722000,6.14572216796875,0.307701675081253,-0.8923042287886143,0.3899103314841166
1780625766131717000,6.155717041015625,-0.012998743913322687,-0.321180165335536,1.235317601878196
1780625766141713200,6.165713134765625,-0.48700011148080224,-0.10291852268278598,1.4909873302966354
1780625766151708200,6.175708251953125,-1.057405943661928,-0.4052800057798624,1.383066177020967
1780625766161703200,6.185703125,-1.4653952084004878,-0.7731231380909681,1.1798118416249752
1780625766171698200,6.1956982421875,-1.725815638477355,-0.9620476271003484,1.0729003037832676
1780625766181693200,6.205693115234375,-1.7950984335400164,-0.9460299737572669,1.0509468306504188
1780625766191689000,6.21568896484375,-1.2885793825969099,-0.7292237906098366,0.9295055399358272
1780625766201684200,6.225684326171875,-0.5285165093481541,-0.4337199183225631,0.7035425291255116
1780625766211679200,6.23567919921875,0.1275108198866248,-0.2140618528753519,0.32288397357873616
1780625766221674200,6.24567431640625,0.7097941368661821,-0.05632219120264053,-0.21340225645545868
1780625766231669200,6.255669189453125,1.141372513115406,0.03981996921300888,-0.6061694386754185
1780625766241665000,6.2656650390625,1.5569089783631265,0.06186521228253841,-0.8304999529130757
1780625766251660000,6.275659912109375,1.69903430679664,0.06494681168496608,-0.8154620313223451
1780625766261655000,6.285655029296875,1.4431421677991747,0.0088099139213562,-0.6602787030689418
1780625766271650000,6.295650146484375,0.8539151691615581,-0.03747369834780693,-0.38121966002825647
1780625766281645000,6.30564501953125,0.0910391381882131,0.1036842463582754,0.054429874650016426
1780625766291640000,6.31564013671875,-0.550172022447735,0.2996820347547531,0.5244251118486747
1780625766301636000,6.325635986328125,-0.6629515755400062,0.3328507293850183,0.5472248265473172
1780625766311631000,6.335631103515625,-0.6596820523500442,0.14618424843549727,0.06240604116097092
1780625766321626000,6.345626220703125,-1.0153726823136209,-0.2014396871894598,-0.3553773262307048
1780625766331621000,6.35562109375,-0.6838523247495293,-0.647770665282011,-0.4381122349973768
1780625766341616000,6.3656162109375,0.533300236493349,-1.0482745427012443,-0.5864312669718638
1780625766351612200,6.375612060546875,1.4786495345100759,-1.2299088747024536,-0.921195392230153
1780625766361607200,6.385607177734375,1.735485237967968,-0.9086129740327596,-1.1832441541612149
1780625766371602200,6.395602294921875,1.5386758409276604,-0.13248188629746435,-1.1615738818839192
1780625766381597000,6.405596923828125,1.2369216760739683,0.7273948216170072,-1.1578174519598483
1780625766391592000,6.415592041015625,0.4936179221853614,1.2985136243730784,-1.3407732418231666
1780625766401588200,6.425588134765625,-0.8400774902060627,1.451871709960699,-1.4760307303138076
1780625766411583200,6.435583251953125,-1.77706198772043,1.275063775202632,-1.40035838034451
1780625766421578200,6.445578125,-1.4666355638504027,0.8102022841632366,-0.9782464822292327
1780625766431573200,6.4555732421875,-0.7033177804589271,0.25486791051626206,-0.2915100899433717
1780625766441568300,6.465568359375,-0.5084525032237172,-0.23215163631737232,0.2540037314349785
1780625766451563000,6.47556298828125,-0.46658992226719853,-0.599808306145668,0.5782413481123745
1780625766461559000,6.48555908203125,-0.000789104551076889,-0.5839467201471329,0.7643214805413037
1780625766471554000,6.495553955078125,0.4216273294687271,-0.018896423649787903,0.5655973359208554
1780625766481549000,6.505549072265625,0.33391543600708246,0.6560673689842224,0.06743913995735347
1780625766491544000,6.5155439453125,0.1282297818109393,0.9410194521188735,-0.2873549795579165
1780625766501539300,6.525539306640625,-0.04943389299362898,0.8934791177868843,-0.3035633331675082
1780625766511535000,6.53553515625,-0.1550362479329109,0.5647188725858926,-0.09650383333489299
1780625766521530000,6.545530029296875,-0.15758037945777176,0.10495499694645405,0.01067329664044082
1780625766531525000,6.555525146484375,-0.3287815802499652,-0.21994681926071644,-0.10946480252109467
1780625766541520100,6.56552001953125,-0.8333589956060051,-0.31988018865287304,-0.46978996041752397
1780625766551515100,6.57551513671875,-1.3598621193051337,-0.1811620383143425,-0.8135120662983506
1780625766561511000,6.585510986328125,-1.5310884545385837,0.12544658083319662,-1.0255589991547167
1780625766571506000,6.595505859375,-1.4485694535449147,0.4019879784971475,-0.9510893760386854
1780625766581501000,6.6055009765625,-1.4998989510267973,0.52111996935606,-0.5524064304362982
1780625766591496200,6.61549609375,-1.2992989295318722,0.5648533126205205,0.12352540351226925
1780625766601491200,6.6254912109375,-0.8036182295978069,0.6518178948462009,0.6325956733081489
1780625766611486200,6.635486328125,-0.32752661175280806,0.711794516903162,0.8078893310457468
1780625766621482200,6.645482177734375,-0.29729338605254885,0.6275134746730328,0.8489495826434343
1780625766631477000,6.65547705078125,-0.5320812160924077,0.3176642661690712,0.828308361152932
1780625766641472000,6.665471923828125,-0.71506199426651,-0.14031798675060272,0.7865595427691936
1780625766651467000,6.675467041015625,-0.7897101157546043,-0.5299351439744234,0.7511015681579709
1780625766661462000,6.6854619140625,-0.6115294313386083,-0.6997644718915224,0.7201229309178888
1780625766671458000,6.6954580078125,-0.2997442863360047,-0.533141831061244,0.7113065141905098
1780625766681453300,6.705453369140625,-0.052850131177902215,-0.1642033047288656,0.6069678955767304
1780625766691448300,6.7154482421875,0.08752601550072431,0.21745850957632062,0.3040537470329553
1780625766701443000,6.725443115234375,0.05889847143143415,0.4923381115078926,-0.23943054127916694
1780625766711438000,6.73543798828125,-0.18317746978998184,0.5963005902856588,-0.8374570055093615
1780625766721434000,6.74543408203125,-0.5545546214461327,0.538774283990264,-1.2444226993538439
1780625766731429000,6.75542919921875,-1.024017176540196,0.3350941243976354,-1.4396563715100288
1780625766741424000,6.765424072265625,-1.2573790654301642,0.07092939322590827,-1.4074617826089262
1780625766751419100,6.775419189453125,-1.1227394165769218,-0.14683482129871844,-1.2116088095106183
1780625766761414100,6.7854140625,-0.9049886460557579,-0.23310732960700986,-0.9230271377019583
1780625766771410200,6.79541015625,-0.7266004563689231,-0.13544190514683724,-0.6867573254760354
1780625766781405200,6.8054052734375,-0.6567477524638176,0.0899859758734703,-0.545634671279043
1780625766791400200,6.815400146484375,-0.5337529486969113,0.3381406524866819,-0.4172388121861964
1780625766801395200,6.825395263671875,-0.31942616127505896,0.46507601057291026,-0.31272432554885743
1780625766811390200,6.83539013671875,-0.1932522890806198,0.3779220432549715,-0.21928360611163078
1780625766821385200,6.84538525390625,-0.2022632785320282,0.13088204988539218,-0.17478220108412204
1780625766831381000,6.855381103515625,-0.23766017060577868,-0.14101415232121944,-0.15954561511613427
1780625766841376000,6.8653759765625,-0.2920022939071059,-0.3628852176427841,-0.0902607742268592
1780625766851371000,6.87537109375,-0.21267624373584984,-0.4220610447108745,0.014540055071189998
1780625766861366000,6.885365966796875,-0.09749649763405323,-0.3715519237011671,0.20523528008013964
1780625766871361000,6.895361083984375,0.02556640293300152,-0.2936298951089382,0.4202013883188367
1780625766881357300,6.905357421875,-0.006967500925064087,-0.36532325844466684,0.5433966100286692
1780625766891352000,6.91535205078125,-0.049077626901865005,-0.46791795600056646,0.6129591718807816
1780625766901347000,6.92534716796875,0.1319359428524971,-0.49133156481385226,0.690142803195864
1780625766911342000,6.935342041015625,0.3827612999796867,-0.3987888901948929,0.7000370782878249
1780625766921337000,6.945337158203125,0.513467701037228,-0.15967793625891208,0.5172616134274751
1780625766931333000,6.9553330078125,0.539324319088459,0.17343816606402396,0.30707053757086394
1780625766941328100,6.965328125,0.4915992758393287,0.4651309556305408,0.029688889690488576
1780625766951323100,6.9753232421875,0.3305333923533559,0.5064011236518621,-0.24552162469588218
1780625766961318100,6.985318115234375,0.06011106209158897,0.274519536447525,-0.4677070166636258
1780625766971313000,6.99531298828125,-0.17647212693244219,-0.13416004864275455,-0.6242393483731895
1780625766981308200,7.00530810546875,-0.17396978872269392,-0.553899372407794,-0.6797352448195219
1780625766991304200,7.01530419921875,-0.09088847767114638,-0.8647948750942945,-0.7441524796724319
1780625767001299200,7.02529931640625,-0.2203928094625473,-0.9047522069513797,-0.6868714533749968
1780625767011294200,7.035294189453125,-0.34043343959897754,-0.6235124223381281,-0.3595623568303883
1780625767021289200,7.045289306640625,-0.25459464653283354,-0.1720855824112892,0.08388488251939416
1780625767031284000,7.055283935546875,0.19235154084861278,0.24912381390631197,0.4133732958644628
1780625767041280000,7.065280029296875,0.7657996633350849,0.48084115045964715,0.4462896962340921
1780625767051275000,7.07527490234375,0.8815820515051483,0.47987025960087776,0.30160715759843587
1780625767061270300,7.085270263671875,0.36638270436972376,0.23475685037970542,0.18743176623359323
1780625767071265300,7.095265380859375,-0.4062149485424161,-0.26430384738147256,0.07263553955666721
1780625767081260300,7.10526025390625,-0.6712368810653686,-0.785602095913887,-0.11629457547590136
1780625767091256000,7.115256103515625,-0.4996937349677086,-1.1289075838178395,-0.36598895581178365
1780625767101251000,7.1252509765625,-0.47982525141537186,-1.1486182464599608,-0.3911645327962935
1780625767111246000,7.13524609375,-0.5854676461040973,-0.8292647120296954,-0.06952376421168446
1780625767121241000,7.145240966796875,-0.5423582799568772,-0.17916297345161436,0.4569555402204394
1780625767131236000,7.155236083984375,-0.19027999527156353,0.5848445457696915,0.9132171068273485
1780625767141231000,7.165231201171875,0.2465963412553072,1.1358873597025871,1.1374955255515873
1780625767151227100,7.17522705078125,0.39794133345484733,1.2903840939313171,1.069267646369338
1780625767161222100,7.18522216796875,0.20464520523250102,1.0091437247961759,0.794328788531199
1780625767171217200,7.195217041015625,-0.37719898967742915,0.42887481637895103,0.5637309575270861
1780625767181212200,7.205212158203125,-0.6721902362674474,-0.1772533404380083,0.60440871261321
1780625767191207200,7.215207275390625,-0.3703165366873145,-0.562696426847577,0.8606730459239333
1780625767201203200,7.225203125,0.07433043384104966,-0.6940460942447185,1.0650785971816628
1780625767211198200,7.2351982421875,0.42126024972200393,-0.6241723475515842,1.107446351181343
1780625767221193000,7.24519287109375,0.4281672526314854,-0.3910550810724497,1.0400476893648505
1780625767231188000,7.25518798828125,0.011315174740552901,-0.090417353028059,1.0013487600710242
1780625767241183000,7.265182861328125,-0.31303777541220185,0.08065466842651367,0.9837523131038993
1780625767251179300,7.27517919921875,-0.30376258206665513,0.053225394231081004,0.8806555112447589
1780625767261174300,7.28517431640625,0.020266542959213256,-0.08150105612277984,0.6301284064117819
1780625767271169300,7.295169189453125,0.5035357973486185,-0.25708500204384327,0.2619499046664685
1780625767281164300,7.305164306640625,0.8115262262433767,-0.3496516420602798,-0.11444807082638143
1780625767291159000,7.315158935546875,0.9055681995093822,-0.3818564600944519,-0.43199777070507406
1780625767301155000,7.325155029296875,0.9186921772375702,-0.35584348243772984,-0.5954242458425462
1780625767311150000,7.335150146484375,0.8380185118496417,-0.26998189301788805,-0.663152212678641
1780625767321145000,7.34514501953125,0.8589169229716062,-0.14359364742040634,-0.6607441286236048
1780625767331140000,7.35514013671875,1.1262462556540966,0.0059440030962228775,-0.5578587775580585
1780625767341135000,7.365135009765625,1.5637801793068646,0.15067279202640055,-0.3278000949319452
1780625767351130000,7.375130126953125,2.076864726245403,0.24425357752144336,0.03427855556830764
1780625767361126100,7.385126220703125,2.6019457081869244,0.18674656044840812,0.3982310371164232
1780625767371121200,7.39512109375,2.972664980456233,-0.031443186011910436,0.7015706445306539
1780625767381116200,7.4051162109375,2.800082262177765,-0.3110077308893204,1.0574052860748022
1780625767391111200,7.415111083984375,2.2158353900402785,-0.6933528512835502,1.3194836394265292
1780625767401106200,7.425106201171875,1.8296411930024623,-0.9841215117424726,1.3996899795636535
1780625767411102000,7.43510205078125,1.5223942759513853,-0.8867857576280832,0.9683521340720355
1780625767421097000,7.445096923828125,1.3833321344807743,-0.6756330701977015,-0.49607729803621764
1780625767431092000,7.455092041015625,1.50896693136245,-1.0126929417103527,-2.5605054442957043
1780625767441087000,7.4650869140625,0.7842156099915504,-1.3584873238205908,-3.8081229941681025
1780625767451082200,7.475082275390625,-1.1253273872435092,-1.3831395345181225,-4.1233167785704135
1780625767461078300,7.485078369140625,-2.835522701132297,-1.261555474331975,-3.5776904367282985
1780625767471073000,7.495072998046875,-2.6259040914013982,-1.0572118823945522,-2.098237769141793
1780625767481068000,7.505068115234375,-1.038685461100936,-0.957984615445137,-0.23056904330104588
1780625767491063000,7.51506298828125,0.04384206433594227,-1.0583464393824338,1.4850228689342737
1780625767501058000,7.52505810546875,0.303244403411448,-1.3825292936652898,2.6893296848684547
1780625767511054000,7.53505419921875,-0.5025792272761463,-2.0149223570734263,3.086299835203588
1780625767521049300,7.54504931640625,-1.7788000635594128,-2.6582050632864234,2.9571745658576485
1780625767531044400,7.55504443359375,-2.9314082564383743,-2.985101852703094,2.7875667717367407
1780625767541039000,7.5650390625,-3.716354226531088,-2.816153399273753,2.96921980843842
1780625767551034000,7.5750341796875,-3.6425124529898163,-2.212976493477821,3.527373331159353
1780625767561030100,7.585030029296875,-2.9453923581272363,-1.2851520384967325,3.97834687436074
1780625767571025200,7.595025146484375,-1.6953841137260197,-0.2981751373231411,3.931421749317646
1780625767581020400,7.6050205078125,0.07797025164812803,0.48954058974385256,2.6970938891291616
1780625767591015400,7.615015380859375,2.7267098597139117,1.2022194882661104,0.3940896995279938
1780625767601010400,7.625010498046875,6.261274563682079,2.7022709995061156,-1.2972723921403289
1780625767611005200,7.635005126953125,9.044485478296876,5.4680497178047895,-1.5926437240891158
1780625767621001200,7.645001220703125,8.857092436638474,8.372936462542414,-1.5141424343042076
1780625767630996200,7.654996337890625,4.916433487898111,9.340960241442918,-1.8527143178150056
1780625767640991200,7.6649912109375,-0.735377344803512,6.536811752739548,-2.0886060174435377
1780625767650986200,7.674986328125,-3.371643255743384,1.5144436092078686,-1.5632242989897727
1780625767660981200,7.684981201171875,-3.001681816104054,-2.5367110194712876,-0.4328590637095272
1780625767670977300,7.694977294921875,-2.094769216248393,-4.964280111700296,0.39833062503337857
1780625767680972300,7.70497216796875,-2.050511264587939,-6.007422552210092,0.42793037513568993
1780625767690967300,7.71496728515625,-2.2874214936092496,-5.643935861542821,0.6035750382680446
1780625767700962300,7.72496240234375,-2.023732855516672,-3.9740035844594237,0.7055259580276906
1780625767710957300,7.734957275390625,-2.0904382013067604,-1.3658663281559944,-0.33106581872962415
1780625767720953300,7.744953369140625,-2.0679563203856346,0.7632166611045599,-1.6719319264680146
1780625767730948000,7.754947998046875,-1.5455965801015494,2.0336194587588308,-2.168902227821201
1780625767740943000,7.764943115234375,-1.005439609581232,2.7955735525816676,-2.1149594791010022
1780625767750938000,7.774938232421875,-0.18433248504400251,3.095043405890465,-1.5511830019317567
1780625767760933000,7.78493310546875,1.1755930548861622,2.937529954189062,-0.4434468740236014
1780625767770929400,7.794929443359375,2.374149052208662,2.107291428691149,1.0837202423527836
1780625767780924400,7.80492431640625,2.33549111251235,0.5811743328243494,2.280486433649063
1780625767790919400,7.81491943359375,0.853975082655251,-0.7697101147770882,2.8482769687652585
1780625767800914200,7.8249140625,-0.9667454295277595,-1.4493588503569363,3.1619074493736026
1780625767810909200,7.8349091796875,-1.9413643689095972,-1.7063684490770101,3.055004825490713
1780625767820904200,7.844904296875,-1.9282991356313228,-1.676052805790305,2.3635119228601456
1780625767830900200,7.854900146484375,-1.5257295578539372,-1.4139806629836558,1.4330156183212994
1780625767840895200,7.864895263671875,-1.244332244591415,-0.9501759875208139,0.2820244321849197
1780625767850890200,7.87489013671875,-1.3956313518226147,-0.33408348605036736,-0.8442140054889022
1780625767860885200,7.88488525390625,-1.5401391914784908,0.09742401691973208,-1.3795419484175742
1780625767870880000,7.8948798828125,-1.5145254422724246,0.3287444631099701,-1.456632202360779
1780625767880876300,7.904876220703125,-1.207902502338588,0.44279578970372674,-1.217246011679992
1780625767890871300,7.914871337890625,-0.5878884435102343,0.3829489315062761,-0.817440564853698
1780625767900866300,7.9248662109375,0.07886836953163147,0.23917466682195662,-0.4759126810815185
1780625767910861300,7.934861328125,0.009670622403919697,0.20620470963418483,-0.24873532604537904
1780625767920856300,7.944856201171875,-0.6181799752689897,0.31234687053859234,0.06193458772432059
1780625767930852000,7.95485205078125,-1.414728997132927,0.5120984585106373,0.5825815692737698
1780625767940847000,7.96484716796875,-2.2970994225367902,0.6515998681813479,1.3625138028576969
1780625767950842000,7.974842041015625,-2.8379414527118203,0.5391197364270687,2.0427122812747953
1780625767960837000,7.984837158203125,-2.5591829635202883,-0.09268237535059451,2.356185671625286
1780625767970832400,7.994832275390625,-0.6731912300035358,-0.7397001764386892,2.697165785321593
1780625767980828200,8.004828125,1.9254630354225635,-1.0289490799844265,2.845648373827338
1780625767990823200,8.0148232421875,3.0023803197622296,-0.8662591024279593,1.8676970751523971
1780625768000818200,8.024818115234375,1.3622390775695443,-0.12542962969839572,-0.44699499495923517
1780625768010813200,8.034813232421875,-0.8371360299266875,0.6084142219275236,-2.118440306954086
1780625768020808200,8.04480810546875,-2.1910662749648093,0.967406523784995,-2.860460158511996
1780625768030804200,8.05480419921875,-2.257761830013245,0.875970933625102,-2.933291001445055
1780625768040799200,8.06479931640625,-1.44683430031538,0.32720190984308717,-2.713357918448746
1780625768050794200,8.074794189453126,-0.12354220851659774,-0.3296189078569412,-2.4437005812101065
1780625768060789200,8.084789306640625,1.3053110294282435,-0.7228361353993416,-2.104539207373559
1780625768070784300,8.0947841796875,2.394002484322339,-0.7284072135299444,-1.5976533689446746
1780625768080780300,8.1047802734375,2.978481557780504,-0.4077233072787523,-0.905610431215912
1780625768090775300,8.114775390625,2.9299440291047096,-0.10691372979879378,-0.2933206099640578
1780625768100770300,8.124770263671875,2.531387778621912,-0.026131635600328443,-0.11413305006045847
1780625768110765300,8.134765380859376,2.347168544694036,-0.168508892968297,-0.39429680294003333
1780625768120760300,8.14476025390625,1.7948437281265854,-0.268210207170248,-0.6319400589436293
1780625768130755000,8.154755126953125,0.7890003600500524,-0.27894962784945965,-0.5918204126643016
1780625768140751400,8.16475146484375,-0.22085779662579297,-0.26293665068149563,-0.45294838693831113
1780625768150746400,8.174746337890625,-0.9071241967797279,-0.2310924826532602,-0.43967349296472963
1780625768160741400,8.184741455078125,-1.0463172711536288,-0.1930781015574932,-0.6682971012864262
1780625768170736400,8.194736328125,-1.2465677485585211,-0.20138065047860143,-0.8656855403237045
1780625768180731400,8.2047314453125,-1.6231300477676092,-0.20608254455924033,-0.6316040319222956
1780625768190727200,8.21472705078125,-1.5180992091059684,-0.2844932334512472,-0.14849175819288937
1780625768200722200,8.22472216796875,-0.27886019600033757,-0.41029461907148357,0.3031409247706644
1780625768210717200,8.23471728515625,1.4021163299277424,-0.4180623304635286,0.6168373284883797
1780625768220712200,8.244712158203125,2.0149239645086228,-0.1837187370598316,0.8888657057072967
1780625768230707200,8.254707275390626,1.465517665736377,0.15834464182853697,1.2586905864201485
1780625768240703200,8.264703125,0.6928546925030649,0.30699148098528384,1.4715148603245616
1780625768250698200,8.2746982421875,-0.06693024058714508,0.24273732773959636,1.5607352586530148
1780625768260693200,8.284693359375,-0.7958700996890664,0.24568857876062392,1.9203480304963885
1780625768270688300,8.294688232421874,-1.7747046109393239,0.26980419836342334,2.361982229074836
1780625768280683300,8.304683349609375,-2.4882877648249266,0.010146130961179733,2.5121082008734343
1780625768290679300,8.31467919921875,-1.81867000939399,-0.29944004269242286,2.12793864153102
1780625768300674300,8.32467431640625,-0.2223831064969301,-0.23826748884916304,1.2880201412789523
1780625768310669000,8.3346689453125,0.5163277666434646,0.09138707484304905,0.2862639694508165
1780625768320664000,8.3446640625,-0.44301498541235923,0.40057986526489253,-0.6018268063612282
1780625768330659000,8.3546591796875,-1.8148779236346482,0.64143152538836,-0.9105382430069148
1780625768340655400,8.3646552734375,-2.0361846330717204,0.5565712219655513,-0.6058457962116226
1780625768350650400,8.374650390625,-1.2546429184645413,0.254552853217721,0.0036829902285244313
1780625768360645400,8.384645263671874,0.36052959442734717,-0.08421791386604309,0.5662854643154889
1780625768370640400,8.394640380859375,1.5422271036684512,-0.3886404211461544,1.005045861023292
1780625768380635100,8.40463525390625,1.7588251970231532,-0.5053302795499562,1.0016692241970448
1780625768390630100,8.414630126953124,1.5545520399734376,-0.29777123269736766,0.5222583988014609
1780625768400626200,8.424626220703125,0.9269847892865538,0.09090601332783699,-0.18045540614863856
1780625768410621200,8.43462109375,0.37065468260049816,0.43596915855407714,-0.8633772633813321
1780625768420616200,8.4446162109375,-0.21945669765621423,0.603555091458559,-1.315279319604486
1780625768430611200,8.454611083984375,-0.388838866327703,0.4634761741608381,-1.591297424046695
1780625768440606500,8.4646064453125,-0.42238837696909903,0.08830489091873168,-1.8476155333712696
1780625768450602200,8.474602294921874,-0.5647863848641514,-0.33108079710304733,-1.9829453564457593
1780625768460597200,8.48459716796875,-0.3628177053645253,-0.6741279263317584,-1.9271286305472253
1780625768470592300,8.49459228515625,0.26596418180912734,-0.739799545159936,-1.6233901600085199
1780625768480587300,8.504587158203124,0.6204593183778226,-0.44915947951674456,-0.9860300487775355
1780625768490582300,8.514582275390625,1.007868005771935,-0.04312894763052463,-0.5830121427107602
1780625768500578000,8.524578125,1.2698738053441048,0.2724392230421305,-0.5375995411224663
1780625768510573000,8.534572998046874,1.0541956033132969,0.37596623301208015,-0.38856275280006225
1780625768520568300,8.544568359375,0.9001137334957718,0.18396014460027216,-0.09575243044570088
1780625768530563300,8.554563232421875,1.2004758594691753,-0.23130349505543707,-0.028661199743719768
1780625768540558300,8.564558349609374,1.3203975394010543,-0.5099129311650991,-0.33310565399415787
1780625768550554400,8.574554443359375,0.9178438898451626,-0.5097562792986631,-0.747083126296848
1780625768560549400,8.58454931640625,0.37451983359605073,-0.4196621668756008,-1.0669245903745292
1780625768570544000,8.594544189453124,-0.08250234211981296,-0.2403963175714016,-1.0689080192767082
1780625768580539100,8.6045390625,-0.3196399501562118,-0.05776069957315921,-0.8428043578866868
1780625768590534100,8.6145341796875,-0.33030046038031574,0.017688801425695417,-0.4333333666903898
1780625768600530400,8.624530517578124,0.006838029326498508,0.10512041664123535,-0.0002750129825202748
1780625768610525400,8.634525390625,0.4653685637786984,0.23259762651920318,0.21780925924275069
1780625768620520400,8.6445205078125,0.5540732676699758,0.18848960472345352,0.15540573883242903
1780625768630515500,8.654515380859374,0.23931962825059888,0.020296938097476958,-0.08041887777610682
1780625768640510200,8.66451025390625,-0.35232656035795806,0.019254735568165777,-0.16054613392818717
1780625768650505200,8.674505126953125,-0.8520809394717216,0.11616554226875304,-0.05192925347331911
1780625768660501200,8.684501220703124,-0.9333063935235142,0.18446224890351295,0.1712758551972918
1780625768670496300,8.694496337890625,-0.8021487415671348,0.1153437044918537,0.3931291839327663
1780625768680491300,8.7044912109375,-0.7238178399130701,-0.14011574217677117,0.38090792719796296
1780625768690486300,8.714486328125,-0.5786617654815316,-0.44486090553998947,0.3245429197669029
1780625768700481300,8.724481201171875,-0.2336206859566271,-0.5959264962762594,0.33579237232748416
1780625768710477300,8.734477294921875,0.31154695233255625,-0.4658417342483997,0.4045381013713777
1780625768720472300,8.744472412109374,0.8625015034601092,-0.005309796845912933,0.5054461610145866
1780625768730467300,8.75446728515625,1.246270665308088,0.5378758738458156,0.6225010533384978
1780625768740462300,8.76446240234375,1.2966541141115129,0.9463391858369111,0.7586945805702358
1780625768750457300,8.774457275390626,0.9079311292484402,1.031712114956975,0.7020354855634272
1780625768760453000,8.784453125,0.5598863378629088,0.6088859310925007,0.49433220793455834
1780625768770448100,8.7944482421875,0.526119969600439,-0.047124154746532435,0.2862615948306396
1780625768780443100,8.804443115234376,0.5183281466804445,-0.5429214667975902,0.1274725245696958
1780625768790438100,8.814438232421875,0.15712737499326468,-0.6327841085523367,-0.061276781402714545
1780625768800433400,8.824433349609375,-0.5879740759670734,-0.34878888775110245,-0.38091830246150493
1780625768810429400,8.834429443359374,-1.4004688549816608,0.02060615017712116,-0.8962631955474615
1780625768820424200,8.844424072265625,-1.80074257690683,0.16675065112411974,-1.4719900766208767
1780625768830419200,8.854419189453125,-1.6432877235248684,0.03716916244328022,-2.0869627802811563
1780625768840414200,8.864414306640626,-1.0252737524725497,-0.1932166332453489,-2.384794949385524
1780625768850409200,8.8744091796875,0.014753332495689392,-0.4239320992797613,-2.2200952394418416
1780625768860405200,8.8844052734375,0.9248901550948619,-0.511336241966486,-1.7338415624141692
1780625768870400300,8.894400146484376,1.3082992514587939,-0.42780572584271426,-1.054496778216958
1780625768880395300,8.904395263671875,1.2635504475414752,-0.19969021317362784,-0.3035606297537684
1780625768890390300,8.914390380859375,1.1227880780242383,0.10246844082772731,0.33305735787302254
1780625768900385300,8.92438525390625,1.0218250733233987,0.30874738474190233,0.6723123282771557
1780625768910381300,8.93438134765625,0.9899556247234343,0.3766664902359247,0.7411234141748398
1780625768920376300,8.944376220703125,0.9520026184260845,0.24092355631589887,0.5140608446247875
1780625768930371300,8.954371337890626,0.5662028275333345,0.009582651859521864,0.1182007013581693
1780625768940366300,8.964366455078125,0.3036180590294301,-0.14674422040581703,-0.2530105191465467
1780625768950361300,8.974361328125,0.4604654480375349,-0.23825521388947962,-0.4187238631121814
1780625768960357000,8.984357177734376,0.480346206549555,-0.3143687317550182,-0.49190191204771394
1780625768970352000,8.99435205078125,0.1436029997706413,-0.3041384296417236,-0.4938983465619385
1780625768980347400,9.004347412109375,-0.028020810347795484,-0.22767536768615246,-0.2961901009857654
1780625768990342400,9.01434228515625,-0.14498378660455347,-0.04835983402132988,0.07873772888928651
1780625769000337400,9.02433740234375,0.09507730766311287,0.1518593714624643,0.571687834815681
1780625769010333200,9.034333251953125,0.2395243570424616,0.2710433847695589,0.8433815001875161
1780625769020328200,9.044328125,-0.11877967028990387,0.20280980649888514,0.9884003581054508
1780625769030323200,9.0543232421875,-0.0773496355317533,0.0039034371793270108,1.1434857058770953
1780625769040318200,9.064318115234375,0.2857388495981693,-0.10315759213566779,1.2912329658456145
1780625769050313200,9.074313232421876,0.10172200637459754,-0.1539864466190338,1.2996991808958351
1780625769060309200,9.084309326171875,-0.17312822333201766,-0.2458639353275299,0.9975950335606932
1780625769070304500,9.094304443359375,-0.5905002334438264,-0.26884616698622704,0.4008893696054816
1780625769080299300,9.10429931640625,-1.066195983839035,-0.21122575266659258,-0.22634295003861188
1780625769090294300,9.114294189453124,-1.3018237718343735,-0.07377484578490257,-0.6367841379739344
1780625769100289300,9.124289306640625,-1.06025607239604,0.03685644323229789,-0.6858294700413942
1780625769110285300,9.134285400390626,-0.20960136633515355,-0.020808979272842407,-0.45903731493055816
1780625769120280300,9.1442802734375,0.14553426009416578,-0.162736739307642,-0.09857157951965928
1780625769130275300,9.154275390625,-0.049019174712896345,-0.14501286656856535,0.30452070695757866
1780625769140270300,9.164270263671876,0.23024682560935616,0.10993044727146625,0.9370845968879759
1780625769150265300,9.174265380859374,0.7726970216333866,0.46014264582395553,1.7316294393226503
1780625769160260000,9.184260009765625,0.9733845752812922,0.6086749186903238,2.538433605480194
1780625769170256400,9.19425634765625,0.49878772603869437,0.5657645822465419,2.7611685941547153
1780625769180251400,9.20425146484375,-0.17068492183312772,0.3031932577461004,2.537376205381751
1780625769190246400,9.214246337890625,-0.4491105258084833,-0.023925649988651276,1.8830701469816267
1780625769200241400,9.224241455078126,-0.5331317480586469,-0.3039151422798633,0.9392235086128116
1780625769210236400,9.234236328125,-0.7280849958382547,-0.5632406167268753,0.014358487959206103
1780625769220232200,9.244232177734375,-0.7631329283438623,-0.7981406749695539,-0.5862450602173805
1780625769230227200,9.254227294921876,-0.775535606060177,-0.8482225104779004,-0.9369301369786261
1780625769240222200,9.26422216796875,-1.0061435200668871,-0.7393909643590449,-0.8390947627790272
1780625769250217200,9.27421728515625,-0.8661712780140339,-0.5889163252532482,-0.47567748408615584
1780625769260212200,9.284212158203125,0.12050620182156561,-0.22585808913111685,-0.025699673923850058
1780625769270208300,9.294208251953124,0.9981681572735309,0.15766951904594897,0.45510392100438474
1780625769280203300,9.304203369140625,0.9411832643784582,0.20794366225600242,0.7785564151860773
1780625769290198300,9.3141982421875,0.5992027414679527,0.014633505508303642,1.0870938104391097
1780625769300193300,9.324193359375,0.3855215584732592,-0.1817015520185232,1.409902599889785
1780625769310188300,9.334188232421875,0.12310966231822967,-0.3550689909338951,1.5240028801918029
1780625769320184300,9.344184326171876,0.1356651925086975,-0.5228934087693691,1.2351922219328582
1780625769330179300,9.354179443359374,0.6407729153491556,-0.8277420325070619,0.3487110002093017
1780625769340174000,9.364174072265625,0.7747500086404383,-1.0934633454710245,-0.9050723788164555
1780625769350169000,9.374169189453125,0.1396177295267582,-0.9277332695662974,-1.6859160281568764
1780625769360164400,9.384164306640624,-0.5578254598103464,-0.406942386034131,-1.7705390156924723
1780625769370160400,9.394160400390625,0.08434782385602593,-0.07622633059024811,-1.38617948673591
1780625769380155400,9.4041552734375,0.3922551045119762,-0.13813888914585112,-0.7588694256804883
1780625769390150400,9.414150390625,-0.14656068053245544,-0.4256429948508739,-0.12561843026876449
1780625769400145400,9.4241455078125,-0.234087134424597,-0.5920435173630714,0.5029980372101068
1780625769410140200,9.43414013671875,0.10084493127912282,-0.5897253035485744,1.0564574107654392
1780625769420136200,9.44413623046875,-0.022871172499656676,-0.47078971204459663,1.3005159041061998
1780625769430131200,9.454131103515625,-0.12841931303367018,-0.32658056307435035,1.1492746645420788
1780625769440126200,9.464126220703125,-0.1992930305495858,-0.28992870250344277,0.7004391562826932
1780625769450121500,9.47412158203125,-0.4717069730199873,-0.5025736743181943,0.03055120560824871
1780625769460116500,9.484116455078125,-0.2551110716223717,-0.8721844008237123,-0.49302039468362924
1780625769470111500,9.494111572265625,0.49343350552916526,-0.9743167415648698,-0.7501816768340765
1780625769480107300,9.504107177734374,1.0399052121542394,-0.6857604964584112,-0.8576831433929503
1780625769490102300,9.514102294921875,1.6267724959231913,-0.11846914303600788,-0.8744912164613604
1780625769500097300,9.52409716796875,1.7022164439640939,0.3619254326999187,-0.9845637025520205
1780625769510092300,9.53409228515625,0.6641055678807198,0.6295651465058326,-0.9785539407432079
1780625769520086800,9.544086669921874,-0.6645207245528698,0.49311143396794793,-0.6702751964263618
1780625769530082800,9.554082763671875,-0.9178653710246085,-0.18028934713304043,-0.12293182153329252
1780625769540077800,9.564077880859376,-0.2558298874162137,-0.927857188206911,0.3923037659592926
1780625769550072800,9.57407275390625,0.13284355921670793,-1.1362550239712,0.4341023417688906
1780625769560067800,9.58406787109375,0.27947628207206726,-0.7084966444015502,-0.21732743054255843
1780625769570064000,9.59406396484375,-0.11295885518193244,-0.1723392649114132,-0.9469310142502189
1780625769580059000,9.604058837890625,-0.5794682595588266,-0.024255904856324194,-1.2269047244504094
1780625769590054000,9.614053955078125,0.2249637706398964,-0.340628377649188,-1.000346085834503
1780625769600049000,9.624048828125,0.7152667230583727,-0.7513193025618791,-0.46074163463041184
1780625769610043600,9.634043701171874,0.07844882894530891,-0.8566986624002456,0.1707293454967439
1780625769620039000,9.644038818359375,0.43854923817515373,-0.4617389751046896,0.7961294812776147
1780625769630035000,9.654034912109376,1.2022118894815443,0.19121289220750332,0.7626086122088134
1780625769640030000,9.664030029296875,0.9534462413631379,0.7035340535581112,-0.20274784717857836
1780625769650025000,9.67402490234375,-0.42522316200360655,0.7613613886266947,-1.1254890075460076
1780625769660020000,9.68402001953125,-1.1170856285989283,0.28053952738940713,-1.243230566959828
1780625769670015000,9.694014892578124,-1.6807142217300832,-0.4692798920035362,-0.22194836834147572
1780625769680010800,9.7040107421875,-1.6714051261149345,-0.8985562749207019,1.1742412018857895
1780625769690005800,9.714005859375,-0.6173885326303541,-0.7514169177174568,2.0590590204417705
1780625769700000800,9.724000732421874,0.13236015961393713,-0.18450550352334974,2.0215560959994794
1780625769709996000,9.73399609375,0.04488295169100165,0.6828770499765873,0.7977638044811785
1780625769719991000,9.743990966796876,0.1577216876246035,1.2884329598635433,-0.8752890888407826
1780625769729986800,9.75398681640625,0.9776995158709585,1.431589969432354,-2.1478905655831095
1780625769739981800,9.76398193359375,0.9918355932511389,0.9243705151349305,-2.6833997102975844
1780625769749976800,9.773976806640626,1.0417664759814738,-0.10922902100384235,-2.3771017645344137
1780625769759971800,9.783971923828124,1.1463922409735618,-1.1504448773652314,-1.7049220496609807
1780625769769966800,9.793966796875,-0.023095775035768745,-1.5895844826489687,-0.820016991212964
1780625769779963000,9.803962890625,-1.5210624428257344,-1.5818547651797532,0.041796968374401326
1780625769789958000,9.8139580078125,-0.08466799572110176,-1.6855974637269973,0.41453590990304945
1780625769799953000,9.823952880859375,0.8065700651407242,-1.7760381976306436,-0.05272153636217117
1780625769809948000,9.833947998046876,-0.24966566569805143,-1.4808061280220746,-1.0527956733874977
1780625769819943000,9.84394287109375,-0.9080722912847995,-1.1684902371436356,-1.7008762814015148
1780625769829939000,9.85393896484375,-0.882532191836834,-1.1964449965178965,-1.6151283814892172
1780625769839934000,9.863933837890626,-0.5983981470867991,-1.0860586221724748,-1.4869437539942563
1780625769849929000,9.873928955078124,-0.3022926556445658,-0.7296323714107275,-1.285331340586394
1780625769859923700,9.883923828125,-0.9431110175706445,-0.06714870564341545,-0.8596469908118247
1780625769869918700,9.893918701171875,-2.02908941411376,0.7178460720270872,-0.43930356367379425
1780625769879914800,9.903914794921874,-0.8657634278655052,1.1454109748512507,-0.2467464172504842
1780625769889910000,9.913909912109375,-0.1094014549612999,1.1000544142991304,-0.3156514650419354
1780625769899905000,9.923905029296876,-1.1591463624760507,0.5408481676548719,-0.3187121677868068
1780625769909900000,9.933900146484374,-0.22239611210897564,0.007425766086578369,0.09717413381189108
1780625769919895000,9.94389501953125,-0.0983895009510219,-0.2306488305389881,0.5349734304025769
1780625769929890800,9.953890869140626,0.30840105552226305,-0.21083178491294383,1.023111313741654
1780625769939885800,9.9638857421875,0.49405339099317785,0.0822474905759096,1.3751323152817785
1780625769949880800,9.973880859375,-0.02427051790356636,0.4582084628909826,1.3689865060031414
1780625769959875800,9.983875732421875,0.7721502014055848,0.8180471524447203,1.067269312158972
1780625769969870800,9.993870849609374,1.1308965656779706,0.9291302768826484,0.5125099619209766
1780625769979865900,10.003865966796875,1.872095017850399,0.7740618802458047,0.009452011217176913
1780625769989862000,10.01386181640625,0.9788967628315091,0.591415740853548,-0.5950492750503122
1780625769999857000,10.02385693359375,-1.0793138240873812,0.22805413787066936,-1.090852797646448
1780625770009852000,10.033851806640625,-0.5310210395149886,-0.20055589009225366,-0.8838941278398036
1780625770019847000,10.043846923828125,0.42905192651152607,-0.3352653893113136,-0.41830001167692243
1780625770029842000,10.053842041015624,0.6939411725655198,-0.20009119518995283,-0.0214388016089797
1780625770039838000,10.063837890625,0.8998588819518685,0.15415128179192542,0.1318237877149135
1780625770049832700,10.073832763671875,-0.11129574427530169,0.4366583098620176,-0.16638408283405004
1780625770059827700,10.08382763671875,-1.1201486694313585,0.32054479004144665,-0.47573929727599024
1780625770069822700,10.09382275390625,-1.6724465979918837,0.05815525184869766,-0.2081763750333339
1780625770079817700,10.103817626953125,-2.4030332013875246,0.12713292648494243,0.5644048382006586
1780625770089814000,10.11381396484375,-2.3836896184921263,0.9324041839867829,1.7469161480426787
1780625770099809000,10.12380908203125,-1.8749289261020718,2.5162580140292645,3.5015310338944197
1780625770109804000,10.133803955078125,-0.7750865471184253,4.460010739380121,5.418541882792115
1780625770119798800,10.143798828125,2.3434701285675166,6.090893447101116,6.641423635336756
1780625770129793800,10.153793701171875,5.275431634974479,5.912690258592367,4.872891575552523
1780625770139789800,10.163789794921875,4.031930288249254,3.9862697763144967,0.5522747668806464
1780625770149784800,10.173784912109374,0.40072628799825905,2.605225168249011,-3.2834763119906185
1780625770159779800,10.18377978515625,-0.4337324855431914,2.1307851170033216,-5.15351439731121
1780625770169774800,10.19377490234375,2.0444655546829105,2.0891139669656753,-3.6703400788530707
1780625770179769900,10.203769775390626,3.42181919927597,2.359603224983811,-1.0839066317703574
1780625770189766000,10.213765869140625,2.0135414241090417,2.8738258360415694,0.3175986535869539
1780625770199761000,10.223760986328125,-0.022634733395278453,3.603794307538867,1.0842137249581516
1780625770209756000,10.233755859375,0.49807811646461486,4.264688658288121,2.5300685127168894
1780625770219751000,10.2437509765625,2.2703160450294613,4.566904010912776,3.579550677642226
1780625770229746000,10.253745849609375,1.7530080351769923,3.656979954281449,3.4436952232584357
1780625770239741700,10.26374169921875,-0.5162216759204864,1.7941063537627457,1.867447922696918
1780625770249736700,10.27373681640625,-1.541095177029073,0.27505846562981606,-0.2352839429937303
1780625770259731700,10.283731689453125,-1.1614543471574783,0.35874388005435465,-1.055832483800128
1780625770269726700,10.293726806640626,-0.06989566626399756,1.3688853837162256,-0.533531049574539
1780625770279722000,10.303721923828125,1.8817486891195176,1.697914508986473,0.012282120076566934
1780625770289718000,10.313718017578125,3.3672061500787733,1.423667359739542,0.11574169083349406
1780625770299713000,10.323713134765624,3.914085999113321,0.8161439491719007,-0.5842672573383897
1780625770309707800,10.333707763671875,4.207759148842096,-0.05426876580417156,-1.9436736687652765
1780625770319702800,10.343702880859375,3.6995141508892178,-0.9594237083375453,-3.2628120018854734
1780625770329697800,10.35369775390625,3.0508173106729983,-1.7950433423519134,-4.018208052366972
1780625770339693800,10.36369384765625,3.1138620881289243,-2.602778359618783,-4.366176271384954
1780625770349688800,10.373688720703125,3.5033941974177956,-3.1951322581052777,-4.231431408591568
1780625770359683800,10.383683837890626,4.037185724559426,-3.4599189205676315,-3.698900110644102
1780625770369678800,10.393678955078125,4.224696547378599,-3.2597365399628875,-3.0067858612447975
1780625770379673900,10.403673828125,3.4004774283006785,-2.678494987121224,-2.2836581955529747
1780625770389670000,10.413669921875,2.2865575702562926,-2.1015175214648245,-2.0639748495340347
1780625770399665000,10.423664794921875,1.4366206570759414,-1.4295394666433334,-2.096253025065362
1780625770409660000,10.433659912109375,0.4931707629397511,-0.6873959887057542,-1.899822836600989
1780625770419655000,10.443655029296876,-0.32084494203180075,0.09288228183686732,-1.2246890942275523
1780625770429650000,10.45364990234375,-0.15127309600710867,1.1270195781141519,-0.2688224207844585
1780625770439645700,10.463645751953125,0.16632395014464854,2.1035165863275527,0.9233413912829012
1780625770449640700,10.473640625,-0.13161036415994168,2.735370720553398,1.939663264080137
1780625770459636000,10.483635986328125,0.21154548614025115,3.0169296541184187,2.216716702919453
1780625770469631000,10.493630859375,1.3760957534864544,3.303859174805879,1.9089862401351332
1780625770479626000,10.5036259765625,1.9851222620934246,3.3592104751497507,1.0914905840933322
1780625770489621000,10.51362109375,1.4139327321887016,3.341490109542012,0.027800591725856066
1780625770499616800,10.52361669921875,1.2981722635895012,3.4274691878616808,-1.4859092963799834
1780625770509611800,10.53361181640625,1.7205092026323079,3.565768820527196,-2.9728835916429754
1780625770519607600,10.543607666015625,2.1150532948642966,3.7949592689514158,-4.492707140323519
1780625770529602600,10.5536025390625,2.390651858720183,4.038213898563384,-5.791332408377528
1780625770539597600,10.56359765625,2.0645611249893903,4.770746083068848,-6.005301906794309
1780625770549593300,10.57359326171875,1.874776804280281,6.2861120678186415,-4.718173307527602
1780625770559588400,10.58358837890625,1.8452876749455929,8.092740049502254,-1.8819798675268888
1780625770569583400,10.593583251953126,0.32440146546959875,8.242676343947648,1.1289917549699544
1780625770579578400,10.603578369140624,-3.867438814228773,6.087186409276724,2.6764444843322037
1780625770589573400,10.613573486328125,-7.4301283734411,3.549754089793563,3.7761248046219347
1780625770599569700,10.623569580078126,-8.815057129463552,0.9705822312116622,4.90808125461638
1780625770609564400,10.633564453125,-9.20121099449098,-0.8276496780484914,6.50750908588767
1780625770619559400,10.643559326171875,-8.250534071710705,-2.181847487981617,7.609449752324819
1780625770629554400,10.653554443359376,-7.648748912534117,-3.2547605051159856,7.8826739882647985
1780625770639549400,10.663549560546874,-8.144439257079362,-4.15899950184822,7.760892944201826
1780625770649545500,10.67354541015625,-8.522006495547295,-5.2160886346459385,7.703187189686298
1780625770659540500,10.68354052734375,-8.641530700594187,-6.527739388489723,7.219654315924644
1780625770669535500,10.693535400390624,-8.456917060521244,-6.958154420047998,6.5874810327470295
1780625770679530500,10.703530517578125,-8.444677172151208,-6.5430562000870705,5.935485443246364
1780625770689525500,10.713525390625,-7.934348645922541,-6.220203133103251,4.514400501215458
1780625770699521500,10.723521484375,-6.510213084149361,-4.609917807731032,2.6206121224731205
1780625770709516500,10.7335166015625,-4.293824736401438,-2.5756574207201597,1.2638321870923042
1780625770719511600,10.743511474609376,-2.7631542150139805,-1.18568716339916,1.525994346269965
1780625770729506600,10.753506591796874,-3.1241473352998494,-0.65643532551378,2.789661113667488
1780625770739501600,10.76350146484375,-3.804151460188627,-1.312992231580615,3.123649907171726
1780625770749497300,10.773497314453126,-2.961772999563813,-2.022454798404872,2.0442016430497167
1780625770759492400,10.783492431640624,-1.1714227834641933,-1.6988400993987918,1.1095043796896933
1780625770769487400,10.7934873046875,0.43321021523475645,-0.4416059953972697,0.4930401222974062
1780625770779482600,10.803482666015626,0.7679916204214096,0.7329395962625741,0.009570376899838447
1780625770789477600,10.8134775390625,0.034739304947853086,1.191874912123382,-0.4530979880094528
1780625770799473400,10.823473388671875,0.36139351778030393,1.3689745233044028,-0.5787175873219966
1780625770809468400,10.833468505859376,1.3646499381035566,1.5909505103051662,-0.2188455800205469
1780625770819463400,10.84346337890625,2.01029002109766,1.4967609452620148,-0.13825053282678126
1780625770829458400,10.85345849609375,2.244115143585205,0.9562643675237894,-0.7376134332925081
1780625770839453400,10.863453369140625,1.763495526921749,0.7960764359161258,-1.5910416957199573
1780625770849448400,10.873448486328124,1.5216367355823517,1.123107519236952,-2.3673276817560196
1780625770859444500,10.883444580078125,1.8158137431800365,2.0541458216980097,-2.420800328746438
1780625770869439500,10.893439453125,2.6429133861303327,3.539042726165056,-2.124196970784664
1780625770879434500,10.9034345703125,3.6848517115473745,4.53343837916255,-2.1971084777384995
1780625770889429500,10.913429443359375,3.35880072530508,4.772526536744833,-2.3140707233428954
1780625770899424500,10.923424560546875,2.147668447265029,3.8146266769737003,-2.21081551605165
1780625770909420500,10.933420654296874,0.9636211600273847,2.262982195010036,-1.946051649942994
1780625770919415600,10.94341552734375,0.5309679941534996,0.6353438760377467,-1.876495883157849
1780625770929410600,10.95341064453125,0.8605015618145465,0.08770984763503074,-0.9111082979798316
1780625770939405600,10.963405517578124,1.3077321190953255,0.12131737207397818,-0.25578853249251843
1780625770949400300,10.973400390625,0.5064741888880729,0.8005917213834822,0.013279752811789511
1780625770959396600,10.983396728515626,-0.5363759906768798,1.8690728935502468,0.4062912286490202
1780625770969391600,10.9933916015625,-1.5578741701334713,2.3538328248888254,0.7679173861414194
1780625770979386600,11.00338671875,-2.0388468380182982,2.1170178729355333,0.8545628194153309
1780625770989381600,11.013381591796875,-0.8605541687846183,1.342010382402688,0.37381577697992324
1780625770999376600,11.023376708984374,1.03804365606606,1.082714645506814,-0.20169453873336313
1780625771009372400,11.033372314453125,1.9559937827646732,1.3334823541626333,-0.8943956481099128
1780625771019367400,11.043367431640625,1.0206325025379657,1.7809022965356707,-1.3876660720318554
1780625771029362400,11.053362548828124,-0.40397886005342004,1.800763035172969,-1.21538701287508
1780625771039357400,11.063357421875,-1.119434237551689,1.3112262448213994,-0.1062117190092802
1780625771049352400,11.0733525390625,-0.5282546435415745,1.221917729818076,1.359773856499791
1780625771059348500,11.083348388671874,0.7605418889373541,1.4507003280937671,2.3314432984262705
1780625771069343500,11.093343505859375,1.3890531424760817,1.124439717688784,1.6731430558234452
1780625771079338500,11.10333837890625,1.202361527085304,0.41068953667320307,-0.17640870630741118
1780625771089333500,11.11333349609375,1.3057201947510242,0.3733104578062892,-1.8627946900635957
1780625771099328500,11.12332861328125,2.0315707095354796,1.267353639216721,-2.641721545997262
1780625771109323500,11.133323486328125,2.571013686567545,1.9935306094765661,-2.530345576092601
1780625771119319600,11.143319580078124,1.8208996681421994,2.1210016818746924,-1.5017992316901683
1780625771129314300,11.153314208984375,-0.2627379132390022,1.2894498818211257,0.3411404188245535
1780625771139309300,11.163309326171875,-2.4067747260034085,-0.1973784290999174,1.5382622916907072
1780625771149304300,11.17330419921875,-1.7872247775554655,-0.6831148042552173,2.6211662492245433
1780625771159299600,11.183299560546875,0.6528390545874834,0.48134866159036754,3.6037054602116343
1780625771169295600,11.193295654296875,1.8603776920497417,1.5874002704776822,2.701115984252095
1780625771179290600,11.20329052734375,0.012581249153614044,1.706987750019133,1.0266197602540255
1780625771189285600,11.21328564453125,-1.7301842089504003,1.2762424635931848,-0.4249468292802572
1780625771199280400,11.2232802734375,-0.8412509178996086,1.0603509110726415,-0.7290776601374149
1780625771209275400,11.233275390625,-0.20101357073187825,0.8059059021435677,-0.15983225003778934
1780625771219271400,11.243271484375,-0.9153647863805293,-0.07568813206031919,-0.044776130315661425
1780625771229266400,11.253266357421875,-2.7925270244926215,-1.121028813266754,0.18503858748674393
1780625771239261400,11.263261474609376,-4.700618653875589,-1.890064097522199,0.05296703555583954
1780625771249256700,11.273256591796875,-4.525304757067561,-2.1649989367723466,-0.17578385240733624
1780625771259251700,11.283251708984375,-2.373186929178238,-1.6457671192504464,0.22468261561095712
1780625771269247500,11.29324755859375,-0.3563198677778244,-0.549509028494358,1.461323428916931
1780625771279242500,11.303242431640625,-1.5111930829793214,0.6192467277176678,2.7372815226107834
1780625771289237500,11.313237548828125,-2.9225416438937186,1.0392810889065265,1.0298194330781698
1780625771299232500,11.323232421875,-1.0686299329876898,1.0905440970234572,-1.4973258856683969
1780625771309227500,11.3332275390625,0.9549199671775102,1.1180522816739975,-2.2067782233595845
1780625771319223300,11.343223388671875,1.3313684307485818,1.2654453213773666,-1.7876725213229656
1780625771329218300,11.35321826171875,0.15979776324629782,1.0068540064238012,-0.23516601570248602
1780625771339213600,11.363213623046875,-1.0902964058727025,0.307639277369529,1.4553449390292166
1780625771349208600,11.37320849609375,-0.8427227440178394,0.25158304362669587,1.8954805696129797
1780625771359203600,11.38320361328125,0.9614923313051461,0.7594421110019087,1.196966390043497
1780625771369199600,11.39319970703125,3.097351682832837,1.4419244625724852,0.26485972769856453
1780625771379194600,11.403194580078125,2.7452058858692645,1.6783678047344088,-0.19629940169155596
1780625771389189400,11.413189453125,0.4771615851640701,1.1879275627370922,-0.8563064482122659
1780625771399184400,11.423184326171874,-0.7506453488230704,0.737249495350942,-2.1412767004013062
1780625771409179400,11.433179443359375,-0.20671908889710902,0.7273217563807964,-2.5148738661944865
1780625771419174400,11.44317431640625,0.8446206865936517,1.0743606586594134,-1.6013585070729255
1780625771429170700,11.453170654296875,0.6410042398869991,1.4803686133876441,0.681070292815566
1780625771439165700,11.463165771484375,-0.23440146107077597,1.3201695758640766,1.7936498421669005
1780625771449160400,11.473160400390626,0.28937925192713737,1.1713932651087642,0.3935165027499199
1780625771459155500,11.483155517578124,0.9331412660896777,0.5704058321811258,-1.1430670420736073
1780625771469150500,11.493150390625,0.2488613635778427,-0.35263650308996436,-1.5781646784901617
1780625771479146500,11.503146484375,-0.8348626781672239,-0.9155556327775121,-1.3243284491091967
1780625771489141500,11.5131416015625,-0.7477040346741676,-0.9634719608150422,-0.9405611869573592
1780625771499136500,11.523136474609375,-0.07785714666247368,-0.42247430168688294,0.07890928606390953
1780625771509131500,11.533131591796876,-0.9770610718369483,0.3934531551901251,1.1488654992192984
1780625771519126500,11.54312646484375,-1.7687948023736475,0.8446756316512822,0.6519312920928001
1780625771529122300,11.553122314453125,-0.3945779945015907,0.8009584358040243,-0.2437017888575792
1780625771539117300,11.563117431640626,1.0062485878765584,0.6838214912198484,-0.2748901233255863
1780625771549112300,11.5731123046875,0.1296750121831894,0.2414428309496492,0.19746201573014258
1780625771559107300,11.583107421875,-0.6490566134393215,-0.35375213618166745,-0.11920447157323359
1780625771569102300,11.593102294921875,0.9190139565378427,-0.5103237404556945,-0.47974458739459513
1780625771579098400,11.603098388671874,2.426592356151342,-0.13350507359905167,-0.028999884513020515
1780625771589093400,11.61309326171875,2.376082650619745,0.636643998850882,0.5948363629519939
1780625771599088400,11.62308837890625,1.5988286963343619,1.1405306554637848,0.6588941168427467
1780625771609083400,11.63308349609375,1.3748024988055227,1.2719472506172955,0.15189268921017646
1780625771619078400,11.643078369140625,1.3773819939047098,1.1843073994785547,0.022567221117019653
1780625771629073400,11.653073486328125,1.4614789117395877,0.7638415150046348,0.4430383662879467
1780625771639069400,11.6630693359375,1.1422796910881996,-0.2656648152700625,0.8587339676201343
1780625771649064200,11.673064208984375,-0.6361579688996076,-1.4379714871630072,0.40279754131436346
1780625771659059200,11.68305908203125,0.03437456328868866,-2.3568099410034713,-0.5778402199655771
1780625771669054200,11.69305419921875,1.3813561582326888,-2.3870517884016036,-0.45040743375122544
1780625771679049200,11.70304931640625,0.5124690453886985,-1.7712766823172568,-0.2465390581101179
1780625771689045500,11.71304541015625,-0.03218319072425365,-0.7779309767641127,-0.22626783897578714
1780625771699040500,11.72304052734375,-0.18103578158617017,0.26833750507803633,0.05395370850563049
1780625771709035500,11.733035400390625,0.16912907069325447,0.5591690929716453,-0.24635844084620476
1780625771719030300,11.7430302734375,0.6584615706443786,0.16590643711863085,-0.5923240878701209
1780625771729025300,11.753025390625,0.5887479829490184,-0.47863370354324575,-0.3964093015819788
1780625771739021300,11.763021240234375,0.2505810269773006,-0.9416807655718177,-0.1958756233215332
1780625771749016300,11.773016357421875,0.362950684094429,-0.9115379215687512,-0.051314592173695564
1780625771759011300,11.78301123046875,0.7235428223639726,-0.3536482374157756,0.3332698315799236
1780625771769006300,11.79300634765625,1.0002046315371989,0.6843726953618228,0.8810416610181331
1780625771779001600,11.803001708984375,0.7531593774706125,1.6593951009780168,1.3085428509563206
1780625771788997400,11.812997314453124,0.28647067100405693,1.8276828985415399,0.6797831756144762
1780625771798992400,11.822992431640625,0.5555588300526142,1.2473026387043296,-0.3763122699707746
1780625771808987400,11.8329873046875,0.533014989811182,0.1594011103452183,-0.9168781135529279
1780625771818982400,11.842982421875,0.1349643507629633,-0.8824920059569179,-0.9684124859571457
1780625771828977400,11.852977294921875,-0.5633247878789901,-1.5728994514383374,-0.8146592635720967
1780625771838972400,11.862972412109375,-1.1229027904450892,-1.8895850818336009,-0.33056349523067474
1780625771848968200,11.87296826171875,-1.1511252608448266,-1.7952955635473131,0.5800070426106453
1780625771858963200,11.882963134765625,-0.6601490853399038,-1.3256119130484758,1.4967489625632762
1780625771868958500,11.89295849609375,0.22075112138092517,-0.4346967274654656,2.1771137374579905
1780625771878953500,11.902953369140626,0.3239297563046217,0.4026007035680115,2.05693369885087
1780625771888948500,11.912948486328125,-0.3994365404486656,0.5329497425552457,1.0850637659162283
1780625771898944300,11.9229443359375,-1.1393103198885917,0.2489679657574743,0.27518413783609863
1780625771908939300,11.932939208984376,-0.9933733242124319,-0.1850459670756012,-0.020501520758867263
1780625771918934300,11.942934326171875,-0.16226210753321646,-0.33670769707411524,0.20785539945065973
1780625771928929300,11.95292919921875,0.25529811862707136,-0.17202983363606034,0.7613362541854382
1780625771938924300,11.96292431640625,-0.25849311527609825,0.0903437032699585,1.1790882035255432
1780625771948920300,11.97292041015625,-0.8975088116943836,0.3083163729134947,1.345120477247238
1780625771958915600,11.98291552734375,-1.133623506423831,0.15578874680064617,0.9002449586600064
1780625771968910300,11.992910400390626,-0.7628478277921676,-0.23436368634365498,0.00265606746673584
1780625771978905300,12.0029052734375,-0.5164911405116319,-0.5084533800065517,-0.9209767810434103
1780625771988900400,12.012900390625,-0.750662884479761,-0.806825793467462,-1.5169652366399764
1780625771998896400,12.022896484375,-1.054593808850646,-1.2510431404069065,-1.3064993624299763
1780625772008891400,12.032891357421875,-0.9253770618289708,-1.6644987077273428,-0.5502344201594591
1780625772018886400,12.042886474609375,-0.786308782878518,-1.5073235480695961,0.09499123681485652
1780625772028881400,12.05288134765625,-1.14632575160861,-0.7710163750700653,0.23983225394785404
1780625772038876400,12.06287646484375,-1.2033341715097428,-0.25570830686315893,-0.6382762762278318
1780625772048871200,12.07287109375,-0.6672200466394425,0.2303808272525668,-1.7937071253120898
1780625772058867500,12.082867431640626,-0.478762006098032,0.9414699723653495,-2.3970915363788605
1780625772068862500,12.092862548828125,-0.7425450444757938,1.3983872264020145,-2.6020745952636
1780625772078857500,12.102857421875,-0.6267775616139173,1.774662086971849,-2.53310744202137
1780625772088852500,12.1128525390625,0.2513677934408188,2.185154712833464,-2.49666542480886
1780625772098847500,12.122847412109374,1.5525345626711844,2.528041975325346,-2.5904180597394704
1780625772108843300,12.13284326171875,2.4873393780589104,2.980779313328862,-2.6273715336054564
1780625772118838300,12.14283837890625,2.2323837892591953,3.5166561223119497,-2.294797867596149
1780625772128833300,12.152833251953124,1.4613877263247965,3.40938057346344,-1.0954799459904432
1780625772138828300,12.162828369140625,0.9323439782321452,3.0582880849450826,0.40676644494533537
1780625772148823300,12.1728232421875,-1.5025392364025114,2.5856618051230904,1.5995096643358468
1780625772158818600,12.182818603515624,-4.136106702038646,1.2913780734047293,1.9428017082363367
1780625772168814300,12.192814453125,-4.29648957169652,-0.7165244680345058,1.1201847636580466
1780625772178809300,12.202809326171876,-2.6692875983148814,-2.286033692512661,-0.19932839412391185
1780625772188804400,12.212804443359374,-1.3942700003415345,-2.7779531402170656,-0.9703151047080755
1780625772198799400,12.22279931640625,-0.8237111695557833,-2.3630451821312306,-0.66075289645195
1780625772208794400,12.23279443359375,-0.21144144124388695,-1.4787880661979316,0.2802010892152786
1780625772218790400,12.242790283203124,-0.3743348324179649,-0.6916320188403129,1.2624462856918572
1780625772228785200,12.25278515625,-0.6561088700383901,-0.4774126373156905,1.6813187634944915
1780625772238780200,12.2627802734375,-0.2626104874670505,-0.986584394724667,1.4869009377658366
1780625772248775400,12.272775390625,1.001954105553031,-1.6303277041867374,1.437626911509037
1780625772258770400,12.2827705078125,2.9607524243444203,-1.7238567594945429,1.4501473703861236
1780625772268766500,12.292766357421876,3.8994139151602982,-1.0348124190598726,1.1441589289635419
1780625772278761500,12.302761474609374,2.619690331453085,0.432864178276062,0.49443829865753647
1780625772288756500,12.312756591796875,0.8041659266084432,2.2563076856821773,0.31321254745721816
1780625772298751200,12.322751220703125,0.09761457105576991,3.6098674899727103,0.3309738295972347
1780625772308746200,12.332746337890624,0.1574889017820358,4.117531180906296,0.30161914029717446
1780625772318742300,12.3427421875,0.3352741571396589,3.4114456892997023,0.4814093057364225
1780625772328737300,12.3527373046875,0.7397820095032454,2.050428262479603,0.8312222758382558
1780625772338732500,12.362732666015624,1.3730237986952065,0.8198685226529836,0.8071049026697874
1780625772348727600,12.3727275390625,1.6626555640786884,0.07156476851999759,0.43930970115363593
1780625772358722600,12.38272265625,1.6961860777586697,-0.08523381291031837,-0.004717676171660423
1780625772368717300,12.39271728515625,1.136092526885867,0.254636732108891,-0.12419219685792922
1780625772378713300,12.40271337890625,-0.4917530050963163,0.9724538703024387,0.42266544034481046
1780625772388708400,12.412708251953125,-1.6849404611229895,1.3877926210209726,0.9163970520377158
1780625772398703400,12.422703369140624,-1.0971171918034552,1.1206848221346735,0.9160206199407577
1780625772408698400,12.432698486328125,0.801842452096939,0.6505994589671492,0.68986559368968
1780625772418693400,12.442693359375,2.3524667972326276,0.5679761208161711,0.22895722419023512
1780625772428689400,12.452689453125,2.697707052591443,0.7772036854028701,-0.3127612965583801
1780625772438684400,12.462684326171875,1.875893825611472,1.1317530363768338,-0.36686931884288787
1780625772448679400,12.472679443359375,0.21807167303860187,1.73647921744138,0.08900631718635559
1780625772458674400,12.48267431640625,-1.5507698910862207,2.230577324359119,0.5628478180170059
1780625772468669400,12.49266943359375,-2.4968629932075737,2.3802166816845536,0.9621189387708902
1780625772478665500,12.50266552734375,-2.06767545761764,2.1929136563971636,1.3878075263291596
1780625772488660200,12.51266015625,-0.4455903888583183,1.6053087060034275,1.6211597706079481
1780625772498655200,12.5226552734375,0.7916291011184453,0.6484250375375151,1.1706132206469773
1780625772508650200,12.532650146484375,0.9966548301011323,-0.147272043672204,0.2365484099715948
1780625772518645200,12.542645263671876,0.5513754068881273,-0.263900235016644,-0.5247311455905437
1780625772528639700,12.5526396484375,-0.35322950054705143,0.0693491382971406,-0.9322691594302653
1780625772538635800,12.5626357421875,-0.9150093970715999,0.47595279389619827,-0.8415525311946869
1780625772548630800,12.572630859375,-0.6269114171266555,0.511575019158423,-0.6507628328353167
1780625772558625800,12.582625732421874,0.7947001791268586,0.011600713683664799,-0.5992372282594443
