time,seconds_elapsed,z,y,x
1780625760038409700,0.06240966796875,-0.9045867919921875,-0.3312530517578125,0.05145263671875
1780625760048404700,0.07240478515625,-0.8923797607421875,-0.3454742431640625,0.0341644287109375
1780625760058399700,0.082399658203125,-0.907012939453125,-0.365264892578125,0.0205230712890625
1780625760068395000,0.09239501953125,-0.929840087890625,-0.37811279296875,0.0076446533203125
1780625760078389800,0.1023896484375,-0.938018798828125,-0.3769683837890625,-0.0039520263671875
1780625760088384800,0.112384765625,-0.9418182373046875,-0.3800811767578125,-0.015899658203125
1780625760098380800,0.122380859375,-0.9473724365234375,-0.376434326171875,-0.0142364501953125
1780625760108375800,0.132375732421875,-0.952056884765625,-0.3568115234375,0.0002593994140625
1780625760118370800,0.142370849609375,-0.9536285400390625,-0.3289642333984375,0.029052734375
1780625760128365800,0.15236572265625,-0.9356231689453125,-0.3115386962890625,0.05877685546875
1780625760138360800,0.16236083984375,-0.9085235595703125,-0.3218231201171875,0.0748138427734375
1780625760148355800,0.17235595703125,-0.8904876708984375,-0.3308868408203125,0.0842437744140625
1780625760158352000,0.182351806640625,-0.8938751220703125,-0.3266143798828125,0.0932464599609375
1780625760168347000,0.192346923828125,-0.929840087890625,-0.2946319580078125,0.122100830078125
1780625760178342000,0.202341796875,-0.965087890625,-0.346954345703125,0.11181640625
1780625760188337000,0.2123369140625,-0.92596435546875,-0.3751068115234375,0.033782958984375
1780625760198332000,0.222331787109375,-0.9368438720703125,-0.3813323974609375,-0.010223388671875
1780625760208327000,0.232326904296875,-0.9528656005859375,-0.4056396484375,-0.021026611328125
1780625760218322700,0.24232275390625,-0.9304046630859375,-0.41510009765625,-0.0153045654296875
1780625760228317700,0.252317626953125,-0.9139404296875,-0.427886962890625,-0.0017852783203125
1780625760238312700,0.262312744140625,-0.8943634033203125,-0.357879638671875,0.05804443359375
1780625760248307700,0.2723076171875,-0.9048919677734375,-0.188507080078125,0.1838531494140625
1780625760258302700,0.282302734375,-0.9509735107421875,-0.3040313720703125,0.170257568359375
1780625760268297700,0.292297607421875,-0.8341217041015625,-0.25799560546875,0.2439727783203125
1780625760278293800,0.302293701171875,-0.8212890625,-0.1861572265625,0.296173095703125
1780625760288288800,0.312288818359375,-0.8470306396484375,-0.3295440673828125,0.19537353515625
1780625760298283800,0.32228369140625,-0.7431182861328125,-0.4132843017578125,0.1375579833984375
1780625760308278800,0.33227880859375,-0.69610595703125,-0.490142822265625,0.07012939453125
1780625760318273800,0.342273681640625,-0.7430572509765625,-0.5458984375,-0.048370361328125
1780625760328268800,0.352268798828125,-0.801422119140625,-0.5551300048828125,-0.1281280517578125
1780625760338264600,0.3622646484375,-0.87921142578125,-0.5421142578125,-0.1515655517578125
1780625760348259600,0.372259521484375,-1.041259765625,-0.5048370361328125,-0.1747283935546875
1780625760358254600,0.382254638671875,-1.149444580078125,-0.4720611572265625,-0.1829681396484375
1780625760368249900,0.392249755859375,-1.13311767578125,-0.4774017333984375,-0.1776123046875
1780625760378244900,0.402244873046875,-1.08135986328125,-0.4792022705078125,-0.180755615234375
1780625760388240000,0.412239990234375,-0.9883270263671875,-0.4716339111328125,-0.186004638671875
1780625760398235000,0.42223486328125,-0.8653564453125,-0.488525390625,-0.148529052734375
1780625760408230700,0.432230712890625,-0.769256591796875,-0.50091552734375,-0.129669189453125
1780625760418225700,0.4422255859375,-0.764556884765625,-0.508148193359375,-0.087432861328125
1780625760428220700,0.452220703125,-0.831207275390625,-0.488494873046875,-0.058013916015625
1780625760438215700,0.462215576171875,-0.91021728515625,-0.470611572265625,-0.0417938232421875
1780625760448210700,0.472210693359375,-0.9194488525390625,-0.4079132080078125,-0.0779266357421875
1780625760458205700,0.482205810546875,-0.89727783203125,-0.3527984619140625,-0.1286163330078125
1780625760468202000,0.492201904296875,-0.89007568359375,-0.468902587890625,-0.07977294921875
1780625760478196700,0.50219677734375,-0.8488922119140625,-0.537628173828125,-0.0082550048828125
1780625760488191700,0.512191650390625,-0.8476715087890625,-0.506866455078125,-0.020660400390625
1780625760498186800,0.522186767578125,-0.872955322265625,-0.441680908203125,-0.0544281005859375
1780625760508181500,0.532181396484375,-0.8934478759765625,-0.4002685546875,-0.0280609130859375
1780625760518176500,0.542176513671875,-0.9593658447265625,-0.341827392578125,0.389251708984375
1780625760528172500,0.552172607421875,-0.9004364013671875,-0.3836822509765625,0.9034881591796875
1780625760538167600,0.56216748046875,-0.72125244140625,-0.4345550537109375,0.365966796875
1780625760548162600,0.57216259765625,-0.7443695068359375,-0.450408935546875,0.0350799560546875
1780625760558157600,0.582157470703125,-0.868072509765625,-0.5187225341796875,-0.1201171875
1780625760568152300,0.59215234375,-0.8987884521484375,-0.5304107666015625,-0.2539825439453125
1780625760578147300,0.602147216796875,-0.8881072998046875,-0.483184814453125,-0.3233795166015625
1780625760588143600,0.6121435546875,-0.814208984375,-0.52850341796875,-0.236480712890625
1780625760598138600,0.622138671875,-0.624359130859375,-0.5759124755859375,-0.139801025390625
1780625760608133600,0.632133544921875,-0.4817047119140625,-0.6929168701171875,0.0973052978515625
1780625760618128600,0.642128662109375,-0.4833221435546875,-0.8388519287109375,0.3226470947265625
1780625760628123600,0.65212353515625,-0.736480712890625,-0.9343719482421875,0.155853271484375
1780625760638118400,0.662118408203125,-0.93536376953125,-0.92108154296875,0.0414886474609375
1780625760648114400,0.672114501953125,-0.833587646484375,-0.719573974609375,-0.03155517578125
1780625760658109400,0.682109375,-0.4654388427734375,-0.5017242431640625,-0.012359619140625
1780625760668104400,0.6921044921875,-0.57464599609375,-0.4698333740234375,0.0020904541015625
1780625760678099500,0.702099365234375,-0.773223876953125,-0.491668701171875,0.018096923828125
1780625760688094500,0.712094482421875,-0.8207244873046875,-0.491912841796875,-0.048004150390625
1780625760698089500,0.72208935546875,-0.779937744140625,-0.55340576171875,-0.1333770751953125
1780625760708085500,0.73208544921875,-0.741119384765625,-0.670318603515625,-0.06298828125
1780625760718080500,0.74208056640625,-0.6758880615234375,-0.805694580078125,0.0202178955078125
1780625760728075500,0.752075439453125,-0.5644378662109375,-0.8334503173828125,0.0637054443359375
1780625760738070500,0.762070556640625,-0.482574462890625,-0.701171875,0.068939208984375
1780625760748065500,0.7720654296875,-0.5062255859375,-0.541229248046875,0.055023193359375
1780625760758060500,0.782060546875,-0.6018524169921875,-0.4893951416015625,0.0311126708984375
1780625760768056300,0.792056396484375,-0.6479034423828125,-0.501983642578125,0.0263214111328125
1780625760778051300,0.80205126953125,-0.7011871337890625,-0.484588623046875,0.036041259765625
1780625760788046600,0.812046630859375,-0.8031463623046875,-0.4021759033203125,0.09893798828125
1780625760798041600,0.82204150390625,-0.9015960693359375,-0.3011474609375,0.1533050537109375
1780625760808036600,0.83203662109375,-0.94451904296875,-0.2512664794921875,0.16796875
1780625760818031600,0.842031494140625,-0.8895263671875,-0.1942291259765625,0.1597747802734375
1780625760828026600,0.852026611328125,-0.8298797607421875,-0.1453857421875,0.158447265625
1780625760838022400,0.8620224609375,-0.85150146484375,-0.18646240234375,0.1391143798828125
1780625760848017400,0.872017333984375,-0.8892974853515625,-0.17333984375,-0.1811370849609375
1780625760858012400,0.882012451171875,-0.87884521484375,-0.2303466796875,-0.1600799560546875
1780625760868007400,0.89200732421875,-0.8459625244140625,-0.400421142578125,0.2918548583984375
1780625760878002400,0.90200244140625,-0.858551025390625,-0.3249359130859375,0.29962158203125
1780625760887998500,0.91199853515625,-0.8723297119140625,-0.18597412109375,0.256256103515625
1780625760897993500,0.921993408203125,-0.788299560546875,-0.0858917236328125,0.1630859375
1780625760907988500,0.931988525390625,-0.76458740234375,-0.0429840087890625,0.0492401123046875
1780625760917983500,0.9419833984375,-0.7926788330078125,-0.011138916015625,-0.019317626953125
1780625760927978500,0.951978515625,-0.743988037109375,-0.00201416015625,-0.0490875244140625
1780625760937973500,0.961973388671875,-0.725341796875,-0.0336761474609375,-0.060821533203125
1780625760947968500,0.971968505859375,-0.74871826171875,-0.0949554443359375,-0.0839996337890625
1780625760957964500,0.981964599609375,-0.6953277587890625,-0.142730712890625,-0.1401824951171875
1780625760967959300,0.991959228515625,-0.692047119140625,-0.1686553955078125,-0.20904541015625
1780625760977954300,1.001954345703125,-0.7645416259765625,-0.166961669921875,-0.26739501953125
1780625760987949600,1.011949462890625,-0.8585205078125,-0.11224365234375,-0.29962158203125
1780625760997944600,1.021944580078125,-0.7841033935546875,-0.0443267822265625,-0.272308349609375
1780625761007939600,1.031939697265625,-0.6844482421875,0.0189971923828125,-0.20587158203125
1780625761017935600,1.041935546875,-0.69195556640625,0.0537261962890625,-0.2202911376953125
1780625761027930600,1.0519306640625,-0.6551971435546875,0.03814697265625,-0.291229248046875
1780625761037925400,1.06192529296875,-0.61602783203125,0.0117340087890625,-0.3466796875
1780625761047920400,1.07192041015625,-0.5579833984375,0.0045013427734375,-0.385162353515625
1780625761057915400,1.081915283203125,-0.49774169921875,0.0023193359375,-0.428497314453125
1780625761067910400,1.091910400390625,-0.45489501953125,-0.0037078857421875,-0.5789031982421875
1780625761077906700,1.10190673828125,-0.47357177734375,0.001800537109375,-0.69256591796875
1780625761087901700,1.111901611328125,-0.60272216796875,0.048980712890625,-0.675872802734375
1780625761097896400,1.121896484375,-0.7897491455078125,0.1356964111328125,-0.4636383056640625
1780625761107891500,1.131891357421875,-0.898223876953125,0.201416015625,-0.4639892578125
1780625761117886500,1.141886474609375,-0.8628692626953125,0.2734527587890625,-0.5285491943359375
1780625761127881500,1.151881591796875,-0.7646331787109375,0.2348480224609375,-0.601318359375
1780625761137877500,1.16187744140625,-0.6853485107421875,0.1636199951171875,-0.6092529296875
1780625761147872500,1.17187255859375,-0.5962677001953125,0.184906005859375,-0.620361328125
1780625761157867500,1.181867431640625,-0.549072265625,0.218841552734375,-0.6463775634765625
1780625761167862500,1.191862548828125,-0.5228729248046875,0.2164764404296875,-0.7180633544921875
1780625761177857300,1.201857177734375,-0.59588623046875,0.2023468017578125,-0.8543548583984375
1780625761187852300,1.211852294921875,-0.748870849609375,0.2335357666015625,-0.94195556640625
1780625761197848600,1.2218486328125,-0.9202880859375,0.2400665283203125,-1.0410308837890625
1780625761207843600,1.231843505859375,-0.99566650390625,0.207427978515625,-1.1234893798828125
1780625761217838600,1.241838623046875,-0.966827392578125,0.190338134765625,-1.132904052734375
1780625761227833600,1.25183349609375,-0.8788299560546875,0.1650848388671875,-1.1237640380859375
1780625761237828600,1.26182861328125,-0.7301483154296875,0.136627197265625,-1.0738372802734375
1780625761247823400,1.2718232421875,-0.6065673828125,0.094757080078125,-1.09942626953125
1780625761257819400,1.2818193359375,-0.5992584228515625,0.103729248046875,-1.1212158203125
1780625761267814400,1.291814453125,-0.6404266357421875,0.178985595703125,-1.1165771484375
1780625761277809400,1.301809326171875,-0.6853790283203125,0.255889892578125,-1.1406097412109375
1780625761287804700,1.3118046875,-0.6826324462890625,0.3355255126953125,-1.159942626953125
1780625761297799700,1.321799560546875,-0.6263275146484375,0.348876953125,-1.19012451171875
1780625761307794700,1.331794677734375,-0.5707550048828125,0.308013916015625,-1.2495574951171875
1780625761317790500,1.34179052734375,-0.5739593505859375,0.27099609375,-1.31842041015625
1780625761327785500,1.351785400390625,-0.584564208984375,0.258819580078125,-1.3744964599609375
1780625761337780500,1.361780517578125,-0.545318603515625,0.253631591796875,-1.4013519287109375
1780625761347775500,1.371775390625,-0.50115966796875,0.2446441650390625,-1.4208831787109375
1780625761357770500,1.3817705078125,-0.4724884033203125,0.2183074951171875,-1.4453277587890625
1780625761367765500,1.391765625,-0.4846038818359375,0.1800079345703125,-1.5018310546875
1780625761377760500,1.401760498046875,-0.4985198974609375,0.136749267578125,-1.5193939208984375
1780625761387756500,1.411756591796875,-0.446685791015625,0.1407318115234375,-1.446624755859375
1780625761397751600,1.42175146484375,-0.39263916015625,0.176300048828125,-1.3852386474609375
1780625761407746600,1.43174658203125,-0.31573486328125,0.22601318359375,-1.3129730224609375
1780625761417741600,1.441741455078125,-0.0797271728515625,0.28790283203125,-1.2801055908203125
1780625761427736600,1.451736572265625,0.0234375,0.25567626953125,-0.9878387451171875
1780625761437731600,1.461731689453125,-0.15496826171875,0.21453857421875,-0.9694366455078125
1780625761447727400,1.471727294921875,-0.1308441162109375,0.2592620849609375,-1.1126708984375
1780625761457722400,1.481722412109375,-0.0446319580078125,0.214385986328125,-1.115234375
1780625761467717400,1.49171728515625,-0.028350830078125,0.1558380126953125,-1.05914306640625
1780625761477712400,1.50171240234375,-0.06732177734375,0.19696044921875,-1.03240966796875
1780625761487707400,1.511707275390625,-0.024932861328125,0.265777587890625,-0.999237060546875
1780625761497702700,1.52170263671875,0.03973388671875,0.2996826171875,-0.935394287109375
1780625761507698400,1.531698486328125,0.05731201171875,0.3180389404296875,-0.9048004150390625
1780625761517693700,1.541693603515625,-0.0135650634765625,0.3334503173828125,-0.928863525390625
1780625761527689000,1.55168896484375,-0.1458740234375,0.3597869873046875,-0.978179931640625
1780625761537684000,1.56168408203125,-0.2552337646484375,0.4182586669921875,-1.00250244140625
1780625761547679000,1.571678955078125,-0.3221282958984375,0.48089599609375,-0.981109619140625
1780625761557674000,1.581674072265625,-0.3515625,0.532928466796875,-0.9653167724609375
1780625761567669800,1.591669677734375,-0.36395263671875,0.5533447265625,-1.0113067626953125
1780625761577664800,1.601664794921875,-0.4091339111328125,0.517364501953125,-1.1134185791015625
1780625761587659800,1.61165966796875,-0.4376068115234375,0.48382568359375,-1.211639404296875
1780625761597654800,1.62165478515625,-0.4482269287109375,0.48443603515625,-1.256927490234375
1780625761607649800,1.63164990234375,-0.4448089599609375,0.494598388671875,-1.24859619140625
1780625761617644800,1.641644775390625,-0.4128875732421875,0.4944610595703125,-1.2157440185546875
1780625761627641000,1.65164111328125,-0.3669281005859375,0.469024658203125,-1.185882568359375
1780625761637635800,1.6616357421875,-0.3517913818359375,0.446136474609375,-1.1680908203125
1780625761647630800,1.671630859375,-0.2724609375,0.4446258544921875,-1.141876220703125
1780625761657625900,1.6816259765625,-0.1292877197265625,0.4282379150390625,-1.0744476318359375
1780625761667620900,1.691620849609375,-0.139404296875,0.4466552734375,-0.9981842041015625
1780625761677615900,1.701615966796875,-0.1051788330078125,0.4641571044921875,-1.0114593505859375
1780625761687612000,1.71161181640625,-0.091156005859375,0.4241943359375,-0.997894287109375
1780625761697607000,1.72160693359375,-0.1024017333984375,0.4114227294921875,-0.967071533203125
1780625761707601700,1.7316015625,-0.1142120361328125,0.435302734375,-0.9105682373046875
1780625761717596700,1.7415966796875,-0.15728759765625,0.470611572265625,-0.8384552001953125
1780625761727591700,1.751591796875,-0.15753173828125,0.494384765625,-0.788970947265625
1780625761737587000,1.7615869140625,-0.1343994140625,0.481964111328125,-0.7468109130859375
1780625761747583000,1.7715830078125,-0.1307373046875,0.4785919189453125,-0.688629150390625
1780625761757578000,1.781577880859375,-0.108154296875,0.47467041015625,-0.6227874755859375
1780625761767573000,1.791572998046875,-0.114227294921875,0.4739532470703125,-0.5841827392578125
1780625761777567700,1.801567626953125,-0.2300872802734375,0.52349853515625,-0.594268798828125
1780625761787562800,1.811562744140625,-0.3366851806640625,0.5556640625,-0.6682891845703125
1780625761797557800,1.821557861328125,-0.4191741943359375,0.536468505859375,-0.748687744140625
1780625761807553800,1.8315537109375,-0.4895172119140625,0.5187225341796875,-0.81884765625
1780625761817548800,1.841548828125,-0.4269866943359375,0.485626220703125,-0.7957611083984375
1780625761827544000,1.8515439453125,-0.3671722412109375,0.4360198974609375,-0.7469482421875
1780625761837539000,1.8615390625,-0.41064453125,0.3910064697265625,-0.7782745361328125
1780625761847533800,1.871533935546875,-0.356781005859375,0.313934326171875,-0.7400360107421875
1780625761857528800,1.88152880859375,-0.3175201416015625,0.2153167724609375,-0.7082366943359375
1780625761867524900,1.89152490234375,-0.09295654296875,0.1700286865234375,-0.6589508056640625
1780625761877520000,1.901519775390625,0.2905731201171875,0.0718231201171875,-0.5149078369140625
1780625761887515000,1.911514892578125,0.210205078125,-0.0104522705078125,-0.4867401123046875
1780625761897510000,1.921510009765625,0.191009521484375,-0.01580810546875,-0.525054931640625
1780625761907505000,1.9315048828125,0.22064208984375,-0.0771636962890625,-0.578887939453125
1780625761917500000,1.9415,0.23236083984375,-0.0997467041015625,-0.5884552001953125
1780625761927496000,1.951495849609375,0.2209625244140625,-0.0692901611328125,-0.5469512939453125
1780625761937491000,1.961490966796875,0.1572418212890625,-0.04345703125,-0.528778076171875
1780625761947486000,1.97148583984375,0.1154632568359375,-0.0220184326171875,-0.53485107421875
1780625761957481000,1.98148095703125,0.0693817138671875,-0.0409088134765625,-0.63916015625
1780625761967476000,1.99147607421875,-0.1059112548828125,-0.0843353271484375,-0.8331451416015625
1780625761977471000,2.001470947265625,-0.289703369140625,-0.0295257568359375,-0.953643798828125
1780625761987466800,2.011466796875,-0.2198486328125,0.1322021484375,-0.9166259765625
1780625761997461800,2.021461669921875,-0.0445556640625,0.306243896484375,-0.74951171875
1780625762007456800,2.031456787109375,0.0563201904296875,0.521240234375,-0.5636749267578125
1780625762017451800,2.04145166015625,-0.0531768798828125,0.687255859375,-0.433135986328125
1780625762027447000,2.051447021484375,-0.31787109375,0.7767486572265625,-0.49749755859375
1780625762037442000,2.061442138671875,-0.6287841796875,0.839599609375,-0.7404327392578125
1780625762047437800,2.071437744140625,-0.837738037109375,0.856689453125,-0.986541748046875
1780625762057432800,2.081432861328125,-0.80889892578125,0.8855438232421875,-1.0860443115234375
1780625762067427800,2.091427734375,-0.6445465087890625,0.91815185546875,-1.0160064697265625
1780625762077422800,2.1014228515625,-0.5479583740234375,0.982818603515625,-0.9992523193359375
1780625762087417900,2.11141796875,-0.5964813232421875,1.068511962890625,-1.127197265625
1780625762097412900,2.121412841796875,-0.7234039306640625,1.1248321533203125,-1.2825775146484375
1780625762107408600,2.13140869140625,-0.857666015625,1.1282196044921875,-1.4065093994140625
1780625762117404000,2.14140380859375,-0.9064178466796875,1.084991455078125,-1.561431884765625
1780625762127399000,2.15139892578125,-0.841339111328125,1.0094451904296875,-1.78948974609375
1780625762137394000,2.161393798828125,-0.4358367919921875,0.93109130859375,-1.8387908935546875
1780625762147389000,2.171388916015625,0.00897216796875,0.8003692626953125,-1.72393798828125
1780625762157384000,2.181384033203125,0.257965087890625,0.759368896484375,-1.56378173828125
1780625762167380000,2.1913798828125,0.4995269775390625,0.8809967041015625,-1.1846466064453125
1780625762177374700,2.201374755859375,0.526123046875,0.9643096923828125,-0.8858489990234375
1780625762187369700,2.21136962890625,0.2592315673828125,0.9887542724609375,-0.7540435791015625
1780625762197364700,2.22136474609375,-0.0816650390625,0.937225341796875,-0.7747955322265625
1780625762207359700,2.23135986328125,-0.32080078125,0.8283233642578125,-0.8465118408203125
1780625762217354800,2.241354736328125,-0.3677978515625,0.75360107421875,-0.917327880859375
1780625762227351000,2.25135107421875,-0.441253662109375,0.69464111328125,-0.935272216796875
1780625762237346000,2.261345947265625,-0.7335052490234375,0.633819580078125,-1.02667236328125
1780625762247340800,2.2713408203125,-0.980194091796875,0.53778076171875,-1.1392059326171875
1780625762257335800,2.281335693359375,-1.1623687744140625,0.503814697265625,-1.1875152587890625
1780625762267330800,2.291330810546875,-1.1634979248046875,0.616455078125,-1.02545166015625
1780625762277325800,2.301325927734375,-0.8713226318359375,0.7114410400390625,-0.766326904296875
1780625762287321900,2.31132177734375,-0.7254486083984375,0.57879638671875,-0.5888824462890625
1780625762297316900,2.32131689453125,-0.68768310546875,0.4643402099609375,-0.6207733154296875
1780625762307311900,2.331311767578125,-0.6253662109375,0.395782470703125,-0.719146728515625
1780625762317307000,2.341306884765625,-0.5640106201171875,0.305267333984375,-0.7441864013671875
1780625762327302000,2.351302001953125,-0.5248260498046875,0.2490234375,-0.7022247314453125
1780625762337297000,2.361296875,-0.5026397705078125,0.257598876953125,-0.67584228515625
1780625762347293000,2.37129296875,-0.49066162109375,0.297607421875,-0.6208648681640625
1780625762357288000,2.381287841796875,-0.4606170654296875,0.3366546630859375,-0.53045654296875
1780625762367283000,2.391282958984375,-0.3761138916015625,0.342254638671875,-0.5029449462890625
1780625762377278000,2.40127783203125,-0.40875244140625,0.330413818359375,-0.4819488525390625
1780625762387273000,2.41127294921875,-0.377838134765625,0.3513336181640625,-0.4571685791015625
1780625762397267700,2.421267822265625,-0.1237945556640625,0.352447509765625,-0.4195556640625
1780625762407263700,2.431263671875,0.228546142578125,0.345977783203125,-0.337188720703125
1780625762417259000,2.441259033203125,0.5644073486328125,0.3637542724609375,-0.2855224609375
1780625762427254000,2.45125390625,-0.0474395751953125,0.1876068115234375,-0.546966552734375
1780625762437249000,2.4612490234375,-0.4773406982421875,0.20489501953125,-0.8233795166015625
1780625762447244000,2.471244140625,-0.35595703125,0.2471771240234375,-0.79150390625
1780625762457239000,2.481239013671875,-0.348663330078125,0.1688079833984375,-0.7440185546875
1780625762467234800,2.49123486328125,-0.4012603759765625,0.1196136474609375,-0.8119659423828125
1780625762477229800,2.501229736328125,-0.3834991455078125,0.0344085693359375,-0.877899169921875
1780625762487224800,2.511224853515625,-0.4390869140625,-0.0537261962890625,-0.8991546630859375
1780625762497219800,2.5212197265625,-0.434478759765625,-0.049285888671875,-0.8108062744140625
1780625762507214800,2.53121484375,-0.432373046875,0.0236053466796875,-0.6909332275390625
1780625762517208800,2.541208740234375,-0.4558258056640625,0.1046600341796875,-0.56085205078125
1780625762527204900,2.551204833984375,-0.4612274169921875,0.143341064453125,-0.4577484130859375
1780625762537199900,2.561199951171875,-0.39031982421875,0.145477294921875,-0.3356475830078125
1780625762547195000,2.57119482421875,-0.323577880859375,0.1409759521484375,-0.3204498291015625
1780625762557190000,2.58118994140625,-0.2709808349609375,0.130859375,-0.44793701171875
1780625762567185000,2.591184814453125,-0.217315673828125,0.124420166015625,-0.557403564453125
1780625762577180000,2.601179931640625,-0.2352294921875,0.12908935546875,-0.69219970703125
1780625762587176000,2.611176025390625,-0.318145751953125,0.1734771728515625,-0.849365234375
1780625762597171000,2.6211708984375,-0.3404998779296875,0.2437744140625,-0.86944580078125
1780625762607165700,2.631165771484375,-0.3799896240234375,0.2758941650390625,-0.8118438720703125
1780625762617160700,2.64116064453125,-0.4355621337890625,0.381195068359375,-0.7295074462890625
1780625762627156000,2.651156005859375,-0.45025634765625,0.3840789794921875,-0.745269775390625
1780625762637152000,2.661152099609375,-0.500640869140625,0.32666015625,-0.8480682373046875
1780625762647147000,2.67114697265625,-0.4069061279296875,0.1995697021484375,-0.8846435546875
1780625762657142000,2.68114208984375,-0.425048828125,0.165069580078125,-0.959197998046875
1780625762667137000,2.691136962890625,-0.491546630859375,0.203369140625,-1.024871826171875
1780625762677131800,2.7011318359375,-0.589385986328125,0.41900634765625,-1.043182373046875
1780625762687126800,2.711126708984375,-0.552032470703125,0.556304931640625,-0.9802093505859375
1780625762697122800,2.721122802734375,-0.429229736328125,0.3558349609375,-0.904266357421875
1780625762707117800,2.731117919921875,-0.5088348388671875,0.462860107421875,-0.937103271484375
1780625762717113000,2.741113037109375,-0.490631103515625,0.417938232421875,-0.875030517578125
1780625762727108000,2.751108154296875,-0.408050537109375,0.3511505126953125,-0.808807373046875
1780625762737103000,2.76110302734375,-0.30230712890625,0.145172119140625,-0.8411102294921875
1780625762747097900,2.771097900390625,-0.3315277099609375,-0.029937744140625,-0.979339599609375
1780625762757094000,2.781093994140625,-0.4400482177734375,0.09039306640625,-1.131500244140625
1780625762767089000,2.7910888671875,-0.4663543701171875,0.215789794921875,-1.134124755859375
1780625762777084000,2.801083984375,-0.5713043212890625,0.466888427734375,-0.959625244140625
1780625762787079000,2.811078857421875,-0.7166290283203125,0.593719482421875,-0.8307342529296875
1780625762797074000,2.821073974609375,-0.7443695068359375,0.5956573486328125,-0.877593994140625
1780625762807069000,2.83106884765625,-0.673187255859375,0.5729217529296875,-0.9347686767578125
1780625762817065000,2.84106494140625,-0.527130126953125,0.5657806396484375,-0.892547607421875
1780625762827060000,2.85106005859375,-0.3271026611328125,0.65997314453125,-0.7523651123046875
1780625762837055000,2.861054931640625,-0.224212646484375,0.6762847900390625,-0.7219390869140625
1780625762847050000,2.871050048828125,-0.1922607421875,0.7283172607421875,-0.7230987548828125
1780625762857045000,2.881044921875,-0.197845458984375,0.8060455322265625,-0.7368316650390625
1780625762867040000,2.8910400390625,-0.168243408203125,0.759735107421875,-0.8083648681640625
1780625762877035800,2.901035888671875,-0.1541900634765625,0.678375244140625,-0.8813934326171875
1780625762887030800,2.91103076171875,-0.15924072265625,0.595550537109375,-0.9355316162109375
1780625762897025800,2.92102587890625,-0.188995361328125,0.45489501953125,-0.999725341796875
1780625762907020800,2.931020751953125,-0.24407958984375,0.3084716796875,-0.9736785888671875
1780625762917016000,2.94101611328125,-0.2658843994140625,0.2739105224609375,-0.8903656005859375
1780625762927011000,2.951010986328125,-0.342864990234375,0.3572845458984375,-0.8127288818359375
1780625762937006800,2.9610068359375,-0.40948486328125,0.4745025634765625,-0.7953338623046875
1780625762947001900,2.971001953125,-0.4025421142578125,0.5218353271484375,-0.8283843994140625
1780625762956996900,2.980996826171875,-0.3283538818359375,0.52734375,-0.83660888671875
1780625762966992000,2.990991943359375,-0.2327423095703125,0.52789306640625,-0.8053131103515625
1780625762976987000,3.00098681640625,-0.193878173828125,0.5459442138671875,-0.76861572265625
1780625762986983000,3.01098291015625,-0.2119598388671875,0.5662689208984375,-0.74462890625
1780625762996978000,3.02097802734375,-0.25054931640625,0.579620361328125,-0.7669677734375
1780625763006973000,3.030972900390625,-0.2547149658203125,0.6623382568359375,-0.757781982421875
1780625763016968000,3.040968017578125,-0.2708892822265625,0.7206878662109375,-0.77398681640625
1780625763026963000,3.050962890625,-0.3043060302734375,0.7180328369140625,-0.815338134765625
1780625763036958000,3.0609580078125,-0.3502960205078125,0.7355804443359375,-0.809600830078125
1780625763046954000,3.0709541015625,-0.4428253173828125,0.7403106689453125,-0.796234130859375
1780625763056949000,3.080948974609375,-0.5793304443359375,0.7009735107421875,-0.81549072265625
1780625763066944000,3.090944091796875,-0.5548553466796875,0.518218994140625,-0.9858856201171875
1780625763076938800,3.100938720703125,-0.494415283203125,0.3859710693359375,-1.016021728515625
1780625763086933800,3.110933837890625,-0.440948486328125,0.531524658203125,-0.8807220458984375
1780625763096928800,3.1209287109375,-0.4036865234375,0.6851654052734375,-0.7895355224609375
1780625763106925000,3.130925048828125,-0.2835845947265625,0.725189208984375,-0.7303314208984375
1780625763116920000,3.140920166015625,-0.236663818359375,0.6974945068359375,-0.78704833984375
1780625763126915000,3.1509150390625,-0.1976776123046875,0.5821075439453125,-0.8692779541015625
1780625763136910000,3.16091015625,-0.150543212890625,0.4857635498046875,-0.9038238525390625
1780625763146904800,3.17090478515625,-0.164581298828125,0.465179443359375,-0.8826904296875
1780625763156899800,3.18089990234375,-0.21319580078125,0.461883544921875,-0.8234405517578125
1780625763166895900,3.190895751953125,-0.2243499755859375,0.4436798095703125,-0.7559661865234375
1780625763176891000,3.200890869140625,-0.2074737548828125,0.4728546142578125,-0.668060302734375
1780625763186886000,3.210885986328125,-0.20245361328125,0.444549560546875,-0.60223388671875
1780625763196881000,3.220880859375,-0.2153167724609375,0.3172149658203125,-0.65576171875
1780625763206876000,3.2308759765625,-0.2007904052734375,0.2144927978515625,-0.6955718994140625
1780625763216872000,3.240871826171875,-0.142791748046875,0.164886474609375,-0.706085205078125
1780625763226867000,3.250866943359375,-0.1607208251953125,0.1507568359375,-0.6920623779296875
1780625763236862000,3.260862060546875,-0.204498291015625,0.150909423828125,-0.7156982421875
1780625763246857000,3.27085693359375,-0.191131591796875,0.180084228515625,-0.7610931396484375
1780625763256852000,3.28085205078125,-0.1819000244140625,0.24981689453125,-0.7945556640625
1780625763266847000,3.290846923828125,-0.1964263916015625,0.3477020263671875,-0.812103271484375
1780625763276842800,3.3008427734375,-0.1936798095703125,0.487060546875,-0.7910919189453125
1780625763286837800,3.310837646484375,-0.174835205078125,0.6613922119140625,-0.7267303466796875
1780625763296832800,3.320832763671875,-0.23114013671875,0.7525634765625,-0.6669464111328125
1780625763306828000,3.330828125,-0.315338134765625,0.7340240478515625,-0.62872314453125
1780625763316823000,3.340822998046875,-0.3015594482421875,0.704132080078125,-0.6172637939453125
1780625763326818000,3.350818115234375,-0.2415618896484375,0.6742095947265625,-0.605682373046875
1780625763336813800,3.360813720703125,-0.1731719970703125,0.682403564453125,-0.6175079345703125
1780625763346808800,3.370808837890625,-0.1461639404296875,0.6633758544921875,-0.653717041015625
1780625763356803800,3.380803955078125,-0.193878173828125,0.5055084228515625,-0.6800384521484375
1780625763366798800,3.390798828125,-0.1476593017578125,0.4513702392578125,-0.752716064453125
1780625763376793900,3.4007939453125,-0.15509033203125,0.4347381591796875,-0.8496551513671875
1780625763386790000,3.410789794921875,-0.2145538330078125,0.4292755126953125,-0.8824005126953125
1780625763396785000,3.420784912109375,-0.3148193359375,0.5512542724609375,-0.8716583251953125
1780625763406780000,3.43077978515625,-0.3756103515625,0.625152587890625,-0.832489013671875
1780625763416775000,3.44077490234375,-0.316192626953125,0.6202850341796875,-0.7850799560546875
1780625763426770000,3.45077001953125,-0.208251953125,0.5289306640625,-0.7836761474609375
1780625763436765000,3.460764892578125,-0.130401611328125,0.44891357421875,-0.77581787109375
1780625763446761000,3.470760986328125,-0.05169677734375,0.367156982421875,-0.740814208984375
1780625763456756000,3.480755859375,-0.0537109375,0.348876953125,-0.7621002197265625
1780625763466751000,3.4907509765625,-0.08489990234375,0.401397705078125,-0.7849578857421875
1780625763476745700,3.500745849609375,-0.0051727294921875,0.3802490234375,-0.7508697509765625
1780625763486740700,3.51074072265625,-0.0115203857421875,0.351837158203125,-0.850799560546875
1780625763496735700,3.52073583984375,-0.0864105224609375,0.2616729736328125,-0.9966278076171875
1780625763506732000,3.53073193359375,-0.1572418212890625,0.1871795654296875,-1.0976104736328125
1780625763516727800,3.540727783203125,-0.2178497314453125,0.1396636962890625,-1.147247314453125
1780625763526722600,3.55072265625,-0.260833740234375,0.170196533203125,-1.1490325927734375
1780625763536717600,3.560717529296875,-0.3021697998046875,0.2166290283203125,-1.08935546875
1780625763546712600,3.570712646484375,-0.286712646484375,0.2854156494140625,-1.213470458984375
1780625763556708600,3.58070849609375,-0.3226776123046875,0.3567047119140625,-1.3453369140625
1780625763566703600,3.59070361328125,-0.34716796875,0.4283447265625,-1.500335693359375
1780625763576698600,3.60069873046875,-0.297821044921875,0.5527496337890625,-1.5193634033203125
1780625763586693600,3.610693603515625,-0.1624603271484375,0.62261962890625,-1.3235015869140625
1780625763596688400,3.6206884765625,0.0517578125,0.6733245849609375,-1.0742645263671875
1780625763606683600,3.63068359375,0.2165374755859375,0.8024139404296875,-0.7750091552734375
1780625763616679700,3.6406796875,0.263946533203125,0.8554229736328125,-0.56817626953125
1780625763626674700,3.6506748046875,0.262939453125,0.7863616943359375,-0.4857025146484375
1780625763636669700,3.660669677734375,0.21368408203125,0.7209625244140625,-0.465087890625
1780625763646664700,3.670664794921875,0.16015625,0.6544647216796875,-0.5112152099609375
1780625763656659700,3.68065966796875,0.1290435791015625,0.58477783203125,-0.5785064697265625
1780625763666655500,3.690655517578125,0.05517578125,0.5544891357421875,-0.6112213134765625
1780625763676650500,3.700650390625,0.0100555419921875,0.4946746826171875,-0.6361083984375
1780625763686645500,3.7106455078125,0.0026702880859375,0.42803955078125,-0.6722869873046875
1780625763696640800,3.720640869140625,0.0145111083984375,0.407440185546875,-0.6927642822265625
1780625763706635800,3.7306357421875,0.0498504638671875,0.3950653076171875,-0.7680511474609375
1780625763716630800,3.740630859375,0.082794189453125,0.386016845703125,-0.84161376953125
1780625763726626600,3.75062646484375,0.15374755859375,0.43218994140625,-0.82177734375
1780625763736621600,3.76062158203125,0.2240447998046875,0.4773101806640625,-0.9131622314453125
1780625763746616600,3.770616455078125,0.121185302734375,0.4041900634765625,-1.037872314453125
1780625763756611600,3.780611572265625,0.0951385498046875,0.3133697509765625,-1.0831298828125
1780625763766606600,3.790606689453125,0.1364898681640625,0.33355712890625,-1.1006011962890625
1780625763776601600,3.8006015625,0.1759033203125,0.4125823974609375,-1.06329345703125
1780625763786597600,3.81059765625,0.2669830322265625,0.4696502685546875,-0.9899444580078125
1780625763796592600,3.820592529296875,0.3011932373046875,0.541839599609375,-0.9081268310546875
1780625763806587600,3.830587646484375,0.1204071044921875,0.611053466796875,-0.845306396484375
1780625763816582700,3.840582763671875,-0.16485595703125,0.6485443115234375,-0.8637847900390625
1780625763826577700,3.85057763671875,-0.1846923828125,0.669586181640625,-0.844970703125
1780625763836573700,3.86057373046875,-0.2359619140625,0.6248016357421875,-0.7984619140625
1780625763846568700,3.870568603515625,-0.1882476806640625,0.6924896240234375,-0.746429443359375
1780625763856563500,3.8805634765625,0.0176849365234375,0.7355499267578125,-0.7742156982421875
1780625763866558500,3.890558349609375,0.1891937255859375,0.6402435302734375,-0.8108367919921875
1780625763876553500,3.900553466796875,0.2438812255859375,0.49609375,-0.803009033203125
1780625763886548500,3.910548583984375,0.308074951171875,0.42596435546875,-0.8052978515625
1780625763896544800,3.920544677734375,0.29034423828125,0.37457275390625,-0.7996673583984375
1780625763906539800,3.930539794921875,0.271575927734375,0.30694580078125,-0.75537109375
1780625763916534800,3.94053466796875,0.2078857421875,0.24945068359375,-0.737030029296875
1780625763926529500,3.950529541015625,0.1195220947265625,0.19097900390625,-0.71783447265625
1780625763936524500,3.960524658203125,-0.002593994140625,0.294891357421875,-0.591583251953125
1780625763946520600,3.9705205078125,-0.0879058837890625,0.357452392578125,-0.4961700439453125
1780625763956515600,3.980515625,-0.148773193359375,0.4131622314453125,-0.4322357177734375
1780625763966510600,3.990510498046875,-0.1966705322265625,0.5806732177734375,-0.3838043212890625
1780625763976505600,4.000505615234375,-0.16064453125,0.69561767578125,-0.3271636962890625
1780625763986500600,4.01050048828125,-0.2087554931640625,0.7327880859375,-0.2660369873046875
1780625763996495600,4.02049560546875,0.690887451171875,0.9705963134765625,-0.3065032958984375
1780625764006491600,4.03049169921875,1.570892333984375,1.0519256591796875,-0.45343017578125
1780625764016486700,4.040486572265625,0.59417724609375,0.7440185546875,-0.5308380126953125
1780625764026481700,4.050481689453125,-0.08203125,0.69854736328125,-0.59613037109375
1780625764036476700,4.0604765625,-0.016448974609375,0.983062744140625,-0.3525543212890625
1780625764046471700,4.0704716796875,-0.0604400634765625,1.1212615966796875,-0.2439727783203125
1780625764056467500,4.080467529296875,-0.230072021484375,1.0660400390625,-0.2317352294921875
1780625764066462500,4.09046240234375,-0.312652587890625,0.9570770263671875,-0.215362548828125
1780625764076457500,4.10045751953125,-0.0727386474609375,0.9673309326171875,-0.1745147705078125
1780625764086452700,4.11045263671875,0.259979248046875,1.0653533935546875,-0.1855621337890625
1780625764096447700,4.12044775390625,0.459136962890625,1.034088134765625,-0.1977386474609375
1780625764106442800,4.13044287109375,0.4680328369140625,1.0612945556640625,-0.1716156005859375
1780625764116438500,4.1404384765625,0.436981201171875,1.102508544921875,-0.1744537353515625
1780625764126433500,4.15043359375,0.3888702392578125,1.136810302734375,-0.1884765625
1780625764136428500,4.160428466796875,0.2599945068359375,1.1765899658203125,-0.1736297607421875
1780625764146423600,4.170423583984375,0.09942626953125,1.15814208984375,-0.154998779296875
1780625764156418600,4.18041845703125,-0.0324859619140625,1.0998992919921875,-0.1337890625
1780625764166414800,4.190414794921875,-0.1074066162109375,0.9584808349609375,-0.129974365234375
1780625764176409600,4.20040966796875,0.02685546875,0.814208984375,-0.104400634765625
1780625764186404600,4.210404541015625,0.144134521484375,0.714996337890625,-0.02655029296875
1780625764196399600,4.220399658203125,0.0813446044921875,0.58172607421875,0.01483154296875
1780625764206394600,4.23039453125,0.0027618408203125,0.4219207763671875,0.028778076171875
1780625764216389600,4.2403896484375,-0.032806396484375,0.212860107421875,0.0376129150390625
1780625764226385700,4.2503857421875,0.039947509765625,0.072906494140625,0.116607666015625
1780625764236380700,4.260380615234375,0.109161376953125,0.217071533203125,0.2565460205078125
1780625764246375700,4.270375732421875,-0.0042877197265625,0.639312744140625,0.5166168212890625
1780625764256370400,4.280370361328125,-0.0166778564453125,1.07208251953125,0.6974945068359375
1780625764266365400,4.290365478515625,-0.0049896240234375,1.4078826904296875,0.8347015380859375
1780625764276360400,4.3003603515625,-0.0264129638671875,1.8037261962890625,0.95660400390625
1780625764286356700,4.310356689453125,0.0146942138671875,2.3083038330078125,0.979522705078125
1780625764296351700,4.320351806640625,0.123687744140625,2.240936279296875,0.8076019287109375
1780625764306346800,4.3303466796875,0.1394195556640625,1.8798065185546875,0.514007568359375
1780625764316341800,4.340341796875,0.1879730224609375,1.628143310546875,0.2697906494140625
1780625764326336500,4.35033642578125,0.21044921875,1.33465576171875,0.05926513671875
1780625764336332500,4.36033251953125,0.1778106689453125,1.061920166015625,-0.0759735107421875
1780625764346327600,4.37032763671875,0.1751708984375,0.9340667724609375,-0.0259857177734375
1780625764356322600,4.380322509765625,0.15057373046875,0.9708251953125,0.2306671142578125
1780625764366317600,4.390317626953125,0.1201019287109375,1.001861572265625,0.449493408203125
1780625764376312800,4.400312744140625,0.108001708984375,0.95361328125,0.5254669189453125
1780625764386308600,4.41030859375,0.1011810302734375,0.8870849609375,0.5236663818359375
1780625764396303600,4.4203037109375,0.10986328125,0.8175811767578125,0.4730224609375
1780625764406298600,4.430298583984375,0.101043701171875,0.79638671875,0.4312744140625
1780625764416293600,4.440293701171875,0.0997772216796875,0.78924560546875,0.390472412109375
1780625764426288600,4.45028857421875,0.09442138671875,0.8114166259765625,0.362335205078125
1780625764436283600,4.46028369140625,0.095428466796875,0.8506622314453125,0.34197998046875
1780625764446279400,4.470279541015625,0.108306884765625,0.874053955078125,0.3120880126953125
1780625764456274400,4.4802744140625,0.1176605224609375,0.8832244873046875,0.274627685546875
1780625764466269700,4.490269775390625,0.11749267578125,0.8818817138671875,0.2457122802734375
1780625764476264700,4.5002646484375,0.1109771728515625,0.883209228515625,0.218963623046875
1780625764486259700,4.510259765625,0.107147216796875,0.8924407958984375,0.206573486328125
1780625764496255700,4.520255859375,0.11505126953125,0.9106903076171875,0.1957244873046875
1780625764506250500,4.53025048828125,0.145263671875,0.936798095703125,0.187408447265625
1780625764516245500,4.54024560546875,0.184722900390625,0.9612274169921875,0.1819305419921875
1780625764526240500,4.550240478515625,0.2115936279296875,0.9769287109375,0.1736297607421875
1780625764536235500,4.560235595703125,0.221710205078125,0.995086669921875,0.174407958984375
1780625764546230500,4.57023046875,0.1956024169921875,1.0205078125,0.19219970703125
1780625764556226800,4.580226806640625,0.18780517578125,1.00604248046875,0.173583984375
1780625764566221800,4.590221923828125,0.158599853515625,0.9809722900390625,0.152435302734375
1780625764576216600,4.600216552734375,0.1527252197265625,0.9697723388671875,0.154876708984375
1780625764586211600,4.610211669921875,0.1690826416015625,0.9312896728515625,0.1681365966796875
1780625764596206600,4.62020654296875,0.1444854736328125,0.9132843017578125,0.2152099609375
1780625764606202600,4.63020263671875,0.1981353759765625,0.9439849853515625,0.2652740478515625
1780625764616197600,4.64019775390625,0.3026580810546875,0.964874267578125,0.3035888671875
1780625764626192600,4.650192626953125,0.3462677001953125,0.978118896484375,0.295379638671875
1780625764636187600,4.660187744140625,0.346466064453125,0.97998046875,0.2606658935546875
1780625764646182700,4.6701826171875,0.30499267578125,0.970947265625,0.25506591796875
1780625764656178700,4.6801787109375,0.2939453125,0.952239990234375,0.22930908203125
1780625764666173700,4.690173583984375,0.2631683349609375,0.944793701171875,0.222900390625
1780625764676168700,4.700168701171875,0.24603271484375,0.942291259765625,0.2329254150390625
1780625764686163700,4.710163818359375,0.2587127685546875,0.944580078125,0.2331085205078125
1780625764696158700,4.72015869140625,0.2920989990234375,0.946929931640625,0.231903076171875
1780625764706153700,4.73015380859375,0.3435211181640625,0.9452667236328125,0.22216796875
1780625764716149500,4.7401494140625,0.364593505859375,0.954132080078125,0.2129364013671875
1780625764726144500,4.75014453125,0.378173828125,0.955291748046875,0.18450927734375
1780625764736139800,4.760139892578125,0.3876495361328125,0.95037841796875,0.1576385498046875
1780625764746134800,4.770134765625,0.3730621337890625,0.94171142578125,0.1335296630859375
1780625764756129800,4.7801298828125,0.3617706298828125,0.9344329833984375,0.105804443359375
1780625764766125600,4.79012548828125,0.3696136474609375,0.9224395751953125,0.085662841796875
1780625764776120600,4.80012060546875,0.418212890625,0.90985107421875,0.063690185546875
1780625764786115600,4.810115478515625,0.4891510009765625,0.89947509765625,0.0536346435546875
1780625764796110600,4.820110595703125,0.5330963134765625,0.9037017822265625,0.057220458984375
1780625764806105600,4.830105712890625,0.513092041015625,0.9173126220703125,0.070526123046875
1780625764816100600,4.8401005859375,0.455078125,0.929229736328125,0.0760955810546875
1780625764826097000,4.850096923828125,0.4261016845703125,0.944183349609375,0.0777130126953125
1780625764836091600,4.860091552734375,0.42242431640625,0.9548797607421875,0.068817138671875
1780625764846086700,4.870086669921875,0.393646240234375,0.949310302734375,0.039398193359375
1780625764856081700,4.88008154296875,0.311187744140625,0.94091796875,0.0252227783203125
1780625764866076700,4.89007666015625,0.224761962890625,0.9396514892578125,0.0514984130859375
1780625764876072700,4.90007275390625,0.172821044921875,0.9401092529296875,0.1049652099609375
1780625764886067700,4.910067626953125,0.135040283203125,0.9261016845703125,0.1638946533203125
1780625764896062700,4.920062744140625,0.115325927734375,0.8968048095703125,0.2214508056640625
1780625764906057500,4.930057373046875,0.135223388671875,0.868988037109375,0.2779998779296875
1780625764916052500,4.940052490234375,0.2018585205078125,0.8480072021484375,0.334991455078125
1780625764926048800,4.950048828125,0.2789764404296875,0.8263397216796875,0.3747100830078125
1780625764936043800,4.960043701171875,0.307464599609375,0.7978057861328125,0.3818359375
1780625764946038800,4.970038818359375,0.300689697265625,0.7589111328125,0.3614044189453125
1780625764956033800,4.98003369140625,0.3084869384765625,0.718017578125,0.326568603515625
1780625764966028800,4.99002880859375,0.330780029296875,0.696563720703125,0.28118896484375
1780625764976023600,5.0000234375,0.345489501953125,0.706329345703125,0.2283782958984375
1780625764986019600,5.01001953125,0.3243865966796875,0.7322845458984375,0.1821136474609375
1780625764996014600,5.0200146484375,0.3261871337890625,0.7532501220703125,0.1537322998046875
1780625765006009600,5.030009521484375,0.37103271484375,0.7785186767578125,0.144378662109375
1780625765016004600,5.040004638671875,0.4253997802734375,0.80865478515625,0.154144287109375
1780625765025999600,5.04999951171875,0.4641265869140625,0.8343963623046875,0.1648712158203125
1780625765035995600,5.05999560546875,0.471527099609375,0.862945556640625,0.177215576171875
1780625765045990700,5.06999072265625,0.4625091552734375,0.8885955810546875,0.1891021728515625
1780625765055985700,5.079985595703125,0.4554443359375,0.9101715087890625,0.1932220458984375
1780625765065980700,5.089980712890625,0.445343017578125,0.9268798828125,0.1925811767578125
1780625765075975700,5.0999755859375,0.4274749755859375,0.94683837890625,0.19256591796875
1780625765085970700,5.109970703125,0.4011077880859375,0.9718017578125,0.1914215087890625
1780625765095966500,5.119966552734375,0.38970947265625,0.9936676025390625,0.198394775390625
1780625765105961500,5.12996142578125,0.4109649658203125,1.004241943359375,0.225341796875
1780625765115956500,5.13995654296875,0.472930908203125,1.0089263916015625,0.2728729248046875
1780625765125951700,5.14995166015625,0.5599212646484375,1.017578125,0.3057708740234375
1780625765135946800,5.15994677734375,0.6190185546875,1.03326416015625,0.3163299560546875
1780625765145942800,5.16994287109375,0.606048583984375,1.0458831787109375,0.2784576416015625
1780625765155937800,5.179937744140625,0.5214385986328125,1.0462646484375,0.2091827392578125
1780625765165932500,5.1899326171875,0.445037841796875,1.0256500244140625,0.1544036865234375
1780625765175927600,5.199927490234375,0.3917083740234375,0.996185302734375,0.1280975341796875
1780625765185922600,5.209922607421875,0.352630615234375,0.9880828857421875,0.1276092529296875
1780625765195918600,5.219918701171875,0.3568878173828125,0.9986114501953125,0.1483917236328125
1780625765205913600,5.22991357421875,0.3897247314453125,1.004486083984375,0.182525634765625
1780625765215908900,5.239908935546875,0.3719482421875,0.9932861328125,0.205047607421875
1780625765225903900,5.24990380859375,0.2176666259765625,0.957183837890625,0.20977783203125
1780625765235898600,5.259898681640625,0.0326995849609375,0.9096221923828125,0.2370758056640625
1780625765245893600,5.2698935546875,-0.0399017333984375,0.8892364501953125,0.288543701171875
1780625765255889700,5.2798896484375,-0.01220703125,0.9176177978515625,0.3409271240234375
1780625765265884700,5.289884765625,0.058990478515625,0.972015380859375,0.366058349609375
1780625765275879700,5.299879638671875,0.1495208740234375,1.0306549072265625,0.3755645751953125
1780625765285874700,5.309874755859375,0.186859130859375,1.0664215087890625,0.3100433349609375
1780625765295869700,5.31986962890625,0.1388092041015625,1.0727996826171875,0.1709136962890625
1780625765305865700,5.32986572265625,0.054290771484375,1.0652618408203125,0.06500244140625
1780625765315860700,5.33986083984375,-0.0264434814453125,1.0389404296875,0.016937255859375
1780625765325855700,5.349855712890625,-0.0703277587890625,1.0044403076171875,-0.000823974609375
1780625765335850800,5.359850830078125,-0.073974609375,0.976043701171875,0.0040283203125
1780625765345845800,5.369845703125,-0.0386962890625,0.9636383056640625,0.024566650390625
1780625765355840800,5.3798408203125,0.0465850830078125,0.966156005859375,0.04974365234375
1780625765365836500,5.38983642578125,0.148712158203125,0.97296142578125,0.067169189453125
1780625765375831600,5.39983154296875,0.1777801513671875,0.9824981689453125,0.0718994140625
1780625765385826600,5.40982666015625,0.1159820556640625,0.9991302490234375,0.0762939453125
1780625765395821600,5.419821533203125,0.049713134765625,1.020355224609375,0.079437255859375
1780625765405816600,5.429816650390625,0.0037689208984375,1.0290679931640625,0.071685791015625
1780625765415812600,5.4398125,-0.0240936279296875,1.0189666748046875,0.061553955078125
1780625765425807600,5.4498076171875,-0.0239715576171875,1.0029449462890625,0.050079345703125
1780625765435802600,5.459802734375,-0.005126953125,0.9904327392578125,0.036956787109375
1780625765445797600,5.469797607421875,0.022308349609375,0.989013671875,0.028411865234375
1780625765455792600,5.479792724609375,0.0475616455078125,0.9931182861328125,0.0311431884765625
1780625765465788700,5.48978857421875,0.060760498046875,0.9981231689453125,0.044891357421875
1780625765475783700,5.49978369140625,0.073516845703125,1.000213623046875,0.0750885009765625
1780625765485778700,5.50977880859375,0.0865631103515625,0.9852752685546875,0.1079864501953125
1780625765495773400,5.5197734375,0.091552734375,0.9641876220703125,0.1298370361328125
1780625765505768700,5.529768798828125,0.08349609375,0.9596099853515625,0.13885498046875
1780625765515763000,5.539762939453125,0.063323974609375,0.9707794189453125,0.1410064697265625
1780625765525759200,5.54975927734375,0.0552215576171875,0.9897918701171875,0.1392059326171875
1780625765535754200,5.559754150390625,0.067230224609375,1.0039825439453125,0.124847412109375
1780625765545749200,5.569749267578125,0.0879058837890625,1.00030517578125,0.0968017578125
1780625765555744300,5.579744140625,0.0922088623046875,0.9791107177734375,0.057098388671875
1780625765565739300,5.5897392578125,0.092254638671875,0.94775390625,0.0077362060546875
1780625765575735000,5.599735107421875,0.09039306640625,0.9285125732421875,-0.03192138671875
1780625765585730000,5.60972998046875,0.0679473876953125,0.9356231689453125,-0.0544281005859375
1780625765595725000,5.61972509765625,0.0399627685546875,0.9651641845703125,-0.059783935546875
1780625765605720000,5.629719970703125,0.0203094482421875,1.006927490234375,-0.0476837158203125
1780625765615715000,5.639715087890625,0.0190582275390625,1.03765869140625,-0.02203369140625
1780625765625711000,5.649711181640625,0.0390472412109375,1.042266845703125,0.00347900390625
1780625765635706000,5.6597060546875,0.080810546875,1.0281829833984375,0.0267486572265625
1780625765645701000,5.669701171875,0.126617431640625,0.9980010986328125,0.04364013671875
1780625765655696100,5.679696044921875,0.1419525146484375,0.9588775634765625,0.05926513671875
1780625765665691100,5.689691162109375,0.096435546875,0.948028564453125,0.077667236328125
1780625765675686100,5.69968603515625,0.0297698974609375,0.964996337890625,0.0740509033203125
1780625765685682200,5.70968212890625,-0.0069427490234375,1.010040283203125,0.059814453125
1780625765695677000,5.719677001953125,-0.0200653076171875,1.0597381591796875,0.06689453125
1780625765705672000,5.729671875,-0.032684326171875,1.0890045166015625,0.09100341796875
1780625765715667000,5.7396669921875,-0.0400848388671875,1.0933990478515625,0.113616943359375
1780625765725662200,5.749662109375,-0.029937744140625,1.07257080078125,0.1241607666015625
1780625765735658200,5.759658203125,-0.0027618408203125,1.032501220703125,0.1244049072265625
1780625765745653200,5.7696533203125,0.026123046875,0.9776458740234375,0.129669189453125
1780625765755648300,5.779648193359375,0.067901611328125,0.9352569580078125,0.1552581787109375
1780625765765643000,5.78964306640625,0.1282196044921875,0.918853759765625,0.178863525390625
1780625765775638000,5.799637939453125,0.13604736328125,0.9244537353515625,0.1855926513671875
1780625765785634000,5.809634033203125,0.112548828125,0.9520263671875,0.1786346435546875
1780625765795629000,5.819629150390625,0.11614990234375,0.986663818359375,0.1491851806640625
1780625765805624000,5.8296240234375,0.090118408203125,1.020904541015625,0.0958404541015625
1780625765815619300,5.839619384765625,0.023590087890625,1.01922607421875,0.04791259765625
1780625765825614300,5.8496142578125,-0.0423583984375,0.9629974365234375,0.028228759765625
1780625765835609000,5.859609130859375,-0.086273193359375,0.9129180908203125,0.0441741943359375
1780625765845605000,5.869605224609375,-0.085235595703125,0.8683013916015625,0.0644683837890625
1780625765855600000,5.87960009765625,-0.036529541015625,0.8601531982421875,0.1011505126953125
1780625765865595100,5.88959521484375,0.0481719970703125,0.894287109375,0.1299896240234375
1780625765875590100,5.899590087890625,0.167083740234375,0.943115234375,0.1407623291015625
1780625765885585200,5.909585205078125,0.3094024658203125,0.998870849609375,0.1202239990234375
1780625765895581000,5.919580810546875,0.403900146484375,1.04864501953125,0.068084716796875
1780625765905576200,5.929576171875,0.4077301025390625,1.079132080078125,0.006561279296875
1780625765915571200,5.9395712890625,0.302398681640625,1.0765380859375,-0.04364013671875
1780625765925566200,5.949566162109375,0.173248291015625,1.056243896484375,-0.090179443359375
1780625765935561200,5.959561279296875,0.0940399169921875,1.0405120849609375,-0.10028076171875
1780625765945557000,5.969556884765625,0.0730133056640625,1.0340118408203125,-0.0918426513671875
1780625765955552000,5.979552001953125,0.070709228515625,1.0260772705078125,-0.0409088134765625
1780625765965547000,5.989547119140625,0.1025848388671875,1.0091552734375,0.03875732421875
1780625765975542000,5.9995419921875,0.15380859375,0.9705352783203125,0.107879638671875
1780625765985537000,6.009537109375,0.201324462890625,0.9115447998046875,0.1280975341796875
1780625765995532000,6.019531982421875,0.251708984375,0.85888671875,0.1189117431640625
1780625766005528300,6.0295283203125,0.28271484375,0.8389892578125,0.09100341796875
1780625766015523000,6.039523193359375,0.28729248046875,0.83367919921875,0.0587615966796875
1780625766025518000,6.04951806640625,0.2684173583984375,0.8591766357421875,0.052459716796875
1780625766035513000,6.05951318359375,0.2578125,0.938507080078125,0.0729217529296875
1780625766045508000,6.069508056640625,0.2825927734375,1.0328826904296875,0.0763702392578125
1780625766055504100,6.079504150390625,0.316009521484375,1.11590576171875,0.0609130859375
1780625766065499100,6.0894990234375,0.298431396484375,1.161102294921875,0.0359344482421875
1780625766075494100,6.099494140625,0.22589111328125,1.1568145751953125,0.0115814208984375
1780625766085489200,6.1094892578125,0.1923675537109375,1.092071533203125,-0.0118255615234375
1780625766095484000,6.11948388671875,0.22906494140625,1.00653076171875,-0.0135955810546875
1780625766105479000,6.12947900390625,0.2641754150390625,0.9278564453125,-0.0062103271484375
1780625766115475200,6.13947509765625,0.2459564208984375,0.87969970703125,0.030517578125
1780625766125470200,6.14947021484375,0.1995849609375,0.9109344482421875,0.119354248046875
1780625766135465200,6.15946533203125,0.1690673828125,0.9655303955078125,0.1842193603515625
1780625766145460200,6.169460205078125,0.11419677734375,0.9630584716796875,0.1928863525390625
1780625766155455200,6.179455322265625,0.0636444091796875,0.9243316650390625,0.1776275634765625
1780625766165451000,6.189450927734375,0.032012939453125,0.8909149169921875,0.1621246337890625
1780625766175446000,6.199446044921875,0.01263427734375,0.8788909912109375,0.1584930419921875
1780625766185441000,6.20944091796875,0.0282745361328125,0.8893890380859375,0.156982421875
1780625766195436000,6.21943603515625,0.1050567626953125,0.9137115478515625,0.140838623046875
1780625766205431300,6.229431396484375,0.1839752197265625,0.9412078857421875,0.1146087646484375
1780625766215427000,6.239427001953125,0.2551116943359375,0.9584503173828125,0.0686187744140625
1780625766225422000,6.249422119140625,0.3148193359375,0.9721832275390625,0.01654052734375
1780625766235417000,6.2594169921875,0.3607177734375,0.9761505126953125,-0.0145111083984375
1780625766245412000,6.269412109375,0.4026031494140625,0.9779052734375,-0.0285797119140625
1780625766255407000,6.279406982421875,0.404022216796875,0.975067138671875,-0.0199127197265625
1780625766265402000,6.289402099609375,0.36724853515625,0.96728515625,0.001922607421875
1780625766275398000,6.29939794921875,0.300262451171875,0.9678802490234375,0.035919189453125
1780625766285393200,6.30939306640625,0.2241668701171875,0.98687744140625,0.0862884521484375
1780625766295388200,6.31938818359375,0.177459716796875,1.0018768310546875,0.1218109130859375
1780625766305383200,6.329383056640625,0.1828460693359375,0.997222900390625,0.102020263671875
1780625766315378200,6.339378173828125,0.17132568359375,0.969512939453125,0.0435943603515625
1780625766325374200,6.349374267578125,0.1488189697265625,0.929168701171875,0.014129638671875
1780625766335369200,6.359369140625,0.2323760986328125,0.8819122314453125,0.0050048828125
1780625766345364000,6.369364013671875,0.3609771728515625,0.8450164794921875,-0.0205841064453125
1780625766355359000,6.37935888671875,0.435760498046875,0.84228515625,-0.055206298828125
1780625766365354000,6.38935400390625,0.4423675537109375,0.894622802734375,-0.0698699951171875
1780625766375350300,6.399350341796875,0.422821044921875,0.9806976318359375,-0.058990478515625
1780625766385345300,6.40934521484375,0.3866729736328125,1.0583343505859375,-0.0646820068359375
1780625766395340300,6.41934033203125,0.28955078125,1.0994720458984375,-0.08221435546875
1780625766405335300,6.429335205078125,0.15740966796875,1.099945068359375,-0.0884857177734375
1780625766415330000,6.439330078125,0.1098175048828125,1.0687255859375,-0.06964111328125
1780625766425326000,6.449326171875,0.1791534423828125,1.014312744140625,-0.01416015625
1780625766435321000,6.459321044921875,0.239227294921875,0.9594573974609375,0.054168701171875
1780625766445316000,6.469316162109375,0.244476318359375,0.91259765625,0.0983734130859375
1780625766455311000,6.47931103515625,0.261474609375,0.886688232421875,0.126373291015625
1780625766465306000,6.48930615234375,0.317138671875,0.909820556640625,0.13494873046875
1780625766475301000,6.499301025390625,0.3392181396484375,0.9804229736328125,0.1008453369140625
1780625766485297200,6.509297119140625,0.32061767578125,1.03704833984375,0.052734375
1780625766495292200,6.519292236328125,0.302032470703125,1.0502166748046875,0.0302276611328125
1780625766505287200,6.529287109375,0.28704833984375,1.0338134765625,0.042724609375
1780625766515282200,6.5392822265625,0.2825164794921875,0.9918060302734375,0.06390380859375
1780625766525277200,6.549277099609375,0.2783355712890625,0.9476470947265625,0.0681915283203125
1780625766535273000,6.55927294921875,0.248565673828125,0.9236602783203125,0.0477142333984375
1780625766545268000,6.56926806640625,0.1885223388671875,0.922882080078125,0.0096893310546875
1780625766555263000,6.579262939453125,0.1431884765625,0.9452972412109375,-0.022064208984375
1780625766565258000,6.589258056640625,0.136138916015625,0.97930908203125,-0.0347442626953125
1780625766575253000,6.5992529296875,0.13702392578125,1.0039825439453125,-0.017242431640625
1780625766585248300,6.609248291015625,0.1312408447265625,1.0112762451171875,0.0355377197265625
1780625766595244300,6.619244384765625,0.16253662109375,1.0183563232421875,0.1054229736328125
1780625766605239000,6.629239013671875,0.2145233154296875,1.0281219482421875,0.14324951171875
1780625766615234000,6.639234130859375,0.2467498779296875,1.0308074951171875,0.15692138671875
1780625766625229000,6.64922900390625,0.2336883544921875,1.01422119140625,0.160919189453125
1780625766635224000,6.65922412109375,0.2099609375,0.9746246337890625,0.159271240234375
1780625766645220000,6.66922021484375,0.1922149658203125,0.9290313720703125,0.1576080322265625
1780625766655215000,6.679215087890625,0.1900787353515625,0.8962249755859375,0.1570892333984375
1780625766665210000,6.689210205078125,0.213043212890625,0.8922119140625,0.1569976806640625
1780625766675205000,6.699205078125,0.2403717041015625,0.9206695556640625,0.1565704345703125
1780625766685200100,6.7092001953125,0.2596435546875,0.9599761962890625,0.141937255859375
1780625766695196200,6.719196044921875,0.2656097412109375,0.997314453125,0.10516357421875
1780625766705191200,6.729191162109375,0.2532958984375,1.0180816650390625,0.0459136962890625
1780625766715186200,6.739186279296875,0.2223358154296875,1.0226898193359375,-0.006439208984375
1780625766725181200,6.74918115234375,0.1791229248046875,1.0107879638671875,-0.039703369140625
1780625766735176200,6.75917626953125,0.134368896484375,0.986602783203125,-0.0497894287109375
1780625766745172000,6.769171875,0.126556396484375,0.959869384765625,-0.0384979248046875
1780625766755167000,6.7791669921875,0.14520263671875,0.94219970703125,-0.0152130126953125
1780625766765162200,6.789162353515625,0.16668701171875,0.940765380859375,0.014892578125
1780625766775157200,6.7991572265625,0.17889404296875,0.9568939208984375,0.0357666015625
1780625766785152300,6.80915234375,0.1855621337890625,0.982269287109375,0.0482330322265625
1780625766795147300,6.819147216796875,0.2027130126953125,1.005218505859375,0.0612030029296875
1780625766805143000,6.82914306640625,0.2246246337890625,1.0092315673828125,0.0714874267578125
1780625766815138000,6.839137939453125,0.2308197021484375,0.9931640625,0.08074951171875
1780625766825133000,6.849133056640625,0.2301177978515625,0.9654998779296875,0.082672119140625
1780625766835128000,6.859128173828125,0.225677490234375,0.9378509521484375,0.086700439453125
1780625766845123000,6.869123046875,0.22564697265625,0.9200439453125,0.0955963134765625
1780625766855119000,6.879119140625,0.2380218505859375,0.9202423095703125,0.1099090576171875
1780625766865114000,6.889114013671875,0.252899169921875,0.92584228515625,0.1329498291015625
1780625766875109000,6.899109130859375,0.2642974853515625,0.928802490234375,0.1517181396484375
1780625766885104000,6.909104248046875,0.259185791015625,0.9176177978515625,0.1624298095703125
1780625766895099100,6.91909912109375,0.265533447265625,0.9077911376953125,0.170135498046875
1780625766905095200,6.92909521484375,0.292938232421875,0.9087066650390625,0.177825927734375
1780625766915090200,6.939090087890625,0.3194732666015625,0.9235992431640625,0.171417236328125
1780625766925085200,6.949085205078125,0.3329925537109375,0.9509124755859375,0.152191162109375
1780625766935080000,6.959079833984375,0.3378753662109375,0.9840087890625,0.128692626953125
1780625766945075000,6.969074951171875,0.3340606689453125,1.003509521484375,0.0989837646484375
1780625766955070000,6.979070068359375,0.3182220458984375,0.996307373046875,0.0727996826171875
1780625766965066200,6.989066162109375,0.2933502197265625,0.96197509765625,0.0514068603515625
1780625766975061200,6.999061279296875,0.2825927734375,0.9174041748046875,0.039459228515625
1780625766985056300,7.00905615234375,0.29193115234375,0.875152587890625,0.032501220703125
1780625766995051300,7.01905126953125,0.29833984375,0.8520050048828125,0.02618408203125
1780625767005046000,7.0290458984375,0.284423828125,0.8592987060546875,0.0418243408203125
1780625767015042000,7.0390419921875,0.28643798828125,0.894256591796875,0.08349609375
1780625767025037000,7.049037109375,0.3133087158203125,0.93902587890625,0.125091552734375
1780625767035032000,7.059031982421875,0.3787384033203125,0.9738006591796875,0.1498565673828125
1780625767045027000,7.069027099609375,0.4345550537109375,0.9846954345703125,0.1444549560546875
1780625767055022000,7.07902197265625,0.4329071044921875,0.97198486328125,0.13177490234375
1780625767065018000,7.08901806640625,0.3706512451171875,0.93157958984375,0.121185302734375
1780625767075013000,7.09901318359375,0.311737060546875,0.87506103515625,0.1092071533203125
1780625767085008100,7.109008056640625,0.3141326904296875,0.823333740234375,0.084503173828125
1780625767095003100,7.119003173828125,0.3357086181640625,0.7982025146484375,0.06298828125
1780625767104998100,7.128998046875,0.332672119140625,0.80767822265625,0.0724639892578125
1780625767114994200,7.138994140625,0.3294677734375,0.851348876953125,0.114166259765625
1780625767124989000,7.148989013671875,0.349456787109375,0.9242706298828125,0.167572021484375
1780625767134984000,7.15898388671875,0.3984222412109375,0.9954986572265625,0.207611083984375
1780625767144979000,7.16897900390625,0.4400482177734375,1.0357513427734375,0.220184326171875
1780625767154974200,7.17897412109375,0.449310302734375,1.0312652587890625,0.2061004638671875
1780625767164969200,7.18896923828125,0.41754150390625,0.98553466796875,0.17730712890625
1780625767174965200,7.19896533203125,0.3646240234375,0.9187469482421875,0.165191650390625
1780625767184960000,7.2089599609375,0.3632965087890625,0.8615264892578125,0.1814117431640625
1780625767194955000,7.218955078125,0.4082183837890625,0.8306121826171875,0.2095947265625
1780625767204950000,7.228949951171875,0.4542388916015625,0.82513427734375,0.225738525390625
1780625767214945000,7.238945068359375,0.482818603515625,0.836517333984375,0.2278594970703125
1780625767224941000,7.248941162109375,0.4672088623046875,0.864654541015625,0.2218017578125
1780625767234936300,7.258936279296875,0.4231109619140625,0.89117431640625,0.2210845947265625
1780625767244931300,7.268931396484375,0.403900146484375,0.8994598388671875,0.2180938720703125
1780625767254926000,7.278926025390625,0.4174652099609375,0.891571044921875,0.2017974853515625
1780625767264921000,7.288921142578125,0.462371826171875,0.8741302490234375,0.169677734375
1780625767274917000,7.298917236328125,0.5089569091796875,0.8578338623046875,0.129791259765625
1780625767284912000,7.308912109375,0.53424072265625,0.8495941162109375,0.092193603515625
1780625767294907100,7.3189072265625,0.5416717529296875,0.847381591796875,0.064117431640625
1780625767304902100,7.328902099609375,0.541534423828125,0.851593017578125,0.053558349609375
1780625767314897200,7.338897216796875,0.53515625,0.860992431640625,0.0479888916015625
1780625767324892200,7.34889208984375,0.5482940673828125,0.87445068359375,0.0525054931640625
1780625767334888200,7.35888818359375,0.5830535888671875,0.8903961181640625,0.0670623779296875
1780625767344883200,7.36888330078125,0.6330413818359375,0.90374755859375,0.0950927734375
1780625767354878200,7.378878173828125,0.6847076416015625,0.9091339111328125,0.1319732666015625
1780625767364873200,7.388873291015625,0.7357025146484375,0.8968505859375,0.1639862060546875
1780625767374868200,7.3988681640625,0.753265380859375,0.8731231689453125,0.1916961669921875
1780625767384864000,7.408864013671875,0.7160491943359375,0.841827392578125,0.221435546875
1780625767394859000,7.41885888671875,0.6620330810546875,0.8009796142578125,0.235870361328125
1780625767404854000,7.42885400390625,0.63641357421875,0.7808685302734375,0.2264404296875
1780625767414849000,7.43884912109375,0.6145782470703125,0.7991943359375,0.1450042724609375
1780625767424844000,7.448843994140625,0.62396240234375,0.7992706298828125,-0.0416717529296875
1780625767434840300,7.45884033203125,0.6267547607421875,0.7484130859375,-0.2296142578125
1780625767444835000,7.4688349609375,0.5042877197265625,0.7255096435546875,-0.313140869140625
1780625767454830000,7.478830078125,0.2988128662109375,0.728546142578125,-0.3165740966796875
1780625767464825000,7.4888251953125,0.18328857421875,0.7445220947265625,-0.2275390625
1780625767474820000,7.498820068359375,0.281280517578125,0.7645416259765625,-0.061920166015625
1780625767484816100,7.508816162109375,0.43670654296875,0.7683258056640625,0.123748779296875
1780625767494811100,7.51881103515625,0.51361083984375,0.752044677734375,0.281829833984375
1780625767504806100,7.52880615234375,0.5008544921875,0.70709228515625,0.3758697509765625
1780625767514801200,7.53880126953125,0.3852691650390625,0.6394500732421875,0.3930511474609375
1780625767524796200,7.548796142578125,0.258270263671875,0.5820465087890625,0.375274658203125
1780625767534792200,7.558792236328125,0.1412811279296875,0.5695953369140625,0.3686065673828125
1780625767544787200,7.568787109375,0.0867919921875,0.6075439453125,0.408233642578125
1780625767554782200,7.5787822265625,0.111572265625,0.689178466796875,0.466949462890625
1780625767564777200,7.588777099609375,0.1927032470703125,0.796173095703125,0.5027923583984375
1780625767574772500,7.5987724609375,0.3267669677734375,0.8969268798828125,0.4649810791015625
1780625767584767200,7.608767333984375,0.5217132568359375,0.97454833984375,0.2892608642578125
1780625767594763300,7.61876318359375,0.826690673828125,1.067108154296875,0.05731201171875
1780625767604758300,7.62875830078125,1.18328857421875,1.27423095703125,-0.0595245361328125
1780625767614753300,7.638753173828125,1.3763275146484375,1.5797271728515625,-0.0622406005859375
1780625767624748300,7.648748291015625,1.2148284912109375,1.828521728515625,-0.066864013671875
1780625767634743300,7.658743408203125,0.7017669677734375,1.7951812744140625,-0.1079864501953125
1780625767644739000,7.668739013671875,0.1917266845703125,1.38189697265625,-0.1077880859375
1780625767654734000,7.678734130859375,0.0692138671875,0.884307861328125,-0.0288238525390625
1780625767664729300,7.688729248046875,0.14227294921875,0.5379638671875,0.0851287841796875
1780625767674724400,7.698724365234375,0.2027587890625,0.3495635986328125,0.132537841796875
1780625767684719400,7.70871923828125,0.16668701171875,0.3018035888671875,0.130523681640625
1780625767694715100,7.718715087890625,0.151947021484375,0.3954925537109375,0.1552581787109375
1780625767704710100,7.728710205078125,0.162139892578125,0.6163787841796875,0.1349334716796875
1780625767714705200,7.738705078125,0.13299560546875,0.8863677978515625,-0.00909423828125
1780625767724700200,7.7487001953125,0.1489715576171875,1.0699005126953125,-0.1145477294921875
1780625767734695200,7.758695068359375,0.1971588134765625,1.1820068359375,-0.14569091796875
1780625767744691200,7.768691162109375,0.25274658203125,1.24273681640625,-0.126190185546875
1780625767754686500,7.7786865234375,0.356781005859375,1.2587127685546875,-0.054901123046875
1780625767764681200,7.78868115234375,0.5024261474609375,1.2200469970703125,0.07427978515625
1780625767774676200,7.79867626953125,0.5888671875,1.103729248046875,0.22601318359375
1780625767784671200,7.808671142578125,0.521514892578125,0.9431915283203125,0.323394775390625
1780625767794666200,7.818666259765625,0.3336181640625,0.8341064453125,0.37310791015625
1780625767804662300,7.828662353515625,0.16094970703125,0.78619384765625,0.3968658447265625
1780625767814657300,7.8386572265625,0.091766357421875,0.7755279541015625,0.364227294921875
1780625767824652300,7.84865234375,0.1052093505859375,0.7917022705078125,0.2795562744140625
1780625767834647300,7.858647216796875,0.138336181640625,0.82916259765625,0.1776123046875
1780625767844642000,7.86864208984375,0.14215087890625,0.8869476318359375,0.0496978759765625
1780625767854638300,7.878638427734375,0.1160430908203125,0.9484710693359375,-0.0489654541015625
1780625767864633300,7.88863330078125,0.1022796630859375,0.9828338623046875,-0.0867767333984375
1780625767874628400,7.89862841796875,0.111846923828125,1.0042877197265625,-0.0855865478515625
1780625767884623400,7.908623291015625,0.1499481201171875,1.0105438232421875,-0.055633544921875
1780625767894618400,7.918618408203125,0.2218780517578125,0.9993743896484375,-0.0180206298828125
1780625767904614100,7.9286142578125,0.2637481689453125,0.988128662109375,0.0100860595703125
1780625767914609200,7.938609130859375,0.225982666015625,0.9910430908203125,0.0339813232421875
1780625767924604200,7.948604248046875,0.149993896484375,1.0084686279296875,0.0713653564453125
1780625767934599200,7.95859912109375,0.06024169921875,1.027862548828125,0.1369781494140625
1780625767944594200,7.96859423828125,-0.0259857177734375,1.0372161865234375,0.218170166015625
1780625767954590200,7.978590087890625,-0.0595703125,1.007568359375,0.2739105224609375
1780625767964585200,7.988585205078125,0.0213775634765625,0.934173583984375,0.304168701171875
1780625767974580200,7.998580322265625,0.2662200927734375,0.880035400390625,0.3424224853515625
1780625767984575200,8.0085751953125,0.4989776611328125,0.8654632568359375,0.3329315185546875
1780625767994570200,8.0185703125,0.4999847412109375,0.9060821533203125,0.1717071533203125
1780625768004566300,8.028566162109374,0.280364990234375,0.9890594482421875,-0.0538330078125
1780625768014561300,8.038561279296875,0.0770721435546875,1.0515899658203125,-0.1844024658203125
1780625768024556000,8.04855615234375,-0.0162353515625,1.0738372802734375,-0.231231689453125
1780625768034551000,8.058551025390624,0.0113525390625,1.045928955078125,-0.22735595703125
1780625768044546000,8.068546142578125,0.1129302978515625,0.9821624755859375,-0.2061004638671875
1780625768054542300,8.078542236328126,0.253875732421875,0.9240875244140625,-0.1812591552734375
1780625768064537300,8.088537353515624,0.3909454345703125,0.8968658447265625,-0.148162841796875
1780625768074532400,8.098532470703125,0.487091064453125,0.9108428955078125,-0.0938568115234375
1780625768084527400,8.10852734375,0.5282440185546875,0.9469757080078125,-0.0256500244140625
1780625768094522000,8.118522216796874,0.5043487548828125,0.969970703125,0.0212249755859375
1780625768104517000,8.12851708984375,0.4697723388671875,0.968170166015625,0.020294189453125
1780625768114513200,8.13851318359375,0.4484405517578125,0.9524383544921875,-0.0130157470703125
1780625768124508200,8.148508056640624,0.364990234375,0.94635009765625,-0.0241851806640625
1780625768134503200,8.158503173828125,0.2600555419921875,0.946807861328125,-0.014251708984375
1780625768144498400,8.16849853515625,0.1611785888671875,0.9495849609375,-0.002838134765625
1780625768154493400,8.178493408203124,0.1164398193359375,0.9525604248046875,-0.014556884765625
1780625768164489200,8.1884892578125,0.1072845458984375,0.955810546875,-0.048065185546875
1780625768174484200,8.198484130859375,0.07720947265625,0.95458984375,-0.0615692138671875
1780625768184479200,8.208479248046874,0.044647216796875,0.953460693359375,-0.02960205078125
1780625768194474200,8.21847412109375,0.0955047607421875,0.9427032470703125,0.0136260986328125
1780625768204469200,8.22846923828125,0.255584716796875,0.9308319091796875,0.0517120361328125
1780625768214465000,8.238465087890624,0.4078216552734375,0.9398956298828125,0.0785369873046875
1780625768224460000,8.2484599609375,0.4203338623046875,0.9669647216796875,0.110565185546875
1780625768234455300,8.258455322265625,0.3549041748046875,0.9972381591796875,0.14892578125
1780625768244450300,8.2684501953125,0.28411865234375,0.999298095703125,0.1644287109375
1780625768254445300,8.2784453125,0.21319580078125,0.992462158203125,0.1850433349609375
1780625768264441300,8.28844140625,0.1360626220703125,0.9952392578125,0.2333984375
1780625768274436400,8.298436279296874,0.0343475341796875,0.988616943359375,0.2712249755859375
1780625768284431000,8.30843115234375,0.00439453125,0.954620361328125,0.267364501953125
1780625768294426000,8.318426025390625,0.126861572265625,0.93377685546875,0.2061767578125
1780625768304421000,8.328421142578126,0.27313232421875,0.9561767578125,0.1098480224609375
1780625768314416000,8.338416015625,0.2873687744140625,0.9897918701171875,0.006317138671875
1780625768324412400,8.348412353515625,0.1471099853515625,1.01983642578125,-0.0656890869140625
1780625768334407400,8.358407470703124,0.0451812744140625,1.033721923828125,-0.072967529296875
1780625768344402400,8.36840234375,0.0648956298828125,1.0133819580078125,-0.023193359375
1780625768354397200,8.378397216796875,0.17974853515625,0.9802398681640625,0.0372161865234375
1780625768364392200,8.38839208984375,0.3506927490234375,0.9457550048828125,0.0934600830078125
1780625768374388200,8.39838818359375,0.4280548095703125,0.9188232421875,0.125091552734375
1780625768384383200,8.40838330078125,0.4358367919921875,0.918548583984375,0.10784912109375
1780625768394378200,8.418378173828126,0.3961029052734375,0.9493865966796875,0.0498809814453125
1780625768404373200,8.428373291015625,0.332244873046875,0.9882965087890625,-0.0217132568359375
1780625768414368300,8.4383681640625,0.2758941650390625,1.019744873046875,-0.0818939208984375
1780625768424364300,8.4483642578125,0.2248687744140625,1.0248870849609375,-0.1189422607421875
1780625768434359300,8.458359375,0.2205047607421875,1.000274658203125,-0.146026611328125
1780625768444354300,8.468354248046875,0.2063446044921875,0.9587554931640625,-0.1748504638671875
1780625768454349300,8.478349365234376,0.1946258544921875,0.9188995361328125,-0.1836395263671875
1780625768464344300,8.48834423828125,0.234375,0.8922576904296875,-0.174774169921875
1780625768474340000,8.498340087890625,0.2906494140625,0.9018096923828125,-0.131256103515625
1780625768484335000,8.508335205078126,0.3209381103515625,0.9391021728515625,-0.0696258544921875
1780625768494330000,8.518330078125,0.3638153076171875,0.97760009765625,-0.0452880859375
1780625768504325000,8.5283251953125,0.3733367919921875,1.0031890869140625,-0.0411376953125
1780625768514320100,8.538320068359376,0.3473663330078125,1.0029144287109375,-0.015472412109375
1780625768524316400,8.54831640625,0.351409912109375,0.9716339111328125,0.00982666015625
1780625768534311200,8.558311279296875,0.38507080078125,0.929718017578125,0.0003814697265625
1780625768544306200,8.56830615234375,0.3756256103515625,0.914398193359375,-0.0386810302734375
1780625768554301200,8.57830126953125,0.3207550048828125,0.9194488525390625,-0.0812835693359375
1780625768564296200,8.588296142578125,0.265716552734375,0.932586669921875,-0.10443115234375
1780625768574292200,8.598292236328126,0.224151611328125,0.95220947265625,-0.09613037109375
1780625768584287200,8.608287353515625,0.2066650390625,0.967926025390625,-0.0672760009765625
1780625768594282500,8.618282470703125,0.216583251953125,0.974822998046875,-0.0233917236328125
1780625768604277200,8.62827734375,0.2599639892578125,0.9873809814453125,0.0149688720703125
1780625768614272300,8.638272216796874,0.295013427734375,0.995697021484375,0.0258636474609375
1780625768624268300,8.648268310546875,0.2869873046875,0.9830322265625,0.0103912353515625
1780625768634263300,8.65826318359375,0.2409515380859375,0.9712371826171875,-0.0106964111328125
1780625768644258300,8.66825830078125,0.1764984130859375,0.9777374267578125,-0.0125579833984375
1780625768654253300,8.67825341796875,0.1377716064453125,0.98809814453125,0.0007781982421875
1780625768664248300,8.688248291015626,0.1379547119140625,0.9914398193359375,0.0254974365234375
1780625768674244400,8.698244384765625,0.143402099609375,0.9788360595703125,0.0363006591796875
1780625768684239400,8.7082392578125,0.146636962890625,0.9498138427734375,0.026123046875
1780625768694234400,8.718234375,0.1603546142578125,0.9231719970703125,0.0208892822265625
1780625768704229400,8.7282294921875,0.1995849609375,0.919342041015625,0.021942138671875
1780625768714224400,8.738224365234375,0.2528839111328125,0.9457855224609375,0.0293121337890625
1780625768724219400,8.748219482421876,0.3029632568359375,1.001495361328125,0.039520263671875
1780625768734215200,8.758215087890624,0.3299560546875,1.0533294677734375,0.053497314453125
1780625768744210200,8.768210205078125,0.3170318603515625,1.085540771484375,0.06475830078125
1780625768754205200,8.778205078125,0.2708282470703125,1.075103759765625,0.0508575439453125
1780625768764200200,8.7882001953125,0.2483978271484375,1.0179595947265625,0.0290985107421875
1780625768774195200,8.7981953125,0.248779296875,0.95361328125,0.0088958740234375
1780625768784191500,8.80819140625,0.2335052490234375,0.917236328125,-0.0102386474609375
1780625768794186200,8.818186279296874,0.1774139404296875,0.92535400390625,-0.0356292724609375
1780625768804181200,8.82818115234375,0.0911407470703125,0.9619903564453125,-0.0809173583984375
1780625768814176300,8.83817626953125,0.0154571533203125,0.994293212890625,-0.141387939453125
1780625768824171300,8.848171142578124,-0.0037994384765625,0.9974517822265625,-0.211578369140625
1780625768834167300,8.858167236328125,0.0252227783203125,0.97808837890625,-0.2734527587890625
1780625768844162300,8.868162353515626,0.105255126953125,0.9546661376953125,-0.294189453125
1780625768854157300,8.8781572265625,0.2137908935546875,0.934173583984375,-0.27301025390625
1780625768864152300,8.88815234375,0.2847442626953125,0.9317474365234375,-0.2231292724609375
1780625768874147000,8.89814697265625,0.305908203125,0.94561767578125,-0.1566009521484375
1780625768884143400,8.908143310546874,0.2924346923828125,0.972900390625,-0.090667724609375
1780625768894138400,8.918138427734375,0.2817230224609375,1.0013885498046875,-0.040618896484375
1780625768904133400,8.92813330078125,0.2716217041015625,1.016082763671875,-0.0250396728515625
1780625768914128400,8.93812841796875,0.2720184326171875,1.0164031982421875,-0.03240966796875
1780625768924123400,8.948123291015625,0.253326416015625,0.9950103759765625,-0.0710906982421875
1780625768934119200,8.958119140625,0.2098846435546875,0.9731903076171875,-0.1170196533203125
1780625768944114200,8.9681142578125,0.195587158203125,0.9605560302734375,-0.1544952392578125
1780625768954109200,8.978109130859375,0.217071533203125,0.9499969482421875,-0.173065185546875
1780625768964104200,8.988104248046875,0.1958770751953125,0.9453582763671875,-0.185821533203125
1780625768974099500,8.998099365234374,0.167144775390625,0.9476470947265625,-0.185272216796875
1780625768984095200,9.00809521484375,0.14898681640625,0.959228515625,-0.1649322509765625
1780625768994090200,9.01809033203125,0.1468048095703125,0.978424072265625,-0.123809814453125
1780625769004085200,9.028085205078124,0.1779937744140625,0.9963836669921875,-0.08563232421875
1780625769014080300,9.038080322265625,0.17034912109375,1.003082275390625,-0.0669403076171875
1780625769024075300,9.0480751953125,0.1362152099609375,0.988433837890625,-0.0525970458984375
1780625769034071300,9.0580712890625,0.1656646728515625,0.9696197509765625,-0.0399169921875
1780625769044066300,9.06806640625,0.1830902099609375,0.962890625,-0.0278472900390625
1780625769054061000,9.07806103515625,0.1538848876953125,0.955230712890625,-0.040008544921875
1780625769064056300,9.088056396484374,0.1210174560546875,0.9465179443359375,-0.0871429443359375
1780625769074051300,9.09805126953125,0.06976318359375,0.9482574462890625,-0.1560516357421875
1780625769084046300,9.10804638671875,0.0254669189453125,0.9567413330078125,-0.21832275390625
1780625769094042400,9.11804248046875,0.0108184814453125,0.9708251953125,-0.2500762939453125
1780625769104037400,9.128037353515625,0.0614013671875,0.9769439697265625,-0.2475128173828125
1780625769114032400,9.138032470703125,0.1427764892578125,0.9643096923828125,-0.2196502685546875
1780625769124027100,9.148027099609376,0.1434173583984375,0.9543914794921875,-0.185516357421875
1780625769134022100,9.158022216796875,0.1339569091796875,0.9642333984375,-0.1376190185546875
1780625769144018200,9.16801806640625,0.1764068603515625,0.999298095703125,-0.0678253173828125
1780625769154013400,9.178013427734374,0.226806640625,1.0268707275390625,0.0189971923828125
1780625769164008400,9.188008544921875,0.2181549072265625,1.036163330078125,0.0827789306640625
1780625769174003500,9.19800341796875,0.1528778076171875,1.02325439453125,0.0859222412109375
1780625769183998500,9.20799853515625,0.09442138671875,0.99114990234375,0.0475311279296875
1780625769193994200,9.217994140625,0.07647705078125,0.9590606689453125,-0.034210205078125
1780625769203989200,9.2279892578125,0.0617523193359375,0.93365478515625,-0.13494873046875
1780625769213984300,9.237984375,0.0442352294921875,0.9064483642578125,-0.2185211181640625
1780625769223979300,9.247979248046875,0.04486083984375,0.8867340087890625,-0.271759033203125
1780625769233974300,9.257974365234375,0.03533935546875,0.8901214599609375,-0.2927398681640625
1780625769243970300,9.26797021484375,0.0130767822265625,0.901702880859375,-0.2693939208984375
1780625769253965300,9.27796533203125,0.061309814453125,0.9245758056640625,-0.227325439453125
1780625769263960300,9.287960205078125,0.1740264892578125,0.9677886962890625,-0.1786041259765625
1780625769273955300,9.297955322265626,0.228607177734375,0.9958038330078125,-0.1322174072265625
1780625769283950300,9.307950439453125,0.20147705078125,0.9885711669921875,-0.1041259765625
1780625769293946400,9.3179462890625,0.1723480224609375,0.967803955078125,-0.067962646484375
1780625769303941400,9.32794140625,0.15130615234375,0.947540283203125,-0.0406341552734375
1780625769313936100,9.33793603515625,0.12603759765625,0.933441162109375,-0.040069580078125
1780625769323931100,9.34793115234375,0.1547393798828125,0.9112548828125,-0.0888519287109375
1780625769333926100,9.357926025390626,0.2015228271484375,0.8766021728515625,-0.1994781494140625
1780625769343922400,9.36792236328125,0.1959686279296875,0.8621368408203125,-0.318450927734375
1780625769353917400,9.37791748046875,0.10687255859375,0.8972930908203125,-0.367279052734375
1780625769363912400,9.387912353515626,0.0873260498046875,0.949951171875,-0.3575897216796875
1780625769373907200,9.3979072265625,0.167022705078125,0.9677734375,-0.3027191162109375
1780625769383902200,9.407902099609375,0.1542205810546875,0.9498138427734375,-0.2370452880859375
1780625769393898200,9.417898193359376,0.1052703857421875,0.9221038818359375,-0.171783447265625
1780625769403893200,9.427893310546875,0.124542236328125,0.9125518798828125,-0.1074981689453125
1780625769413888300,9.43788818359375,0.1496429443359375,0.916717529296875,-0.0597076416015625
1780625769423883300,9.44788330078125,0.1295318603515625,0.93121337890625,-0.0491180419921875
1780625769433878300,9.457878173828124,0.1268768310546875,0.9442138671875,-0.074554443359375
1780625769443874300,9.467874267578125,0.1136474609375,0.939544677734375,-0.1299591064453125
1780625769453869300,9.477869384765626,0.092193603515625,0.9077606201171875,-0.1950836181640625
1780625769463864300,9.4878642578125,0.148681640625,0.8763427734375,-0.2351226806640625
1780625769473859300,9.497859375,0.21588134765625,0.8809814453125,-0.2550811767578125
1780625769483854300,9.507854248046876,0.2771148681640625,0.92498779296875,-0.2588958740234375
1780625769493850000,9.51785009765625,0.330535888671875,0.9829559326171875,-0.26239013671875
1780625769503845000,9.52784521484375,0.299468994140625,1.023651123046875,-0.2711181640625
1780625769513840000,9.537840087890626,0.1709136962890625,1.0391845703125,-0.258819580078125
1780625769523835000,9.5478349609375,0.0621795654296875,1.003326416015625,-0.214324951171875
1780625769533830000,9.557829833984375,0.089263916015625,0.9235076904296875,-0.1554718017578125
1780625769543825000,9.567824951171875,0.1536865234375,0.8615570068359375,-0.114776611328125
1780625769553821000,9.577821044921874,0.1803741455078125,0.8687744140625,-0.137176513671875
1780625769563816000,9.58781591796875,0.1848297119140625,0.9241790771484375,-0.2158355712890625
1780625769573810700,9.597810791015625,0.1231689453125,0.967681884765625,-0.275634765625
1780625769583805700,9.6078056640625,0.1212921142578125,0.9627532958984375,-0.2854156494140625
1780625769593800700,9.61780078125,0.2259979248046875,0.9208831787109375,-0.2464141845703125
1780625769603797000,9.627796875,0.21649169921875,0.88629150390625,-0.1874847412109375
1780625769613792000,9.6377919921875,0.1746978759765625,0.89453125,-0.1192474365234375
1780625769623787000,9.647787109375,0.2488861083984375,0.9490509033203125,-0.06866455078125
1780625769633782000,9.657781982421875,0.302581787109375,1.015045166015625,-0.11083984375
1780625769643776800,9.66777685546875,0.2219390869140625,1.053253173828125,-0.2181549072265625
1780625769653772800,9.677772705078125,0.091888427734375,1.03729248046875,-0.2873382568359375
1780625769663767800,9.687767822265625,0.0420989990234375,0.9720306396484375,-0.25567626953125
1780625769673762800,9.6977626953125,-0.009674072265625,0.900543212890625,-0.123138427734375
1780625769683757800,9.7077578125,0.037628173828125,0.879669189453125,0.005523681640625
1780625769693752800,9.7177529296875,0.15435791015625,0.91168212890625,0.06597900390625
1780625769703748900,9.727748779296874,0.19354248046875,0.9849395751953125,0.01751708984375
1780625769713744000,9.737743896484375,0.176910400390625,1.0705718994140625,-0.1361541748046875
1780625769723739000,9.74773876953125,0.2251739501953125,1.1157379150390625,-0.2974853515625
1780625769733734000,9.75773388671875,0.2927398681640625,1.1075439453125,-0.40081787109375
1780625769743729000,9.76772900390625,0.2748565673828125,1.0298614501953125,-0.42205810546875
1780625769753725000,9.777724853515625,0.299652099609375,0.9171600341796875,-0.3710174560546875
1780625769763719700,9.7877197265625,0.2816619873046875,0.8269805908203125,-0.294708251953125
1780625769773714700,9.797714599609375,0.10577392578125,0.80804443359375,-0.2000732421875
1780625769783709700,9.807709716796875,0.0603790283203125,0.8067474365234375,-0.124664306640625
1780625769793705000,9.817705078125,0.2483367919921875,0.7918548583984375,-0.11419677734375
1780625769803701000,9.827700927734375,0.240692138671875,0.796112060546875,-0.187774658203125
1780625769813696000,9.837696044921875,0.1370697021484375,0.8343048095703125,-0.2892608642578125
1780625769823691000,9.84769091796875,0.0979766845703125,0.85040283203125,-0.322906494140625
1780625769833685800,9.857685791015625,0.1223602294921875,0.8470001220703125,-0.3068389892578125
1780625769843680800,9.8676806640625,0.152801513671875,0.8682403564453125,-0.2953948974609375
1780625769853676800,9.8776767578125,0.1708831787109375,0.913665771484375,-0.2669830322265625
1780625769863671800,9.887671875,0.055145263671875,0.9918365478515625,-0.2180328369140625
1780625769873666800,9.897666748046875,0.0182952880859375,1.0617523193359375,-0.18353271484375
1780625769883662000,9.907662109375,0.1811065673828125,1.0881195068359375,-0.1707763671875
1780625769893657000,9.917656982421875,0.1517333984375,1.06170654296875,-0.1817169189453125
1780625769903652900,9.92765283203125,0.111541748046875,0.9979705810546875,-0.1627655029296875
1780625769913647900,9.93764794921875,0.21258544921875,0.95635986328125,-0.114959716796875
1780625769923643000,9.947642822265625,0.20330810546875,0.9400177001953125,-0.0698699951171875
1780625769933638000,9.957637939453125,0.2750244140625,0.953338623046875,-0.0193023681640625
1780625769943633000,9.9676328125,0.2392425537109375,0.9885711669921875,0.004302978515625
1780625769953628700,9.977628662109375,0.2395477294921875,1.0260772705078125,-0.0065460205078125
1780625769963623700,9.987623779296875,0.31939697265625,1.0580291748046875,-0.0446929931640625
1780625769973619000,9.997618896484376,0.3633575439453125,1.0548248291015625,-0.0999298095703125
1780625769983614000,10.007614013671875,0.42266845703125,1.0382232666015625,-0.1462249755859375
1780625769993609000,10.01760888671875,0.2429351806640625,1.012481689453125,-0.2109527587890625
1780625770003604000,10.02760400390625,0.1160125732421875,0.9685821533203125,-0.23394775390625
1780625770013600000,10.03760009765625,0.2410888671875,0.9328155517578125,-0.194671630859375
1780625770023594800,10.0475947265625,0.2943572998046875,0.929534912109375,-0.1465301513671875
1780625770033589800,10.05758984375,0.33575439453125,0.9533843994140625,-0.1086578369140625
1780625770043584800,10.067584716796874,0.3146514892578125,0.9919281005859375,-0.10589599609375
1780625770053579800,10.077579833984375,0.190155029296875,1.00714111328125,-0.139495849609375
1780625770063576000,10.087576171875,0.110931396484375,0.9859619140625,-0.1496429443359375
1780625770073571000,10.097571044921875,0.0434417724609375,0.9676361083984375,-0.094268798828125
1780625770083565800,10.10756591796875,-0.0182037353515625,1.0002593994140625,0.00347900390625
1780625770093560800,10.117560791015626,0.0062408447265625,1.1177520751953125,0.1527862548828125
1780625770103555800,10.127555908203124,0.0628204345703125,1.2998046875,0.3544769287109375
1780625770113552000,10.1375517578125,0.236785888671875,1.50018310546875,0.5567169189453125
1780625770123547000,10.147546875,0.6009674072265625,1.6211090087890625,0.6154937744140625
1780625770133542000,10.1575419921875,0.763824462890625,1.510467529296875,0.3206939697265625
1780625770143537000,10.167536865234375,0.4914703369140625,1.3174285888671875,-0.1120758056640625
1780625770153532000,10.177531982421876,0.172882080078125,1.215301513671875,-0.4413299560546875
1780625770163528000,10.18752783203125,0.24859619140625,1.187744140625,-0.5086517333984375
1780625770173523000,10.19752294921875,0.5071258544921875,1.1973419189453125,-0.2704620361328125
1780625770183518000,10.20751806640625,0.536163330078125,1.2353363037109375,-0.0370330810546875
1780625770193513000,10.217512939453124,0.3271636962890625,1.2960968017578125,0.068328857421875
1780625770203508000,10.227508056640625,0.1955413818359375,1.370819091796875,0.1810760498046875
1780625770213503700,10.237503662109376,0.3466949462890625,1.4294586181640625,0.340972900390625
1780625770223498800,10.247498779296874,0.47137451171875,1.42340087890625,0.4215240478515625
1780625770233493800,10.25749365234375,0.3155059814453125,1.2800750732421875,0.3666229248046875
1780625770243488800,10.26748876953125,0.10394287109375,1.086395263671875,0.174713134765625
1780625770253483800,10.27748388671875,0.0642852783203125,0.9824981689453125,-0.0039215087890625
1780625770263480000,10.28747998046875,0.124267578125,1.0506439208984375,-0.01837158203125
1780625770273474800,10.297474853515626,0.271087646484375,1.1371917724609375,0.04937744140625
1780625770283469800,10.3074697265625,0.4685821533203125,1.1422271728515625,0.0991973876953125
1780625770293464800,10.31746484375,0.5754241943359375,1.099761962890625,0.091888427734375
1780625770303459800,10.3274599609375,0.616302490234375,1.0268402099609375,-0.0024261474609375
1780625770313455900,10.337455810546874,0.6219329833984375,0.931793212890625,-0.13995361328125
1780625770323451000,10.347450927734375,0.545562744140625,0.8424835205078125,-0.251068115234375
1780625770333446000,10.35744580078125,0.517181396484375,0.75555419921875,-0.3093109130859375
1780625770343441000,10.36744091796875,0.54693603515625,0.6773834228515625,-0.3319854736328125
1780625770353435600,10.377435546875,0.6119232177734375,0.6265106201171875,-0.3063812255859375
1780625770363432000,10.387431884765626,0.6834564208984375,0.6096343994140625,-0.2554473876953125
1780625770373427000,10.397427001953124,0.682159423828125,0.6460418701171875,-0.1848297119140625
1780625770383422000,10.407421875,0.5953826904296875,0.7023162841796875,-0.1363525390625
1780625770393417000,10.4174169921875,0.5103759765625,0.7566680908203125,-0.14190673828125
1780625770403412000,10.427411865234374,0.4450225830078125,0.8253326416015625,-0.149444580078125
1780625770413407700,10.43740771484375,0.3640594482421875,0.89105224609375,-0.1340789794921875
1780625770423402800,10.44740283203125,0.332305908203125,0.9750213623046875,-0.06768798828125
1780625770433397800,10.457397705078124,0.3968963623046875,1.074981689453125,0.0124969482421875
1780625770443392800,10.467392822265625,0.417449951171875,1.15655517578125,0.113677978515625
1780625770453388000,10.477387939453125,0.4109344482421875,1.194915771484375,0.1676025390625
1780625770463383800,10.4873837890625,0.5048980712890625,1.2137451171875,0.1466827392578125
1780625770473378800,10.49737890625,0.6390838623046875,1.2247161865234375,0.07012939453125
1780625770483373800,10.507373779296875,0.666961669921875,1.210845947265625,-0.044891357421875
1780625770493368800,10.517368896484374,0.6248779296875,1.1986236572265625,-0.195556640625
1780625770503363800,10.52736376953125,0.6620025634765625,1.1937713623046875,-0.3841705322265625
1780625770513358800,10.53735888671875,0.7225494384765625,1.1938934326171875,-0.5626678466796875
1780625770523355400,10.54735546875,0.7814483642578125,1.1954345703125,-0.7545013427734375
1780625770533350400,10.557350341796875,0.804718017578125,1.2045135498046875,-0.893310546875
1780625770543345400,10.567345458984375,0.7859649658203125,1.2806243896484375,-0.8975677490234375
1780625770553340400,10.57734033203125,0.8011016845703125,1.423065185546875,-0.74371337890625
1780625770563335400,10.58733544921875,0.7981414794921875,1.5372161865234375,-0.442718505859375
1780625770573331700,10.597331787109376,0.54656982421875,1.4121551513671875,-0.21539306640625
1780625770583326500,10.607326416015624,0.12091064453125,1.125396728515625,-0.1061248779296875
1780625770593321500,10.617321533203125,-0.13568115234375,0.82879638671875,-0.0163726806640625
1780625770603316500,10.62731640625,-0.214385986328125,0.5528717041015625,0.09954833984375
1780625770613311500,10.6373115234375,-0.1918487548828125,0.3650360107421875,0.244415283203125
1780625770623307500,10.6473076171875,-0.0625762939453125,0.2037353515625,0.312774658203125
1780625770633302500,10.657302490234375,-0.0419769287109375,0.07989501953125,0.3159637451171875
1780625770643297500,10.667297607421874,-0.083282470703125,-0.041290283203125,0.3013153076171875
1780625770653292500,10.67729248046875,-0.1030731201171875,-0.181488037109375,0.2852020263671875
1780625770663287300,10.687287353515625,-0.093902587890625,-0.3177642822265625,0.21331787109375
1780625770673283600,10.69728369140625,-0.0770416259765625,-0.323944091796875,0.1529693603515625
1780625770683278600,10.707278564453125,-0.0673065185546875,-0.3009033203125,0.0562896728515625
1780625770693273600,10.717273681640625,0.0171661376953125,-0.238189697265625,-0.1199951171875
1780625770703268600,10.7272685546875,0.1998138427734375,-0.04107666015625,-0.31561279296875
1780625770713263600,10.737263671875,0.4203948974609375,0.1405487060546875,-0.403411865234375
1780625770723259400,10.74725927734375,0.5062255859375,0.24859619140625,-0.32684326171875
1780625770733254400,10.75725439453125,0.4215087890625,0.2512359619140625,-0.215179443359375
1780625770743249400,10.76724951171875,0.4008941650390625,0.1584930419921875,-0.25506591796875
1780625770753244400,10.777244384765625,0.5336761474609375,0.1160736083984375,-0.37823486328125
1780625770763239400,10.787239501953126,0.722747802734375,0.1846160888671875,-0.4649658203125
1780625770773235500,10.7972353515625,0.847015380859375,0.31744384765625,-0.5223541259765625
1780625770783230500,10.80723046875,0.8238372802734375,0.400970458984375,-0.5767669677734375
1780625770793225500,10.8172255859375,0.7678985595703125,0.4244232177734375,-0.619964599609375
1780625770803220500,10.827220458984375,0.845947265625,0.43505859375,-0.6194305419921875
1780625770813215500,10.837215576171875,0.9349517822265625,0.44696044921875,-0.5860137939453125
1780625770823211500,10.84721142578125,0.9871826171875,0.4042816162109375,-0.614837646484375
1780625770833206500,10.85720654296875,0.982757568359375,0.343505859375,-0.6949920654296875
1780625770843201300,10.867201171875,0.92626953125,0.33612060546875,-0.7890167236328125
1780625770853196300,10.8771962890625,0.928802490234375,0.3701019287109375,-0.8550567626953125
1780625770863191600,10.887191650390625,0.9731292724609375,0.4860076904296875,-0.835540771484375
1780625770873186600,10.8971865234375,1.0839080810546875,0.60760498046875,-0.8270263671875
1780625770883182600,10.9071826171875,1.149200439453125,0.6723175048828125,-0.840484619140625
1780625770893177600,10.917177490234375,1.06927490234375,0.6302032470703125,-0.8560333251953125
1780625770903172600,10.927172607421875,0.939056396484375,0.4875946044921875,-0.8300018310546875
1780625770913167400,10.93716748046875,0.844970703125,0.295806884765625,-0.8205718994140625
1780625770923162400,10.947162353515624,0.8353424072265625,0.1457672119140625,-0.782623291015625
1780625770933158400,10.957158447265625,0.8948516845703125,0.1074676513671875,-0.6724395751953125
1780625770943153400,10.9671533203125,0.9030303955078125,0.1105194091796875,-0.630279541015625
1780625770953148700,10.977148681640625,0.7979278564453125,0.192840576171875,-0.59417724609375
1780625770963143700,10.987143798828125,0.6986083984375,0.269195556640625,-0.5534210205078125
1780625770973138700,10.997138671875,0.599761962890625,0.27740478515625,-0.522491455078125
1780625770983134500,11.007134521484375,0.60858154296875,0.2116241455078125,-0.5356903076171875
1780625770993129500,11.01712939453125,0.778076171875,0.1265716552734375,-0.596527099609375
1780625771003124500,11.02712451171875,0.9520263671875,0.1128387451171875,-0.6573333740234375
1780625771013119500,11.037119384765624,0.9751434326171875,0.1336669921875,-0.727264404296875
1780625771023114500,11.047114501953125,0.8383026123046875,0.163482666015625,-0.753936767578125
1780625771033110300,11.0571103515625,0.715484619140625,0.1280364990234375,-0.6953125
1780625771043105500,11.06710546875,0.6898040771484375,0.0760040283203125,-0.5581512451171875
1780625771053100500,11.0771005859375,0.795440673828125,0.083892822265625,-0.4059295654296875
1780625771063095600,11.087095458984376,0.9149932861328125,0.084930419921875,-0.36187744140625
1780625771073090600,11.097090576171874,0.941864013671875,0.0216827392578125,-0.48529052734375
1780625771083086600,11.107086669921875,0.9214630126953125,-0.0470428466796875,-0.6823272705078125
1780625771093081600,11.11708154296875,0.960235595703125,-0.01318359375,-0.8192291259765625
1780625771103076400,11.127076416015624,1.0446624755859375,0.0731201171875,-0.85931396484375
1780625771113071400,11.1370712890625,1.0589447021484375,0.116851806640625,-0.8117828369140625
1780625771123066400,11.14706640625,0.9326171875,0.086456298828125,-0.65936279296875
1780625771133062700,11.157062744140624,0.6916656494140625,-0.042938232421875,-0.472198486328125
1780625771143057700,11.1670576171875,0.555511474609375,-0.1876678466796875,-0.3715057373046875
1780625771153052700,11.177052734375,0.726806640625,-0.172210693359375,-0.2389068603515625
1780625771163047700,11.187047607421874,0.961090087890625,-0.03863525390625,-0.20208740234375
1780625771173042400,11.19704248046875,0.9713134765625,0.031219482421875,-0.3427886962890625
1780625771183037400,11.207037353515625,0.723297119140625,0.007476806640625,-0.5096588134765625
1780625771193033500,11.217033447265624,0.6573028564453125,-0.0397186279296875,-0.6255035400390625
1780625771203028500,11.227028564453125,0.7747802734375,-0.0587158203125,-0.6023406982421875
1780625771213023500,11.2370234375,0.7859649658203125,-0.1111602783203125,-0.556671142578125
1780625771223018500,11.2470185546875,0.666290283203125,-0.221710205078125,-0.5463409423828125
1780625771233013500,11.257013427734375,0.4481964111328125,-0.320465087890625,-0.5245819091796875
1780625771243009500,11.267009521484376,0.31573486328125,-0.388519287109375,-0.5561370849609375
1780625771253004500,11.277004638671874,0.424468994140625,-0.3838043212890625,-0.557281494140625
1780625771262999600,11.28699951171875,0.671661376953125,-0.303436279296875,-0.49407958984375
1780625771272994600,11.29699462890625,0.7787322998046875,-0.1739349365234375,-0.3356781005859375
1780625771282989600,11.306989501953124,0.5736083984375,-0.0769500732421875,-0.3019561767578125
1780625771292985300,11.3169853515625,0.5575103759765625,-0.05291748046875,-0.564727783203125
1780625771302980400,11.32698046875,0.79852294921875,-0.0479736328125,-0.7580108642578125
1780625771312975400,11.336975341796874,0.9467315673828125,-0.036651611328125,-0.77972412109375
1780625771322970400,11.346970458984375,0.9219512939453125,-0.024932861328125,-0.6942138671875
1780625771332965600,11.356965576171875,0.7730712890625,-0.0727386474609375,-0.5080413818359375
1780625771342961700,11.366961669921874,0.694610595703125,-0.1249237060546875,-0.3757781982421875
1780625771352956400,11.376956298828125,0.78509521484375,-0.097381591796875,-0.384033203125
1780625771362951400,11.386951416015625,1.005126953125,-0.0276947021484375,-0.4798126220703125
1780625771372946400,11.396946533203124,1.157562255859375,0.03924560546875,-0.5622100830078125
1780625771382941400,11.40694140625,1.010223388671875,0.035888671875,-0.60308837890625
1780625771392936400,11.4169365234375,0.7937774658203125,-0.0183563232421875,-0.7063751220703125
1780625771402932500,11.426932373046874,0.7400360107421875,-0.0446624755859375,-0.817779541015625
1780625771412927500,11.436927490234375,0.839202880859375,-0.0283660888671875,-0.8058319091796875
1780625771422922500,11.446922607421875,0.9145965576171875,0.0217132568359375,-0.6558685302734375
1780625771432917500,11.45691748046875,0.840789794921875,0.0459136962890625,-0.423187255859375
1780625771442912500,11.46691259765625,0.7941131591796875,0.0284576416015625,-0.420074462890625
1780625771452908500,11.476908447265625,0.882659912109375,0.00970458984375,-0.600799560546875
1780625771462903600,11.486903564453126,0.8996124267578125,-0.0688018798828125,-0.715423583984375
1780625771472898600,11.496898681640625,0.7971649169921875,-0.151092529296875,-0.7233428955078125
1780625771482893600,11.5068935546875,0.7180023193359375,-0.1869964599609375,-0.6884918212890625
1780625771492888600,11.516888671875,0.77984619140625,-0.16448974609375,-0.6316986083984375
1780625771502884400,11.52688427734375,0.803619384765625,-0.087615966796875,-0.4996795654296875
1780625771512879600,11.536879638671875,0.6760101318359375,-0.0018463134765625,-0.4454193115234375
1780625771522874400,11.546874267578126,0.673248291015625,0.0284576416015625,-0.5330352783203125
1780625771532869400,11.556869384765625,0.8603515625,0.027252197265625,-0.601318359375
1780625771542864400,11.566864501953125,0.916229248046875,0.0129547119140625,-0.5707855224609375
1780625771552860200,11.576860107421876,0.78759765625,-0.0406951904296875,-0.5446319580078125
1780625771562855400,11.58685546875,0.795623779296875,-0.0840301513671875,-0.59710693359375
1780625771572850400,11.596850341796875,0.9959869384765625,-0.0777435302734375,-0.6036834716796875
1780625771582845400,11.606845458984376,1.087860107421875,-0.01605224609375,-0.536224365234375
1780625771592840400,11.61684033203125,1.0421905517578125,0.0615997314453125,-0.4893798828125
1780625771602835500,11.62683544921875,0.97259521484375,0.10052490234375,-0.5088653564453125
1780625771612831200,11.636831298828126,0.9705963134765625,0.107269287109375,-0.5621490478515625
1780625771622826200,11.646826171875,0.96240234375,0.0908966064453125,-0.5489349365234375
1780625771632821200,11.6568212890625,0.98095703125,0.025421142578125,-0.501678466796875
1780625771642816300,11.666816162109376,0.871063232421875,-0.0908660888671875,-0.482421875
1780625771652811300,11.676811279296874,0.7434234619140625,-0.207977294921875,-0.570892333984375
1780625771662807600,11.6868076171875,0.8979949951171875,-0.2712554931640625,-0.6378021240234375
1780625771672802600,11.696802490234376,0.94537353515625,-0.2407684326171875,-0.600799560546875
1780625771682797300,11.70679736328125,0.840240478515625,-0.1616058349609375,-0.59918212890625
1780625771692792300,11.716792236328125,0.8128509521484375,-0.0475616455078125,-0.5812530517578125
1780625771702787300,11.726787353515626,0.80413818359375,0.0404510498046875,-0.5708160400390625
1780625771712783400,11.736783447265625,0.8596038818359375,0.040771484375,-0.6198272705078125
1780625771722778400,11.7467783203125,0.88525390625,-0.011199951171875,-0.6374969482421875
1780625771732773400,11.7567734375,0.8615875244140625,-0.0730743408203125,-0.610931396484375
1780625771742768400,11.766768310546874,0.8340911865234375,-0.1031341552734375,-0.5987396240234375
1780625771752763400,11.776763427734375,0.8663330078125,-0.07843017578125,-0.57464599609375
1780625771762759400,11.786759521484376,0.89825439453125,0.0007476806640625,-0.528717041015625
1780625771772754400,11.79675439453125,0.9173431396484375,0.1148681640625,-0.4675750732421875
1780625771782749400,11.80674951171875,0.8633270263671875,0.1887054443359375,-0.46038818359375
1780625771792744400,11.816744384765625,0.8449859619140625,0.1717987060546875,-0.5593719482421875
1780625771802739500,11.826739501953124,0.8708038330078125,0.0873870849609375,-0.6556854248046875
1780625771812734500,11.836734375,0.84765625,-0.033935546875,-0.6927642822265625
1780625771822730200,11.846730224609376,0.7948150634765625,-0.132049560546875,-0.6883087158203125
1780625771832725200,11.856725341796874,0.720062255859375,-0.1955108642578125,-0.6655120849609375
1780625771842720300,11.86672021484375,0.6810302734375,-0.218658447265625,-0.5970916748046875
1780625771852715300,11.87671533203125,0.6972503662109375,-0.2006988525390625,-0.5017547607421875
1780625771862710500,11.88671044921875,0.7658538818359375,-0.14111328125,-0.4145355224609375
1780625771872706300,11.896706298828125,0.84039306640625,-0.0466461181640625,-0.369415283203125
1780625771882701300,11.906701416015625,0.808746337890625,0.0079803466796875,-0.422943115234375
1780625771892696300,11.9166962890625,0.723602294921875,-0.004791259765625,-0.52703857421875
1780625771902691300,11.92669140625,0.6723785400390625,-0.0520477294921875,-0.591644287109375
1780625771912686300,11.936686279296875,0.7238006591796875,-0.09588623046875,-0.6020660400390625
1780625771922682400,11.946682373046874,0.80694580078125,-0.106231689453125,-0.5588226318359375
1780625771932677400,11.956677490234375,0.8117828369140625,-0.092041015625,-0.501983642578125
1780625771942672100,11.966672119140625,0.74462890625,-0.0731964111328125,-0.46466064453125
1780625771952667400,11.97666748046875,0.690643310546875,-0.070648193359375,-0.4653472900390625
1780625771962662400,11.986662353515625,0.69000244140625,-0.1099395751953125,-0.5357208251953125
1780625771972658400,11.996658447265625,0.729736328125,-0.1537628173828125,-0.6347808837890625
1780625771982653400,12.0066533203125,0.73095703125,-0.1879119873046875,-0.7279510498046875
1780625771992648400,12.0166484375,0.6898956298828125,-0.22998046875,-0.766693115234375
1780625772002643500,12.0266435546875,0.669403076171875,-0.2843017578125,-0.720977783203125
1780625772012638200,12.03663818359375,0.6897125244140625,-0.3173065185546875,-0.6425933837890625
1780625772022633200,12.04663330078125,0.6873931884765625,-0.2793731689453125,-0.5879669189453125
1780625772032629200,12.056629150390625,0.646759033203125,-0.2107696533203125,-0.606475830078125
1780625772042624500,12.06662451171875,0.6729736328125,-0.176116943359375,-0.72064208984375
1780625772052619500,12.07661962890625,0.7246856689453125,-0.1192779541015625,-0.8196563720703125
1780625772062614500,12.086614501953125,0.7152252197265625,-0.0583953857421875,-0.864959716796875
1780625772072609500,12.096609619140626,0.688751220703125,-0.024871826171875,-0.878875732421875
1780625772082605300,12.106605224609375,0.7238922119140625,0.01495361328125,-0.8734893798828125
1780625772092600300,12.116600341796875,0.833648681640625,0.0506744384765625,-0.881561279296875
1780625772102595300,12.12659521484375,0.9622650146484375,0.0857086181640625,-0.8922271728515625
1780625772112590300,12.13659033203125,1.016754150390625,0.1379852294921875,-0.88800048828125
1780625772122585300,12.14658544921875,0.9525299072265625,0.1734161376953125,-0.822418212890625
1780625772132581400,12.156581298828126,0.89324951171875,0.1392974853515625,-0.6764678955078125
1780625772142576400,12.166576416015625,0.783935546875,0.1026153564453125,-0.5336151123046875
1780625772152571400,12.1765712890625,0.473724365234375,0.0203857421875,-0.4407196044921875
1780625772162566400,12.18656640625,0.2847747802734375,-0.158355712890625,-0.4540252685546875
1780625772172561400,12.1965615234375,0.3540191650390625,-0.369720458984375,-0.5692901611328125
1780625772182556400,12.206556396484375,0.530242919921875,-0.4990997314453125,-0.69329833984375
1780625772192552400,12.216552490234376,0.6164093017578125,-0.519073486328125,-0.7294464111328125
1780625772202547200,12.226547119140625,0.6774139404296875,-0.46075439453125,-0.6665496826171875
1780625772212542200,12.236542236328125,0.713165283203125,-0.374969482421875,-0.5628814697265625
1780625772222537200,12.246537109375,0.677093505859375,-0.3162384033203125,-0.4758758544921875
1780625772232532200,12.2565322265625,0.66851806640625,-0.3272705078125,-0.463409423828125
1780625772242528500,12.266528564453125,0.7392578125,-0.396026611328125,-0.48272705078125
1780625772252523500,12.2765234375,0.9043121337890625,-0.4473876953125,-0.4817352294921875
1780625772262518500,12.2865185546875,1.0881195068359375,-0.430633544921875,-0.4874267578125
1780625772272513300,12.29651318359375,1.098297119140625,-0.3338470458984375,-0.5408172607421875
1780625772282508300,12.30650830078125,0.911712646484375,-0.1635284423828125,-0.594573974609375
1780625772292504300,12.31650439453125,0.76361083984375,0.0088653564453125,-0.60040283203125
1780625772302499300,12.326499267578125,0.7269439697265625,0.115447998046875,-0.5999603271484375
1780625772312494300,12.336494384765626,0.7418975830078125,0.1192779541015625,-0.5989990234375
1780625772322489300,12.3464892578125,0.7616119384765625,0.0056304931640625,-0.5687408447265625
1780625772332484600,12.356484619140625,0.818115234375,-0.1385955810546875,-0.5406494140625
1780625772342479400,12.366479248046875,0.8701629638671875,-0.2546234130859375,-0.560028076171875
1780625772352475400,12.376475341796874,0.8888397216796875,-0.310028076171875,-0.6010589599609375
1780625772362470400,12.386470458984375,0.8773345947265625,-0.311431884765625,-0.640899658203125
1780625772372465400,12.39646533203125,0.774932861328125,-0.2643585205078125,-0.6250152587890625
1780625772382460400,12.40646044921875,0.5989227294921875,-0.1981964111328125,-0.5564422607421875
1780625772392455400,12.416455322265625,0.5417022705078125,-0.1875152587890625,-0.5220947265625
1780625772402451200,12.426451171875,0.6670379638671875,-0.2356414794921875,-0.531982421875
1780625772412446200,12.4364462890625,0.866607666015625,-0.2760009765625,-0.5591888427734375
1780625772422441500,12.44644140625,0.98004150390625,-0.273193359375,-0.614349365234375
1780625772432436500,12.4564365234375,0.967315673828125,-0.2523651123046875,-0.655853271484375
1780625772442431500,12.466431396484374,0.845123291015625,-0.21014404296875,-0.635711669921875
1780625772452427300,12.47642724609375,0.6605072021484375,-0.154083251953125,-0.5809783935546875
1780625772462422300,12.48642236328125,0.5017242431640625,-0.1215972900390625,-0.5334320068359375
1780625772472417300,12.496417236328124,0.452911376953125,-0.127166748046875,-0.489288330078125
1780625772482412300,12.506412353515625,0.5523834228515625,-0.16534423828125,-0.4434967041015625
1780625772492407300,12.5164072265625,0.722381591796875,-0.24761962890625,-0.439453125
1780625772502402300,12.52640234375,0.805816650390625,-0.353485107421875,-0.5094451904296875
1780625772512398600,12.536398681640625,0.7989044189453125,-0.41680908203125,-0.5999603271484375
1780625772522392800,12.546392822265625,0.7272796630859375,-0.4118804931640625,-0.664398193359375
1780625772532387800,12.556387939453124,0.637969970703125,-0.3752899169921875,-0.6857757568359375
1780625772542382600,12.566382568359375,0.6072845458984375,-0.345428466796875,-0.66351318359375
1780625772552377600,12.576377685546875,0.68109130859375,-0.3663330078125,-0.6502227783203125
1780625772562374000,12.586373779296874,0.8508758544921875,-0.4302978515625,-0.640594482421875
1780625772572369000,12.596368896484375,0.972442626953125,-0.50006103515625,-0.6220245361328125
1780625772582364000,12.606364013671875,0.8999176025390625,-0.563873291015625,-0.6067352294921875
1780625772592359000,12.61635888671875,0.6888580322265625,-0.6187896728515625,-0.5969085693359375
1780625772602354000,12.62635400390625,0.4945526123046875,-0.66070556640625,-0.5778045654296875
1780625772612349700,12.636349609375,0.34405517578125,-0.705657958984375,-0.571746826171875
1780625772622344700,12.6463447265625,0.3157806396484375,-0.72235107421875,-0.5547332763671875
1780625772632339700,12.656339599609375,0.4236602783203125,-0.6711273193359375,-0.497711181640625
1780625772642334700,12.666334716796875,0.5365447998046875,-0.598663330078125,-0.5062255859375
1780625772652329700,12.676329833984376,0.6773681640625,-0.535980224609375,-0.57318115234375
1780625772662324700,12.68632470703125,0.8173980712890625,-0.474609375,-0.6511688232421875
1780625772672320800,12.69632080078125,0.7825927734375,-0.416717529296875,-0.7252655029296875
1780625772682315800,12.706315673828126,0.602203369140625,-0.419830322265625,-0.74407958984375
1780625772692310800,12.716310791015625,0.4702301025390625,-0.4737091064453125,-0.7291107177734375
1780625772702305800,12.726305908203125,0.469696044921875,-0.56658935546875,-0.71539306640625
1780625772712300800,12.73630078125,0.61688232421875,-0.6776885986328125,-0.67877197265625
1780625772722296800,12.746296875,0.8026123046875,-0.7926788330078125,-0.683441162109375
1780625772732291600,12.75629150390625,0.9490203857421875,-0.9082489013671875,-0.730499267578125
1780625772742286600,12.76628662109375,1.0091400146484375,-0.89056396484375,-0.7019195556640625
1780625772752281900,12.77628173828125,0.7337799072265625,-0.7155303955078125,-0.644989013671875
1780625772762276900,12.78627685546875,0.5785369873046875,-0.7797393798828125,-0.7232666015625
1780625772772271900,12.79627197265625,0.72039794921875,-0.7683563232421875,-0.6527252197265625
1780625772782268000,12.806267822265625,0.673187255859375,-0.571624755859375,-0.6206207275390625
1780625772792263000,12.816262939453125,0.6753692626953125,-0.371307373046875,-0.604827880859375
1780625772802257700,12.826257568359376,0.7383270263671875,-0.2242279052734375,-0.5894927978515625
1780625772812252700,12.836252685546874,0.6554718017578125,-0.241668701171875,-0.7047271728515625
1780625772822247700,12.84624755859375,0.61749267578125,-0.3986053466796875,-0.8229827880859375
1780625772832243700,12.85624365234375,0.583587646484375,-0.520599365234375,-0.7886199951171875
1780625772842239000,12.866239013671875,0.4886932373046875,-0.589447021484375,-0.697265625
1780625772852234000,12.87623388671875,0.52618408203125,-0.62030029296875,-0.6165771484375
1780625772862229000,12.88622900390625,0.6474761962890625,-0.5991668701171875,-0.5267333984375
1780625772872223700,12.8962236328125,0.6691741943359375,-0.563934326171875,-0.456787109375
1780625772882219800,12.9062197265625,0.633941650390625,-0.5529937744140625,-0.4785003662109375
1780625772892214800,12.91621484375,0.6502685546875,-0.5318756103515625,-0.5457763671875
1780625772902209800,12.926209716796874,0.6923370361328125,-0.4843292236328125,-0.5982818603515625
1780625772912204800,12.936204833984375,0.7194366455078125,-0.4443359375,-0.6311492919921875
1780625772922199800,12.94619970703125,0.698333740234375,-0.4212646484375,-0.625640869140625
1780625772932194800,12.95619482421875,0.6610107421875,-0.424713134765625,-0.603790283203125
1780625772942190800,12.96619091796875,0.6402587890625,-0.460540771484375,-0.6057891845703125
1780625772952185900,12.976185791015626,0.6424407958984375,-0.482208251953125,-0.5909423828125
1780625772962180900,12.986180908203124,0.68463134765625,-0.4651336669921875,-0.5570068359375
1780625772972176000,12.99617578125,0.733642578125,-0.4376068115234375,-0.53076171875
1780625772982171000,13.0061708984375,0.71826171875,-0.4396820068359375,-0.53375244140625
