time,seconds_elapsed,z,y,x
1780625760044656600,0.06865673828125,-0.24776528775691986,-0.04937243089079857,0.13092099130153656
1780625760054651600,0.078651611328125,-0.3474375903606415,-0.1910863220691681,0.180116206407547
1780625760064647700,0.088647705078125,-0.47325384616851807,-0.2777767479419708,0.2407340109348297
1780625760074643000,0.098642822265625,-0.6230682730674744,-0.33184969425201416,0.3098779022693634
1780625760084638000,0.108637939453125,-0.798149824142456,-0.38020071387290955,0.37909772992134094
1780625760094633000,0.118633056640625,-0.9724858999252319,-0.43630126118659973,0.4606727361679077
1780625760104628000,0.1286279296875,-1.1080437898635864,-0.4844927489757538,0.5459463596343994
1780625760114622700,0.138622802734375,-1.1575472354888916,-0.4766857624053955,0.6253325939178467
1780625760124617700,0.14861767578125,-1.1283128261566162,-0.4543655514717102,0.6801686882972717
1780625760134613800,0.15861376953125,-1.0726808309555054,-0.4518669545650482,0.7091789245605469
1780625760144608800,0.16860888671875,-1.0180983543395996,-0.4534837603569031,0.7167742848396301
1780625760154603800,0.178603759765625,-0.9311341047286987,-0.4598804712295532,0.7370646595954895
1780625760164598800,0.188598876953125,-0.6395509839057922,-0.4565930664539337,0.8508439660072327
1780625760174593800,0.19859375,-0.4730178415775299,-0.4049871861934662,0.925846517086029
1780625760184588500,0.208588623046875,-0.4486944079399109,-0.4307202398777008,0.924500584602356
1780625760194584800,0.218584716796875,-0.48609548807144165,-0.3943091034889221,0.9835587739944458
1780625760204579800,0.228579833984375,-0.5781769752502441,-0.3370197117328644,1.0860891342163086
1780625760214574800,0.238574951171875,-0.6549758315086365,-0.37594422698020935,1.1984981298446655
1780625760224569900,0.24856982421875,-0.7082701921463013,-0.5157735347747803,1.295277714729309
1780625760234564900,0.25856494140625,-0.5009878873825073,-0.6279463768005371,1.2277015447616577
1780625760244560000,0.268559814453125,0.14179882407188416,-0.28365132212638855,0.7010278105735779
1780625760254555600,0.2785556640625,0.6780761480331421,0.2585218846797943,0.2892168164253235
1780625760264550700,0.288550537109375,1.0864276885986328,0.2939445674419403,0.13076700270175934
1780625760274545700,0.298545654296875,1.428759217262268,0.4180747866630554,0.08809526264667511
1780625760284541000,0.308541015625,1.7050648927688599,0.5114947557449341,0.10420312732458115
1780625760294536000,0.318535888671875,1.8638238906860352,0.2531943619251251,0.0967022106051445
1780625760304531000,0.328531005859375,1.8275079727172852,-0.17441076040267944,0.05727383866906166
1780625760314526700,0.338526611328125,1.5846062898635864,-0.4491698741912842,0.06590551137924194
1780625760324521700,0.348521728515625,1.207088828086853,-0.6293788552284241,0.1229512169957161
1780625760334516700,0.358516845703125,0.8104230165481567,-0.7904629707336426,0.22283940017223358
1780625760344511700,0.36851171875,0.4958541691303253,-0.7013727426528931,0.4412383437156677
1780625760354506800,0.3785068359375,0.27685779333114624,-0.46776413917541504,0.7387472987174988
1780625760364501800,0.388501708984375,0.10256695002317429,-0.30480077862739563,0.917381763458252
1780625760374497800,0.398497802734375,-0.03314293548464775,-0.06021838262677193,0.9443344473838806
1780625760384492800,0.408492919921875,-0.16265858709812164,0.1719069927930832,0.8633754253387451
1780625760394487800,0.41848779296875,-0.26643651723861694,0.2485266923904419,0.7103269696235657
1780625760404482800,0.42848291015625,-0.348552942276001,0.21800658106803894,0.5125728845596313
1780625760414477800,0.438477783203125,-0.41177812218666077,0.1581377238035202,0.3439526855945587
1780625760424472800,0.448472900390625,-0.4492972791194916,0.10170881450176239,0.2640085816383362
1780625760434468900,0.45846875,-0.45023077726364136,0.14138056337833405,0.3020155727863312
1780625760444463600,0.468463623046875,-0.43601882457733154,0.11062158644199371,0.4098360538482666
1780625760454458600,0.478458740234375,-0.4434751570224762,0.013263355009257793,0.5150856375694275
1780625760464453600,0.48845361328125,-0.4928741455078125,-0.019062627106904984,0.5900238156318665
1780625760474448600,0.49844873046875,-0.5566914677619934,-0.03611403703689575,0.6167738437652588
1780625760484444000,0.50844384765625,-0.6165335178375244,-0.03774762153625488,0.647178053855896
1780625760494440000,0.51843994140625,-0.6810630559921265,-0.038319338113069534,0.7030989527702332
1780625760504435000,0.52843505859375,-0.72472083568573,-0.039458371698856354,0.7724639177322388
1780625760514429700,0.5384296875,-0.284234881401062,0.21455401182174683,0.8104175329208374
1780625760524424400,0.548424560546875,0.8442279696464539,0.7878380417823792,0.7272738814353943
1780625760534419500,0.55841943359375,1.4137390851974487,1.0640242099761963,0.5362876057624817
1780625760544414500,0.56841455078125,1.4743596315383911,1.1222838163375854,0.4213685095310211
1780625760554410500,0.578410400390625,1.2558097839355469,1.0948690176010132,0.4683782458305359
1780625760564405500,0.588405517578125,0.8859372138977051,1.09952974319458,0.6033754348754883
1780625760574400500,0.598400390625,0.38981643319129944,1.2093369960784912,0.7235571146011353
1780625760584395500,0.6083955078125,0.009396921843290329,1.0816426277160645,0.8064700961112976
1780625760594390300,0.618390380859375,-0.2540241479873657,0.5332590341567993,0.8083087801933289
1780625760604385300,0.62838525390625,-0.18666453659534454,-0.2664022147655487,0.8125796914100647
1780625760614380500,0.638380615234375,0.20337878167629242,-0.7265903353691101,0.793493926525116
1780625760624376600,0.64837646484375,0.47562921047210693,-0.2466842085123062,0.7395526766777039
1780625760634371600,0.65837158203125,0.6010879874229431,0.7285335659980774,0.6165542006492615
1780625760644366600,0.66836669921875,0.605430543422699,1.2518625259399414,0.3996104896068573
1780625760654361600,0.678361572265625,0.6290687322616577,0.9034563899040222,-0.023097366094589233
1780625760664356400,0.6883564453125,0.7162233591079712,1.005171298980713,-0.47365468740463257
1780625760674351400,0.698351318359375,0.9347842931747437,1.548007607460022,-0.8267796039581299
1780625760684347400,0.708347412109375,1.1251753568649292,1.957406759262085,-1.1097172498703003
1780625760694342400,0.71834228515625,1.1383321285247803,1.896517276763916,-1.313230037689209
1780625760704337700,0.728337646484375,1.0570318698883057,1.7011563777923584,-1.4173731803894043
1780625760714332700,0.738332763671875,0.8835241794586182,1.5532567501068115,-1.3934006690979004
1780625760724327700,0.74832763671875,0.6046579480171204,1.3063726425170898,-1.343130350112915
1780625760734322400,0.758322509765625,0.32912394404411316,0.8483759164810181,-1.3796789646148682
1780625760744318500,0.768318359375,0.20574501156806946,0.33369287848472595,-1.4904289245605469
1780625760754313500,0.7783134765625,0.20207065343856812,0.038316886872053146,-1.6578477621078491
1780625760764308500,0.78830859375,0.2071855217218399,-0.042021092027425766,-1.901838779449463
1780625760774303500,0.798303466796875,0.18693116307258606,0.02159799076616764,-2.1489250659942627
1780625760784298500,0.808298583984375,0.2432761788368225,0.20102740824222565,-2.332158088684082
1780625760794293500,0.81829345703125,0.4033981263637543,0.3848218619823456,-2.4281435012817383
1780625760804289500,0.82828955078125,0.5930013656616211,0.5259648561477661,-2.4508306980133057
1780625760814284500,0.838284423828125,0.8212035298347473,0.41340965032577515,-2.458483934402466
1780625760824279600,0.848279541015625,1.1125307083129883,0.23378050327301025,-2.4975273609161377
1780625760834274600,0.858274658203125,1.3817232847213745,0.1901056468486786,-2.4405956268310547
1780625760844269600,0.86826953125,0.995563268661499,0.45678794384002686,-2.308577537536621
1780625760854264600,0.8782646484375,0.46688491106033325,0.30666276812553406,-2.183609962463379
1780625760864260400,0.88826025390625,0.6846531629562378,-0.24425019323825836,-1.9681315422058105
1780625760874255400,0.89825537109375,1.1877460479736328,-0.25375333428382874,-1.761733889579773
1780625760884250400,0.90825048828125,1.6242866516113281,-0.12375114113092422,-1.6228628158569336
1780625760894245400,0.918245361328125,1.8597129583358765,-0.31756553053855896,-1.5665874481201172
1780625760904240600,0.92824072265625,1.9477317333221436,-0.6255910396575928,-1.5405118465423584
1780625760914235600,0.938235595703125,2.0000884532928467,-0.8532714247703552,-1.4986841678619385
1780625760924231400,0.9482314453125,2.045344591140747,-1.1391210556030273,-1.4479175806045532
1780625760934226400,0.958226318359375,2.077988624572754,-1.3616446256637573,-1.3675227165222168
1780625760944221400,0.968221435546875,2.070258617401123,-1.497476577758789,-1.2392789125442505
1780625760954216400,0.978216552734375,1.9995194673538208,-1.690389633178711,-1.075321078300476
1780625760964211500,0.98821142578125,1.861290454864502,-1.8899123668670654,-0.884552538394928
1780625760974206500,0.99820654296875,1.6552499532699585,-1.9832453727722168,-0.6542662382125854
1780625760984202500,1.008202392578125,1.463958978652954,-1.960819125175476,-0.33448052406311035
1780625760994197500,1.018197509765625,1.3490445613861084,-2.1061670780181885,0.003674193285405636
1780625761004192500,1.028192626953125,1.3356860876083374,-2.4281952381134033,0.3117113709449768
1780625761014187500,1.0381875,1.39638352394104,-2.6974470615386963,0.597754716873169
1780625761024182500,1.0481826171875,1.459551215171814,-2.9522695541381836,0.8130528926849365
1780625761034177500,1.058177490234375,1.5022156238555908,-3.0941643714904785,0.9156252145767212
1780625761044173600,1.068173583984375,1.5859688520431519,-3.25390362739563,0.8678220510482788
1780625761054168600,1.07816845703125,1.7140767574310303,-3.48694109916687,0.6365140080451965
1780625761064163300,1.088163330078125,1.6845207214355469,-3.8232338428497314,0.21780969202518463
1780625761074158300,1.098158447265625,1.48947274684906,-4.1353278160095215,-0.30760541558265686
1780625761084153300,1.1081533203125,1.298700213432312,-4.3424835205078125,-0.7160592675209045
1780625761094148400,1.1181484375,1.4539774656295776,-4.475172996520996,-0.772304117679596
1780625761104143400,1.128143310546875,1.80588698387146,-4.473405838012695,-0.5818279385566711
1780625761114139600,1.1381396484375,2.0788559913635254,-4.576056480407715,-0.2837459444999695
1780625761124134700,1.148134765625,2.218703269958496,-4.714356422424316,0.02588249370455742
1780625761134129400,1.15812939453125,2.3228864669799805,-4.828590393066406,0.3010416626930237
1780625761144124400,1.16812451171875,2.4062070846557617,-4.994938373565674,0.44857707619667053
1780625761154119400,1.178119384765625,2.537567615509033,-5.208522319793701,0.5138029456138611
1780625761164114400,1.188114501953125,2.7006120681762695,-5.383392333984375,0.5287187695503235
1780625761174110500,1.1981103515625,2.8111541271209717,-5.414288520812988,0.5333397388458252
1780625761184105500,1.20810546875,2.9270434379577637,-5.2500224113464355,0.5852607488632202
1780625761194100500,1.2181005859375,3.0212433338165283,-4.743825435638428,0.6595128774642944
1780625761204095500,1.228095458984375,3.1046509742736816,-3.954888343811035,0.6336250901222229
1780625761214090500,1.238090576171875,3.1860809326171875,-3.092794418334961,0.49413514137268066
1780625761224085500,1.24808544921875,3.2293953895568848,-2.3079025745391846,0.28884243965148926
1780625761234081500,1.25808154296875,3.2552096843719482,-1.7085323333740234,0.01137363351881504
1780625761244076500,1.26807666015625,3.2101728916168213,-1.3238736391067505,-0.30290839076042175
1780625761254071600,1.278071533203125,3.1395654678344727,-1.077538013458252,-0.5270019769668579
1780625761264066600,1.288066650390625,3.0967438220977783,-0.8883134722709656,-0.6284766793251038
1780625761274061600,1.2980615234375,3.0699734687805176,-0.7487557530403137,-0.5758053064346313
1780625761284056300,1.308056396484375,3.0660040378570557,-0.761206865310669,-0.36561477184295654
1780625761294052600,1.318052490234375,3.03346848487854,-1.0107908248901367,-0.03836975246667862
1780625761304047600,1.328047607421875,2.938685894012451,-1.408967137336731,0.32261720299720764
1780625761314042600,1.338042724609375,2.771818161010742,-1.756727695465088,0.6451552510261536
1780625761324037600,1.34803759765625,2.6013827323913574,-1.8720542192459106,0.8549465537071228
1780625761334032600,1.35803271484375,2.4765820503234863,-1.7781709432601929,0.874325692653656
1780625761344027400,1.36802734375,2.3623461723327637,-1.5469728708267212,0.7558740973472595
1780625761354023400,1.3780234375,2.2060706615448,-1.2656939029693604,0.5897987484931946
1780625761364018400,1.388018310546875,1.9642161130905151,-0.9745318293571472,0.4657386243343353
1780625761374013400,1.398013427734375,1.6712369918823242,-0.7183516025543213,0.4043397605419159
1780625761384008400,1.408008544921875,1.4085065126419067,-0.4608941972255707,0.27837568521499634
1780625761394003500,1.41800341796875,1.204858422279358,-0.16588200628757477,0.05509474128484726
1780625761403998500,1.42799853515625,1.0599281787872314,0.13632366061210632,-0.2206936925649643
1780625761413994500,1.437994384765625,0.8840358257293701,1.0454027652740479,-0.8674176335334778
1780625761423989500,1.447989501953125,1.0382708311080933,0.6793497204780579,-1.3829394578933716
1780625761433984500,1.457984619140625,1.1796506643295288,-0.010829517617821693,-1.275937557220459
1780625761443979500,1.4679794921875,1.1711658239364624,-0.16082459688186646,-1.1802529096603394
1780625761453974500,1.477974609375,0.9132552146911621,-0.2069757878780365,-1.203611969947815
1780625761463969500,1.487969482421875,0.5538640022277832,-0.3535652160644531,-1.2490402460098267
1780625761473965300,1.49796533203125,0.31421494483947754,-0.3387294113636017,-1.2684862613677979
1780625761483960300,1.507960205078125,0.21494749188423157,-0.1737726777791977,-1.4085432291030884
1780625761493955600,1.51795556640625,0.14411041140556335,-0.10137122869491577,-1.6380000114440918
1780625761503950600,1.52795068359375,0.07920891791582108,-0.1269865781068802,-1.8475196361541748
1780625761513945900,1.53794580078125,-0.028521165251731873,-0.22759422659873962,-1.9277880191802979
1780625761523940900,1.54794091796875,-0.17205221951007843,-0.3366970121860504,-1.8115010261535645
1780625761533937000,1.55793701171875,-0.29836422204971313,-0.41321054100990295,-1.5417287349700928
1780625761543932000,1.567931884765625,-0.3738592565059662,-0.502018392086029,-1.192690134048462
1780625761553927000,1.577927001953125,-0.36357423663139343,-0.6307774782180786,-0.7969018220901489
1780625761563922000,1.587921875,-0.3070438504219055,-0.8031700253486633,-0.40303441882133484
1780625761573917000,1.5979169921875,-0.2983672022819519,-0.961233913898468,-0.02976236119866371
1780625761583912000,1.607911865234375,-0.3522357642650604,-1.0469623804092407,0.30412161350250244
1780625761593907700,1.61790771484375,-0.4349907338619232,-1.045206904411316,0.5987817049026489
1780625761603902700,1.62790283203125,-0.50827556848526,-0.9425644874572754,0.8723035454750061
1780625761613897700,1.637897705078125,-0.5511285662651062,-0.7474650740623474,1.0790860652923584
1780625761623892700,1.647892822265625,-0.5800896286964417,-0.5737313628196716,1.1964592933654785
1780625761633887700,1.6578876953125,-0.6249555349349976,-0.3228292167186737,1.2889251708984375
1780625761643882800,1.6678828125,-0.6674020290374756,0.07694267481565475,1.3144906759262085
1780625761653879000,1.677879150390625,-0.6627130508422852,0.35738101601600647,1.2023414373397827
1780625761663873800,1.687873779296875,-0.5998272895812988,0.4131350815296173,1.140747308731079
1780625761673868800,1.697868896484375,-0.5983066558837891,0.47464969754219055,1.2002742290496826
1780625761683863800,1.70786376953125,-0.6473690271377563,0.4155951738357544,1.277718424797058
1780625761693858800,1.71785888671875,-0.7318605780601501,0.30770987272262573,1.3541969060897827
1780625761703853800,1.727853759765625,-0.7902490496635437,0.2274925261735916,1.4393171072006226
1780625761713849900,1.737849853515625,-0.7698323130607605,0.2363845556974411,1.5098745822906494
1780625761723844900,1.747844970703125,-0.6852836012840271,0.28332090377807617,1.5308077335357666
1780625761733840000,1.75783984375,-0.5795717239379883,0.3670686185359955,1.4824470281600952
1780625761743835000,1.7678349609375,-0.4664827287197113,0.4833992123603821,1.4255658388137817
1780625761753830000,1.777829833984375,-0.32951265573501587,0.576977014541626,1.3788038492202759
1780625761763825000,1.787824951171875,-0.2019546926021576,0.6212842464447021,1.3561019897460938
1780625761773820000,1.79781982421875,-0.09236329793930054,0.5999943017959595,1.4921544790267944
1780625761783816000,1.80781591796875,0.0005304231308400631,0.48276033997535706,1.7952133417129517
1780625761793811000,1.81781103515625,0.07431048154830933,0.3301939070224762,2.12724232673645
1780625761803806000,1.827805908203125,0.12029794603586197,0.3323076367378235,2.3744077682495117
1780625761813800700,1.83780078125,0.2013150453567505,0.432708203792572,2.385021209716797
1780625761823795700,1.847795654296875,0.3264777362346649,0.535902738571167,2.1867005825042725
1780625761833790700,1.857790771484375,0.3669881820678711,0.8817398548126221,1.9862611293792725
1780625761843787000,1.867787109375,0.3506414294242859,1.1771501302719116,1.7836321592330933
1780625761853782000,1.877781982421875,0.2949603199958801,1.2266379594802856,1.6226022243499756
1780625761863777000,1.887777099609375,0.1291969120502472,1.3794935941696167,1.360318660736084
1780625761873772000,1.89777197265625,0.032645732164382935,1.0369330644607544,0.8476690649986267
1780625761883766800,1.907766845703125,-0.03627074882388115,0.5611172914505005,0.49498608708381653
1780625761893761800,1.91776171875,-0.06061909347772598,0.17830440402030945,0.22480328381061554
1780625761903757800,1.9277578125,-0.1404247134923935,-0.08851397782564163,-0.14986006915569305
1780625761913752800,1.9377529296875,-0.2392304241657257,-0.11873283982276917,-0.646241307258606
1780625761923747800,1.947747802734375,-0.26796913146972656,-0.008548279292881489,-1.2120095491409302
1780625761933742800,1.957742919921875,-0.22656793892383575,0.175795316696167,-1.7428282499313354
1780625761943737900,1.96773779296875,-0.1562383770942688,0.3188973367214203,-2.206296443939209
1780625761953732900,1.97773291015625,-0.15768224000930786,0.41845980286598206,-2.609548330307007
1780625761963729000,1.98772900390625,-0.3371388018131256,0.6923409104347229,-2.9133405685424805
1780625761973724000,1.997723876953125,-0.6004850268363953,1.2641270160675049,-3.1311609745025635
1780625761983719000,2.007718994140625,-0.7724179029464722,1.8893704414367676,-3.4899659156799316
1780625761993714000,2.0177138671875,-0.7660396099090576,2.4157626628875732,-4.067747116088867
1780625762003709000,2.027708984375,-0.625916063785553,2.3903677463531494,-4.484842300415039
1780625762013704000,2.037703857421875,-0.3926948010921478,1.349290132522583,-4.29656982421875
1780625762023699700,2.04769970703125,-0.15706443786621094,-0.4602249264717102,-3.400738000869751
1780625762033695000,2.057695068359375,-0.05947834253311157,-2.13626766204834,-2.1172239780426025
1780625762043690000,2.06768994140625,-0.14672136306762695,-2.983027458190918,-0.9084433317184448
1780625762053685000,2.07768505859375,-0.17587976157665253,-3.067800760269165,-0.1965535432100296
1780625762063680000,2.087679931640625,-0.052688587456941605,-2.645822048187256,-0.08877194672822952
1780625762073675000,2.097675048828125,0.21228767931461334,-1.9698001146316528,-0.3350125253200531
1780625762083670800,2.1076708984375,0.5049933195114136,-1.2775455713272095,-0.6037659049034119
1780625762093665800,2.117665771484375,0.6972258687019348,-0.7829594612121582,-0.6221376657485962
1780625762103660800,2.127660888671875,0.7370715737342834,-0.6261861324310303,-0.219127357006073
1780625762113655800,2.13765576171875,0.5995612740516663,-0.7106895446777344,0.5026125907897949
1780625762123650800,2.14765087890625,0.3416978120803833,-0.08286262303590775,1.1898895502090454
1780625762133645800,2.157645751953125,0.01639021933078766,0.9557716250419617,1.2713013887405396
1780625762143641900,2.167641845703125,-0.4564391076564789,1.7093740701675415,0.8770568370819092
1780625762153636900,2.177636962890625,-0.9329726696014404,2.141155958175659,0.47398993372917175
1780625762163631900,2.1876318359375,-1.025367021560669,1.9981251955032349,0.11195636540651321
1780625762173627000,2.197626953125,-0.8073720932006836,1.3909903764724731,-0.17059114575386047
1780625762183622000,2.207621826171875,-0.45647454261779785,0.7216485738754272,-0.1592700481414795
1780625762193617000,2.217616943359375,-0.16978749632835388,0.2883071303367615,0.17651169002056122
1780625762203613000,2.227613037109375,-0.06204956769943237,0.11029426008462906,0.66363924741745
1780625762213607700,2.237607666015625,-0.08190685510635376,0.059963855892419815,1.0154675245285034
1780625762223602700,2.247602783203125,-0.05168662965297699,-0.35488393902778625,1.16352379322052
1780625762233597700,2.25759765625,-0.10153227299451828,-0.2912482023239136,1.3865234851837158
1780625762243593000,2.267593017578125,-0.2694847881793976,-0.10819341987371445,1.6813035011291504
1780625762253588000,2.277587890625,-0.46430760622024536,0.2368820756673813,2.007610559463501
1780625762263584000,2.287583984375,-0.4118465185165405,0.5961765646934509,2.2896265983581543
1780625762273579000,2.2975791015625,-0.11049842834472656,0.8590072393417358,2.4334044456481934
1780625762283573800,2.30757373046875,0.24859635531902313,0.8454373478889465,2.407301187515259
1780625762293568800,2.31756884765625,0.4237483739852905,0.9449450969696045,2.3584911823272705
1780625762303563800,2.327563720703125,0.3904804289340973,0.998848557472229,2.3541483879089355
1780625762313558800,2.337558837890625,0.2330581098794937,0.9887258410453796,2.4016807079315186
1780625762323554800,2.347554931640625,0.03163764998316765,0.8970199227333069,2.4299228191375732
1780625762333550000,2.357550048828125,-0.1431584656238556,0.9788188934326172,2.3697216510772705
1780625762343545000,2.367545166015625,-0.2095273733139038,1.1202045679092407,2.2270023822784424
1780625762353539800,2.377539794921875,-0.1529078632593155,1.3225138187408447,2.0591351985931396
1780625762363534800,2.387534912109375,-0.04934098199009895,1.2631080150604248,1.884386658668518
1780625762373531000,2.39753076171875,0.05087507516145706,1.1066291332244873,1.8158329725265503
1780625762383526000,2.40752587890625,0.12279559671878815,0.8846884369850159,1.7203339338302612
1780625762393521000,2.41752099609375,0.21421001851558685,0.5691627264022827,1.3649523258209229
1780625762403516000,2.427515869140625,0.36620911955833435,0.1881517469882965,0.7140285968780518
1780625762413511000,2.437510986328125,0.6090020537376404,-0.3130280077457428,-0.2533112168312073
1780625762423505700,2.447505615234375,0.5545313358306885,-0.1206715926527977,-0.44801947474479675
1780625762433502000,2.457501953125,0.2506055235862732,-0.18462738394737244,-0.11326643824577332
1780625762443497000,2.4674970703125,-0.0005276380106806755,-0.32982826232910156,0.0899234339594841
1780625762453492000,2.477491943359375,-0.10628378391265869,-0.34657907485961914,0.06825415790081024
1780625762463487000,2.487487060546875,-0.2062964141368866,-0.3630451261997223,-0.0645265281200409
1780625762473482000,2.49748193359375,-0.38206595182418823,-0.40946072340011597,-0.2864234149456024
1780625762483477000,2.50747705078125,-0.6142216920852661,-0.453946977853775,-0.47682398557662964
1780625762493472800,2.51747265625,-0.7504321336746216,-0.48075854778289795,-0.7515015006065369
1780625762503467800,2.5274677734375,-0.7485796213150024,-0.3489818871021271,-1.109235167503357
1780625762513461800,2.537461669921875,-0.6174180507659912,-0.08182136714458466,-1.471347451210022
1780625762523456800,2.547456787109375,-0.43725064396858215,0.1378108561038971,-1.7568944692611694
1780625762533451800,2.55745166015625,-0.223043754696846,0.1977684199810028,-1.9584565162658691
1780625762543447000,2.567447021484375,-0.05929717794060707,0.0389055460691452,-2.0326905250549316
1780625762553443000,2.577443115234375,-0.07577405124902725,-0.24542567133903503,-1.9970144033432007
1780625762563437800,2.587437744140625,-0.14088326692581177,-0.47905680537223816,-1.942515254020691
1780625762573432800,2.597432861328125,-0.20525409281253815,-0.6242088079452515,-1.8342915773391724
1780625762583427800,2.607427734375,-0.31229907274246216,-0.5871181488037109,-1.7216640710830688
1780625762593422800,2.6174228515625,-0.474450945854187,-0.5356613993644714,-1.6902371644973755
1780625762603417900,2.62741796875,-0.6003372669219971,-0.502878725528717,-1.6910992860794067
1780625762613414000,2.637413818359375,-0.5277178883552551,-0.46546849608421326,-1.6682441234588623
1780625762623409000,2.647408935546875,-0.3610793650150299,-0.38408148288726807,-1.5484849214553833
1780625762633404000,2.65740380859375,-0.30681082606315613,-0.31707093119621277,-1.2950835227966309
1780625762643399000,2.66739892578125,-0.3789854347705841,-0.40408971905708313,-1.1237740516662598
1780625762653394000,2.677393798828125,-0.5314052104949951,-0.6126415729522705,-0.9218591451644897
1780625762663389000,2.687388916015625,-0.6459221839904785,-0.8417666554450989,-0.7281805276870728
1780625762673385000,2.697385009765625,-0.6429012417793274,-0.8222740888595581,-0.5103377103805542
1780625762683380000,2.7073798828125,-0.48132991790771484,-0.8936750292778015,-0.3712453544139862
1780625762693375000,2.717375,-0.33849862217903137,-1.178017497062683,-0.37192022800445557
1780625762703369700,2.72736962890625,-0.2164800465106964,-1.098534345626831,-0.26130688190460205
1780625762713364700,2.73736474609375,-0.11098629236221313,-0.8370693325996399,-0.1563715934753418
1780625762723359700,2.74735986328125,-0.06900288909673691,-0.5666852593421936,-0.15340988337993622
1780625762733356000,2.75735595703125,-0.18415796756744385,-0.3056454658508301,-0.3397843539714813
1780625762743351000,2.76735107421875,-0.4196290671825409,-0.05190747603774071,-0.541293203830719
1780625762753346000,2.777345947265625,-0.6376111507415771,-0.12268529087305069,-0.4827467203140259
1780625762763341000,2.787341064453125,-0.7486526966094971,-0.2513447403907776,-0.42379871010780334
1780625762773335800,2.797335693359375,-0.5744361877441406,-0.4054047465324402,-0.3955506980419159
1780625762783331800,2.807331787109375,-0.24486255645751953,-0.407100111246109,-0.2955932021141052
1780625762793326800,2.817326904296875,-0.028239427134394646,-0.3384270668029785,-0.18992392718791962
1780625762803321900,2.82732177734375,0.01511656865477562,-0.23385538160800934,-0.13845941424369812
1780625762813316900,2.83731689453125,0.001371963880956173,-0.10312549024820328,-0.14874830842018127
1780625762823312000,2.847311767578125,0.1100425198674202,-0.021778177469968796,-0.21054323017597198
1780625762833307100,2.85730712890625,0.21545225381851196,-0.01546467561274767,-0.2245536744594574
1780625762843303000,2.867302978515625,0.29581019282341003,-0.05037631839513779,-0.1802690327167511
1780625762853298000,2.8772978515625,0.35657596588134766,-0.05368254706263542,-0.06424352526664734
1780625762863293000,2.88729296875,0.36760997772216797,-0.03123343177139759,0.04303446412086487
1780625762873288000,2.897287841796875,0.34203165769577026,0.10477188974618912,0.09016112238168716
1780625762883283000,2.907282958984375,0.3088683784008026,0.29088687896728516,0.06961749494075775
1780625762893278000,2.91727783203125,0.20288163423538208,0.33333271741867065,0.06930574029684067
1780625762903273700,2.927273681640625,0.07297635078430176,0.24376608431339264,0.14984560012817383
1780625762913268700,2.937268798828125,-0.010507797822356224,-0.018964143469929695,0.24849677085876465
1780625762923264000,2.947263916015625,0.028776226565241814,-0.31014299392700195,0.3344596028327942
1780625762933259000,2.957259033203125,0.1435738205909729,-0.41898366808891296,0.3690139055252075
1780625762943254000,2.96725390625,0.2786083519458771,-0.27864545583724976,0.3216218948364258
1780625762953249000,2.9772490234375,0.45924437046051025,-0.028797952458262444,0.1762903779745102
1780625762963244800,2.987244873046875,0.6696375608444214,0.19227690994739532,-0.016722489148378372
1780625762973239800,2.99723974609375,0.8649485111236572,0.34409260749816895,-0.16810163855552673
1780625762983234800,3.00723486328125,1.0038467645645142,0.38336384296417236,-0.23088832199573517
1780625762993229800,3.017229736328125,1.0426734685897827,0.29170191287994385,-0.19076356291770935
1780625763003224800,3.027224853515625,1.1153932809829712,0.11812345683574677,-0.1259848177433014
1780625763013219800,3.0372197265625,1.2198376655578613,-0.09743382036685944,-0.08526735752820969
1780625763023216000,3.047216064453125,1.2916622161865234,-0.24556389451026917,-0.09242939203977585
1780625763033211000,3.0572109375,1.3364180326461792,-0.2557372748851776,-0.2159264236688614
1780625763043206000,3.067205810546875,1.3395699262619019,-0.04697689041495323,-0.46731871366500854
1780625763053201000,3.077200927734375,1.2679781913757324,0.3530541956424713,-0.7303667664527893
1780625763063196000,3.08719580078125,0.9313821792602539,0.8805305361747742,-1.1898776292800903
1780625763073192000,3.09719189453125,0.5171079635620117,1.4272031784057617,-1.6034191846847534
1780625763083187000,3.10718701171875,0.2653851807117462,1.7928434610366821,-1.7846555709838867
1780625763093182000,3.117181884765625,0.25216880440711975,1.9465636014938354,-1.7542048692703247
1780625763103177000,3.127177001953125,0.3688024878501892,1.747650146484375,-1.639026403427124
1780625763113171700,3.137171630859375,0.45355740189552307,1.4712507724761963,-1.439784049987793
1780625763123166700,3.147166748046875,0.4334729015827179,1.0651578903198242,-1.223940134048462
1780625763133163000,3.1571630859375,0.34923380613327026,0.7244089245796204,-1.0513983964920044
1780625763143158000,3.167157958984375,0.2414812445640564,0.47131991386413574,-0.8848124742507935
1780625763153153000,3.177153076171875,0.13672664761543274,0.36123955249786377,-0.718993604183197
1780625763163148000,3.18714794921875,0.05785047635436058,0.40085887908935547,-0.6181561946868896
1780625763173142800,3.197142822265625,0.05627736821770668,0.5394486784934998,-0.5947945713996887
1780625763183137800,3.2071376953125,0.10411759465932846,0.6307889819145203,-0.5966300368309021
1780625763193133800,3.2171337890625,0.050625380128622055,0.6572533845901489,-0.5815449357032776
1780625763203128800,3.22712890625,-0.12700453400611877,0.5631175637245178,-0.5539029240608215
1780625763213123800,3.237123779296875,-0.34463074803352356,0.30636361241340637,-0.5203033685684204
1780625763223119000,3.247119140625,-0.5483830571174622,0.000671856221742928,-0.43163979053497314
1780625763233114000,3.257114013671875,-0.7743489742279053,-0.260568231344223,-0.3128209710121155
1780625763243110000,3.26710986328125,-0.9954635500907898,-0.41065678000450134,-0.25861820578575134
1780625763253105000,3.27710498046875,-1.1683036088943481,-0.401323139667511,-0.2994597256183624
1780625763263100000,3.287099853515625,-1.2958186864852905,-0.2859768569469452,-0.3966033160686493
1780625763273095000,3.297094970703125,-1.3512167930603027,-0.20595067739486694,-0.50359046459198
1780625763283090000,3.30708984375,-1.2462126016616821,-0.13848668336868286,-0.5945494174957275
1780625763293085000,3.3170849609375,-1.0313398838043213,-0.0558398999273777,-0.6077566742897034
1780625763303080700,3.327080810546875,-0.8106764554977417,0.018007958307862282,-0.5319638848304749
1780625763313076000,3.337075927734375,-0.6429731249809265,0.0424378477036953,-0.4232143759727478
1780625763323071000,3.347071044921875,-0.5238216519355774,0.05531050264835358,-0.3244023025035858
1780625763333066000,3.35706591796875,-0.45811396837234497,0.09505629539489746,-0.2905149757862091
1780625763343061000,3.36706103515625,-0.4749795198440552,0.18839555978775024,-0.3467838168144226
1780625763353056000,3.377055908203125,-0.4701743721961975,0.15065526962280273,-0.3604744076728821
1780625763363051800,3.3870517578125,-0.4333633482456207,-0.004415797535330057,-0.406511127948761
1780625763373046800,3.397046875,-0.4296608865261078,-0.2091892808675766,-0.4721066653728485
1780625763383041800,3.407041748046875,-0.41579192876815796,-0.34679853916168213,-0.5124729871749878
1780625763393036800,3.417036865234375,-0.33814308047294617,-0.39676257967948914,-0.45226913690567017
1780625763403031800,3.42703173828125,-0.19429907202720642,-0.3922847509384155,-0.3275485038757324
1780625763413028000,3.437028076171875,-0.01685897260904312,-0.3987398147583008,-0.24281416833400726
1780625763423023000,3.447023193359375,0.106800377368927,-0.4775558114051819,-0.2558354139328003
1780625763433017900,3.457017822265625,0.15503674745559692,-0.6337618827819824,-0.31376856565475464
1780625763443012900,3.467012939453125,0.14643792808055878,-0.9291226863861084,-0.4010257124900818
1780625763453008000,3.4770078125,0.08492135256528854,-1.305766224861145,-0.37232425808906555
1780625763463003000,3.4870029296875,0.04509405046701431,-1.6013315916061401,-0.26364490389823914
1780625763472999000,3.4969990234375,0.10007014870643616,-2.0057437419891357,-0.2622988224029541
1780625763482994000,3.506993896484375,0.1605723649263382,-2.364182710647583,-0.281885027885437
1780625763492989000,3.516989013671875,0.15165212750434875,-2.525296211242676,-0.31740084290504456
1780625763502984000,3.52698388671875,0.04825010523200035,-2.4357752799987793,-0.366272509098053
1780625763512979500,3.5369794921875,-0.13094082474708557,-2.241724729537964,-0.4287159740924835
1780625763522974700,3.546974609375,-0.29229164123535156,-2.0530776977539062,-0.5256731510162354
1780625763532970800,3.556970703125,-0.3813093602657318,-1.9126489162445068,-0.564337432384491
1780625763542965800,3.5669658203125,-0.5699291229248047,-1.8334940671920776,-0.5389953255653381
1780625763552960500,3.57696044921875,-0.8492137789726257,-1.7405411005020142,-0.418035089969635
1780625763562955500,3.58695556640625,-1.1308138370513916,-1.6785163879394531,-0.21281881630420685
1780625763572950500,3.596950439453125,-1.3512916564941406,-1.446932077407837,0.03775578364729881
1780625763582946600,3.606946533203125,-1.5199956893920898,-1.1274904012680054,0.2151859551668167
1780625763592941600,3.616941650390625,-1.612507939338684,-0.9132712483406067,0.2688117027282715
1780625763602936600,3.6269365234375,-1.4585189819335938,-0.7324365377426147,0.2759508192539215
1780625763612931800,3.636931884765625,-1.147953748703003,-0.7179425358772278,0.32535386085510254
1780625763622926600,3.646926513671875,-0.8789417147636414,-0.785612940788269,0.37663009762763977
1780625763632921600,3.656921630859375,-0.6391773223876953,-0.8463135957717896,0.40822532773017883
1780625763642917600,3.666917724609375,-0.42488789558410645,-0.9066541194915771,0.41467443108558655
1780625763652912600,3.67691259765625,-0.2296673059463501,-0.921126663684845,0.39382073283195496
1780625763662907600,3.68690771484375,-0.014970984309911728,-0.8597487807273865,0.38646748661994934
1780625763672902700,3.696902587890625,0.21412613987922668,-0.8124186992645264,0.4003680944442749
1780625763682897700,3.706897705078125,0.4763833284378052,-0.666215717792511,0.4206129312515259
1780625763692892700,3.716892578125,0.751640260219574,-0.5646767020225525,0.4326336979866028
1780625763702888700,3.726888671875,1.0070760250091553,-0.4513549506664276,0.42235976457595825
1780625763712883700,3.7368837890625,1.233016014099121,-0.27341580390930176,0.37253308296203613
1780625763722878700,3.746878662109375,1.491858959197998,0.10493015497922897,0.17450149357318878
1780625763732873700,3.756873779296875,1.629738450050354,0.17683500051498413,-0.06075583025813103
1780625763742868700,3.76686865234375,1.5990396738052368,0.04822403937578201,-0.07785651832818985
1780625763752864500,3.776864501953125,1.4498565196990967,-0.07450583577156067,0.08531107008457184
1780625763762859500,3.786859619140625,1.228991985321045,-0.23672057688236237,0.2591710090637207
1780625763772854500,3.7968544921875,0.968486487865448,-0.32883718609809875,0.2725479006767273
1780625763782849500,3.806849609375,0.7529310584068298,-0.31599247455596924,-0.023482145741581917
1780625763792844500,3.816844482421875,0.7042434215545654,-0.41572636365890503,-0.4575294852256775
1780625763802839600,3.826839599609375,0.47928062081336975,-0.37174665927886963,-0.7086001038551331
1780625763812835600,3.836835693359375,0.27808594703674316,-0.3398967385292053,-0.6784163117408752
1780625763822830600,3.84683056640625,0.3179481327533722,-1.0248452425003052,-0.5565154552459717
1780625763832825600,3.85682568359375,0.3830658495426178,-1.3115062713623047,-0.347999632358551
1780625763842820600,3.866820556640625,0.48932355642318726,-1.3004437685012817,-0.17039050161838531
1780625763852815600,3.876815673828125,0.6925528645515442,-1.3291734457015991,-0.10443832725286484
1780625763862810600,3.886810546875,0.9819077253341675,-1.463534951210022,-0.10559786856174469
1780625763872806700,3.896806640625,1.3482288122177124,-1.5138356685638428,-0.01472577266395092
1780625763882801400,3.906801513671875,1.7840346097946167,-1.7169594764709473,0.2079898566007614
1780625763892796400,3.91679638671875,2.2093966007232666,-2.121992588043213,0.6010152697563171
1780625763902791400,3.92679150390625,2.590023994445801,-2.5840766429901123,1.1036055088043213
1780625763912786700,3.93678662109375,2.8852241039276123,-2.855597972869873,1.6912084817886353
1780625763922782700,3.94678271484375,3.063539505004883,-2.7463738918304443,2.3222615718841553
1780625763932777700,3.95677783203125,3.0778145790100098,-2.3979108333587646,3.0090456008911133
1780625763942772700,3.966772705078125,2.776545524597168,-1.977569818496704,3.689920425415039
1780625763952767500,3.976767578125,2.2750535011291504,-1.4872639179229736,4.335179805755615
1780625763962762500,3.986762451171875,2.325683116912842,-0.8500273823738098,4.8401899337768555
1780625763972757500,3.996757568359375,2.7636399269104004,-0.28823530673980713,5.099630355834961
1780625763982753500,4.00675341796875,2.963719606399536,1.3991962671279907,4.344616889953613
1780625763992748800,4.016748779296875,3.1085617542266846,1.6877703666687012,2.163214683532715
1780625764002743800,4.026743896484375,2.8917524814605713,-0.982142448425293,0.3918932378292084
1780625764012738800,4.03673876953125,2.174525260925293,-2.5031867027282715,-0.5405691862106323
1780625764022733600,4.046733642578125,1.6120661497116089,-2.5412487983703613,-0.7877874970436096
1780625764032729600,4.0567294921875,1.899678111076355,-2.9076740741729736,-0.7945441007614136
1780625764042724600,4.066724609375,2.8046212196350098,-3.294342041015625,-0.6469775438308716
1780625764052719600,4.0767197265625,3.7536635398864746,-3.3205299377441406,-0.1712980717420578
1780625764062714600,4.086714599609375,4.351498603820801,-2.89558482170105,0.4349082410335541
1780625764072709600,4.096709716796875,4.741546154022217,-2.4731621742248535,0.9195564985275269
1780625764082704600,4.10670458984375,4.889028549194336,-1.3679507970809937,1.3471688032150269
1780625764092700700,4.11670068359375,4.955993175506592,-0.575867235660553,1.3589894771575928
1780625764102695700,4.12669580078125,5.16299295425415,-0.38171640038490295,1.0807323455810547
1780625764112690700,4.136690673828125,5.4844465255737305,-0.6561679244041443,0.7186675071716309
1780625764122685700,4.146685791015625,5.843716144561768,-1.1109205484390259,0.4339185357093811
1780625764132680700,4.1566806640625,6.250659465789795,-1.4667116403579712,0.2730523645877838
1780625764142676500,4.166676513671875,6.707665920257568,-1.5806884765625,0.2365843504667282
1780625764152671500,4.17667138671875,7.116888999938965,-1.4142422676086426,0.24556346237659454
1780625764162666500,4.18666650390625,7.321282386779785,-1.0228949785232544,0.25364163517951965
1780625764172661500,4.19666162109375,7.38279914855957,-0.9559450745582581,0.2951641082763672
1780625764182656500,4.206656494140625,7.3750457763671875,-1.2895863056182861,0.4089851975440979
1780625764192651500,4.216651611328125,7.111610412597656,-1.4706400632858276,0.702504575252533
1780625764202647800,4.226647705078125,5.9113969802856445,-1.5885413885116577,1.0467623472213745
1780625764212642600,4.236642578125,3.4515531063079834,-1.6732203960418701,1.258782982826233
1780625764222637600,4.246637451171875,0.12209615856409073,-1.7774842977523804,1.0970388650894165
1780625764232632600,4.256632568359375,-2.892717123031616,-1.7146992683410645,0.6002585291862488
1780625764242627600,4.266627685546875,-4.589150905609131,-1.5470304489135742,0.20209838449954987
1780625764252623600,4.27662353515625,-5.128006935119629,-1.1716301441192627,-0.14946377277374268
1780625764262618600,4.28661865234375,-4.719635963439941,-0.7003353238105774,-0.403435081243515
1780625764272613600,4.296613525390625,-3.3675241470336914,-0.07035529613494873,-0.5703395009040833
1780625764282608400,4.3066083984375,-0.6997601389884949,0.5552971363067627,-0.7433035969734192
1780625764292603600,4.316603759765625,1.3837138414382935,0.7096587419509888,-0.7998263239860535
1780625764302598700,4.3265986328125,2.00842022895813,0.5532371401786804,-0.7287721037864685
1780625764312594700,4.3365947265625,1.6466498374938965,0.0820341631770134,-0.5489579439163208
1780625764322589700,4.346589599609375,0.8896196484565735,-0.4115974009037018,-0.39257314801216125
1780625764332584700,4.356584716796875,0.2709912657737732,-0.6130313277244568,-0.37458258867263794
1780625764342579700,4.366579833984375,-0.12729112803936005,-0.6014692187309265,-0.4700731635093689
1780625764352574500,4.376574462890625,-0.33765262365341187,-0.4270297586917877,-0.6096881628036499
1780625764362570500,4.386570556640625,-0.37504369020462036,-0.16148808598518372,-0.7451543807983398
1780625764372565500,4.3965654296875,-0.3024623990058899,0.12000216543674469,-0.8455966114997864
1780625764382560800,4.406560791015625,-0.21917389333248138,0.3659517467021942,-0.8964827060699463
1780625764392555800,4.4165556640625,-0.1965676099061966,0.4920256733894348,-0.8870989084243774
1780625764402550800,4.42655078125,-0.21680283546447754,0.5654085278511047,-0.8415700197219849
1780625764412546600,4.436546630859375,-0.2787127196788788,0.5529299378395081,-0.7578790187835693
1780625764422541600,4.44654150390625,-0.3352556526660919,0.4824044108390808,-0.6526623368263245
1780625764432536600,4.45653662109375,-0.3702915906906128,0.3982901871204376,-0.5553820729255676
1780625764442531600,4.466531494140625,-0.40333664417266846,0.30163341760635376,-0.477304071187973
1780625764452526600,4.476526611328125,-0.44866785407066345,0.21904346346855164,-0.4226209223270416
1780625764462521600,4.486521484375,-0.5200756788253784,0.15779635310173035,-0.38127079606056213
1780625764472517600,4.496517578125,-0.6168484091758728,0.14769908785820007,-0.35733315348625183
1780625764482512600,4.5065126953125,-0.7078659534454346,0.1975364238023758,-0.3602256178855896
1780625764492507600,4.516507568359375,-0.7636475563049316,0.26976677775382996,-0.3952033817768097
1780625764502502700,4.526502685546875,-0.7683810591697693,0.2976157069206238,-0.4648407995700836
1780625764512497700,4.53649755859375,-0.7342995405197144,0.23864597082138062,-0.5379652380943298
1780625764522493700,4.54649365234375,-0.6516501903533936,0.09453167766332626,-0.5935709476470947
1780625764532488700,4.55648876953125,-0.5448150634765625,-0.09421581029891968,-0.6244417428970337
1780625764542483500,4.5664833984375,-0.4310823678970337,-0.24948447942733765,-0.60573810338974
1780625764552478500,4.576478515625,-0.371782124042511,-0.3627133071422577,-0.5893776416778564
1780625764562473700,4.5864736328125,-0.38582178950309753,-0.3548396825790405,-0.5890013575553894
1780625764572468700,4.59646875,-0.45389696955680847,-0.2683342695236206,-0.601923942565918
1780625764582464800,4.60646484375,-0.632093071937561,-0.22409971058368683,-0.5689617395401001
1780625764592459800,4.616459716796875,-0.8198460936546326,-0.17596571147441864,-0.42775872349739075
1780625764602454800,4.626454833984375,-0.8737903237342834,-0.18281295895576477,-0.317116379737854
1780625764612449500,4.636449462890625,-0.8196160197257996,-0.2955557405948639,-0.2914329469203949
1780625764622444500,4.646444580078125,-0.7278488278388977,-0.4071517586708069,-0.3173540234565735
1780625764632440600,4.656440673828125,-0.6395147442817688,-0.42994973063468933,-0.3789178133010864
1780625764642435600,4.666435546875,-0.5680131316184998,-0.31517282128334045,-0.44387683272361755
1780625764652430800,4.676430908203125,-0.5440691709518433,-0.1857208013534546,-0.49428603053092957
1780625764662425900,4.68642578125,-0.5384504199028015,-0.05953064188361168,-0.5102208256721497
1780625764672420900,4.6964208984375,-0.5352233648300171,0.014456161297857761,-0.49584686756134033
1780625764682415600,4.70641552734375,-0.5349869132041931,0.012900342233479023,-0.47136443853378296
1780625764692411600,4.71641162109375,-0.5340847969055176,-0.09226538985967636,-0.4477331340312958
1780625764702406700,4.72640673828125,-0.5291187763214111,-0.2967916429042816,-0.43774256110191345
1780625764712401700,4.736401611328125,-0.4975912570953369,-0.4982755482196808,-0.4279593825340271
1780625764722396700,4.746396728515625,-0.46576276421546936,-0.6460319757461548,-0.43682292103767395
1780625764732391700,4.7563916015625,-0.44234853982925415,-0.7192384600639343,-0.4694831967353821
1780625764742387700,4.7663876953125,-0.42843538522720337,-0.7113821506500244,-0.5030134320259094
1780625764752382700,4.7763828125,-0.43071234226226807,-0.6609179377555847,-0.5225616693496704
1780625764762377700,4.786377685546875,-0.4475371241569519,-0.648055911064148,-0.5174273252487183
1780625764772372700,4.796372802734375,-0.47687140107154846,-0.7272416353225708,-0.5160201191902161
1780625764782367700,4.80636767578125,-0.5055161118507385,-0.857814610004425,-0.5484286546707153
1780625764792362800,4.81636279296875,-0.5060458779335022,-1.00009286403656,-0.5926879048347473
1780625764802358500,4.826358642578125,-0.4718698263168335,-1.099570393562317,-0.6136387586593628
1780625764812353500,4.836353515625,-0.4217957854270935,-1.1151328086853027,-0.6121112704277039
1780625764822348500,4.8463486328125,-0.3798627257347107,-1.104864239692688,-0.5978665351867676
1780625764832343600,4.856343505859375,-0.35613033175468445,-1.094376564025879,-0.5929570198059082
1780625764842338600,4.866338623046875,-0.37020325660705566,-1.0450973510742188,-0.6094771027565002
1780625764852334800,4.8763349609375,-0.4103340804576874,-0.947589099407196,-0.6012921333312988
1780625764862329600,4.88632958984375,-0.43956202268600464,-0.8623101711273193,-0.5630947351455688
1780625764872324600,4.89632470703125,-0.4548024535179138,-0.8205177783966064,-0.5231736302375793
1780625764882319600,4.906319580078125,-0.4661525785923004,-0.8363510370254517,-0.48443368077278137
1780625764892314600,4.916314697265625,-0.47646281123161316,-0.8907648921012878,-0.4700585603713989
1780625764902310700,4.926310546875,-0.4831467866897583,-0.9443122744560242,-0.5146670937538147
1780625764912305700,4.9363056640625,-0.4575822651386261,-0.9886441826820374,-0.632133424282074
1780625764922300700,4.94630078125,-0.4040066599845886,-1.0310258865356445,-0.7911169528961182
1780625764932295700,4.956295654296875,-0.34574174880981445,-1.0435259342193604,-0.9111916422843933
1780625764942290400,4.96629052734375,-0.2990485429763794,-0.9989599585533142,-0.9270795583724976
1780625764952285700,4.97628564453125,-0.26104092597961426,-0.9240679144859314,-0.8312317132949829
1780625764962281700,4.98628173828125,-0.21894752979278564,-0.8471675515174866,-0.6358145475387573
1780625764972276700,4.99627685546875,-0.15938207507133484,-0.7306761145591736,-0.3876814842224121
1780625764982271700,5.006271728515625,-0.09107705950737,-0.5233322381973267,-0.15435530245304108
1780625764992266800,5.016266845703125,-0.043116245418787,-0.30364111065864563,0.001873690402135253
1780625765002261800,5.02626171875,-0.02305838093161583,-0.19337080419063568,0.052711572498083115
1780625765012257500,5.036257568359375,-0.027558766305446625,-0.23285889625549316,0.015099174343049526
1780625765022252500,5.04625244140625,-0.05359648913145065,-0.3813210725784302,-0.06417034566402435
1780625765032247600,5.05624755859375,-0.0885440856218338,-0.5373783111572266,-0.14061373472213745
1780625765042242800,5.066242919921875,-0.112177774310112,-0.6208636164665222,-0.19389159977436066
1780625765052237800,5.07623779296875,-0.11879957467317581,-0.6144146919250488,-0.2207285761833191
1780625765062232800,5.08623291015625,-0.11545251309871674,-0.5267671346664429,-0.22482238709926605
1780625765072228600,5.096228515625,-0.10702972114086151,-0.36887481808662415,-0.19938206672668457
1780625765082223600,5.1062236328125,-0.10257398337125778,-0.18892499804496765,-0.14672258496284485
1780625765092218600,5.116218505859375,-0.11354583501815796,-0.02881823293864727,-0.0956372320652008
1780625765102213600,5.126213623046875,-0.13178768754005432,0.1253550946712494,-0.12010397017002106
1780625765112208600,5.136208740234375,-0.13960057497024536,0.31246015429496765,-0.2622711658477783
1780625765122204400,5.146204345703125,-0.15183860063552856,0.4791601896286011,-0.4623746871948242
1780625765132199700,5.15619970703125,-0.17409804463386536,0.47093144059181213,-0.5536863207817078
1780625765142194700,5.166194580078125,-0.2253071665763855,0.25399672985076904,-0.4175388514995575
1780625765152189700,5.176189697265625,-0.2830207049846649,0.0033781849779188633,-0.13378940522670746
1780625765162184700,5.186184814453125,-0.31495705246925354,-0.11295295506715775,0.14164777100086212
1780625765172180700,5.1961806640625,-0.3067508637905121,-0.09951494634151459,0.3547144830226898
1780625765182175700,5.20617578125,-0.25095871090888977,-0.07272088527679443,0.4999324083328247
1780625765192170500,5.21617041015625,-0.16698963940143585,-0.13189339637756348,0.5299590826034546
1780625765202165500,5.22616552734375,-0.09999275207519531,-0.2287677377462387,0.4135677218437195
1780625765212160500,5.236160400390625,-0.07949813455343246,-0.18138910830020905,0.18588648736476898
1780625765222155500,5.246155517578125,-0.09536764770746231,0.1295168250799179,0.02641054056584835
1780625765232151800,5.25615185546875,-0.11034582555294037,0.5134353637695312,0.06383863091468811
1780625765242146800,5.266146728515625,-0.09231382608413696,0.7005173563957214,0.26731613278388977
1780625765252141800,5.276141845703125,-0.04495323821902275,0.6524592041969299,0.5177743434906006
1780625765262136600,5.286136474609375,-0.0052963737398386,0.5285327434539795,0.7013987302780151
1780625765272131600,5.296131591796875,0.030112408101558685,0.4315151870250702,0.7773767709732056
1780625765282127600,5.306127685546875,0.014397894963622093,0.4335104525089264,0.7921980619430542
1780625765292122600,5.31612255859375,-0.07099145650863647,0.5295143723487854,0.8043123483657837
1780625765302117600,5.32611767578125,-0.15129242837429047,0.6248235702514648,0.8410698175430298
1780625765312112600,5.336112548828125,-0.2034459412097931,0.6570457220077515,0.8994266390800476
1780625765322107600,5.346107666015625,-0.22993826866149902,0.6025006771087646,0.9432124495506287
1780625765332103700,5.356103759765625,-0.24999257922172546,0.4770776927471161,0.9491530060768127
1780625765342098700,5.3660986328125,-0.25364166498184204,0.3139183223247528,0.9092583060264587
1780625765352093700,5.37609375,-0.23714089393615723,0.1258610188961029,0.8261617422103882
1780625765362088700,5.386088623046875,-0.2095838338136673,-0.0718105137348175,0.7192261815071106
1780625765372083700,5.396083740234375,-0.198103129863739,-0.20223276317119598,0.6692071557044983
1780625765382078700,5.40607861328125,-0.2103901505470276,-0.17015045881271362,0.7156074047088623
1780625765392074500,5.416074462890625,-0.23537421226501465,0.011335008777678013,0.7938883900642395
1780625765402069500,5.426069580078125,-0.26703310012817383,0.28050631284713745,0.8456003069877625
1780625765412064500,5.436064453125,-0.28952643275260925,0.5799068808555603,0.8566582798957825
1780625765422059800,5.446059814453125,-0.3100959062576294,0.8333554267883301,0.8291438221931458
1780625765432054800,5.4560546875,-0.3277284502983093,0.9662557244300842,0.7964281439781189
1780625765442050800,5.46605078125,-0.3531390130519867,0.9468090534210205,0.7699733972549438
1780625765452045600,5.476045654296875,-0.37361255288124084,0.8007013201713562,0.7631688117980957
1780625765462040600,5.48604052734375,-0.3806832432746887,0.5806645750999451,0.7638385891914368
1780625765472035600,5.49603564453125,-0.3497433364391327,0.3585667014122009,0.7519842386245728
1780625765482030600,5.506030517578125,-0.2724599838256836,0.17167137563228607,0.7246977686882019
1780625765492025600,5.516025634765625,-0.17146797478199005,0.04124686121940613,0.6953510046005249
1780625765502021600,5.526021728515625,-0.0712316483259201,-0.008969705551862717,0.664941132068634
1780625765512017000,5.536016845703125,0.00046124402433633804,0.02720840647816658,0.6196913719177246
1780625765522011100,5.54601123046875,0.04538131505250931,0.11782539635896683,0.5498824715614319
1780625765532006100,5.556006103515625,0.0718100294470787,0.20188644528388977,0.45596787333488464
1780625765542001000,5.5660009765625,0.07877659052610397,0.22340957820415497,0.3682990074157715
1780625765551997200,5.5759970703125,0.06242283061146736,0.18365822732448578,0.32121357321739197
1780625765561992200,5.5859921875,0.01823725551366806,0.12364975363016129,0.30810922384262085
1780625765571987200,5.5959873046875,-0.03450639173388481,0.08969322592020035,0.3131149411201477
1780625765581982200,5.605982177734375,-0.08503401279449463,0.13335175812244415,0.32407066226005554
1780625765591977200,5.615977294921875,-0.11980877071619034,0.2508903443813324,0.3344995975494385
1780625765601973000,5.625972900390625,-0.1310553103685379,0.4040980041027069,0.33068594336509705
1780625765611968000,5.635968017578125,-0.11490471661090851,0.5342056155204773,0.2872125804424286
1780625765621963000,5.645962890625,-0.08158910274505615,0.5833433270454407,0.19318991899490356
1780625765631958000,5.6559580078125,-0.03874758630990982,0.5061531066894531,0.06443023681640625
1780625765641953300,5.665953369140625,0.014164365828037262,0.31679409742355347,-0.06108880788087845
1780625765651948300,5.6759482421875,0.07970841974020004,0.07935503870248795,-0.1562110334634781
1780625765661944000,5.685944091796875,0.1590205579996109,-0.09099192917346954,-0.1992943286895752
1780625765671939000,5.69593896484375,0.216729536652565,-0.13453559577465057,-0.19533240795135498
1780625765681934000,5.70593408203125,0.20308217406272888,-0.09601245075464249,-0.19550497829914093
1780625765691929000,5.71592919921875,0.15368607640266418,-0.030321720987558365,-0.20786629617214203
1780625765701924000,5.725924072265625,0.09943214803934097,0.05369248986244202,-0.2054089903831482
1780625765711920000,5.735920166015625,0.054243817925453186,0.14759568870067596,-0.19120296835899353
1780625765721915000,5.745914794921875,0.01695450209081173,0.22950679063796997,-0.17550283670425415
1780625765731910100,5.75591015625,-0.02557966858148575,0.28351858258247375,-0.19495214521884918
1780625765741905200,5.7659052734375,-0.07417996227741241,0.30923697352409363,-0.25430548191070557
1780625765751900200,5.775900146484375,-0.09393855184316635,0.33835744857788086,-0.35106953978538513
1780625765761896200,5.785896240234375,-0.06872480362653732,0.4022938013076782,-0.4566316604614258
1780625765771891200,5.79589111328125,0.0013371482491493225,0.47700387239456177,-0.48060503602027893
1780625765781886200,5.80588623046875,0.11091344058513641,0.4442366063594818,-0.3575904369354248
1780625765791881000,5.815880859375,0.21697628498077393,0.2666916251182556,-0.13733366131782532
1780625765801876000,5.8258759765625,0.25191909074783325,0.12960807979106903,0.08548929542303085
1780625765811871000,5.83587109375,0.1904429793357849,0.16925692558288574,0.24607491493225098
1780625765821867300,5.8458671875,0.07982805371284485,0.3960104286670685,0.3418962359428406
1780625765831862300,5.8558623046875,-0.005849143955856562,0.7212415933609009,0.3728650212287903
1780625765841857300,5.865857177734375,-0.04605541750788689,1.030861258506775,0.3546207845211029
1780625765851852300,5.875852294921875,-0.025258831679821014,1.2480272054672241,0.28165340423583984
1780625765861847000,5.885846923828125,0.03633023053407669,1.2951195240020752,0.15563076734542847
1780625765871843000,5.895843017578125,0.12288530170917511,1.0957863330841064,-0.0019716182723641396
1780625765881838000,5.905838134765625,0.21458379924297333,0.6347750425338745,-0.1549510508775711
1780625765891833000,5.9158330078125,0.2760600447654724,0.03327651694417,-0.26693081855773926
1780625765901828000,5.925828125,0.2937040328979492,-0.5328172445297241,-0.3035982847213745
1780625765911823000,5.935822998046875,0.2714625298976898,-0.8645261526107788,-0.19481435418128967
1780625765921819100,5.945819091796875,0.19592224061489105,-0.8847946524620056,0.034679822623729706
1780625765931814100,5.955814208984375,0.0843372493982315,-0.6589064598083496,0.2843689024448395
1780625765941809200,5.96580908203125,-0.021350035443902016,-0.3148508369922638,0.4557587802410126
1780625765951804200,5.97580419921875,-0.10073403269052505,0.10404172539710999,0.4658627510070801
1780625765961799200,5.985799072265625,-0.10539349913597107,0.48671266436576843,0.3399282395839691
1780625765971794200,5.995794189453125,-0.05850859731435776,0.7119752764701843,0.15004850924015045
1780625765981790000,6.0057900390625,-0.01616007648408413,0.7275177836418152,-0.04005378857254982
1780625765991785000,6.015784912109375,0.026466064155101776,0.5528543591499329,-0.20662206411361694
1780625766001780000,6.025780029296875,0.07072167098522186,0.2843315601348877,-0.35383176803588867
1780625766011775000,6.03577490234375,0.10441650450229645,-0.0036650649271905422,-0.4679666757583618
1780625766021770000,6.04577001953125,0.13741172850131989,-0.25918176770210266,-0.5281980633735657
1780625766031766300,6.055766357421875,0.17966800928115845,-0.43001294136047363,-0.5369499325752258
1780625766041761300,6.06576123046875,0.18436075747013092,-0.455314576625824,-0.5402053594589233
1780625766051756000,6.075756103515625,0.14080172777175903,-0.29640835523605347,-0.557278037071228
1780625766061751000,6.0857509765625,0.05345669761300087,0.044326040893793106,-0.5244710445404053
1780625766071746000,6.09574609375,-0.058189112693071365,0.4704558551311493,-0.3703947365283966
1780625766081742000,6.1057421875,-0.18679796159267426,0.8451620936393738,-0.1512136459350586
1780625766091737000,6.115737060546875,-0.2787066400051117,1.0694414377212524,-0.008966485038399696
1780625766101732000,6.125732177734375,-0.338644802570343,1.1571340560913086,0.02398560754954815
1780625766111727400,6.135727294921875,-0.3255406618118286,1.1274830102920532,-0.0048963711597025394
1780625766121722000,6.14572216796875,-0.184017613530159,0.995846152305603,-0.05458509549498558
1780625766131717000,6.155717041015625,0.03252473846077919,0.7750778794288635,-0.13040170073509216
1780625766141713200,6.165713134765625,0.21270862221717834,0.5525560975074768,-0.2006436437368393
1780625766151708200,6.175708251953125,0.30590158700942993,0.37285831570625305,-0.2539724111557007
1780625766161703200,6.185703125,0.32289600372314453,0.260191410779953,-0.3018808364868164
1780625766171698200,6.1956982421875,0.2970534563064575,0.2387036234140396,-0.3625161945819855
1780625766181693200,6.205693115234375,0.2588312327861786,0.2993347644805908,-0.44894081354141235
1780625766191689000,6.21568896484375,0.2162577360868454,0.38672369718551636,-0.564038097858429
1780625766201684200,6.225684326171875,0.1915917992591858,0.4102013409137726,-0.6338672041893005
1780625766211679200,6.23567919921875,0.17466704547405243,0.34751731157302856,-0.6240392923355103
1780625766221674200,6.24567431640625,0.14307130873203278,0.23583632707595825,-0.5608792304992676
1780625766231669200,6.255669189453125,0.11107159405946732,0.0975993350148201,-0.46946683526039124
1780625766241665000,6.2656650390625,0.08118533343076706,-0.037029583007097244,-0.39537981152534485
1780625766251660000,6.275659912109375,0.06888891756534576,-0.09010792523622513,-0.3419606685638428
1780625766261655000,6.285655029296875,0.07008387893438339,-0.024952363222837448,-0.2945076823234558
1780625766271650000,6.295650146484375,0.09023480862379074,0.11458539217710495,-0.2337641417980194
1780625766281645000,6.30564501953125,0.11128070205450058,0.2878469228744507,-0.1641637533903122
1780625766291640000,6.31564013671875,0.11910245567560196,0.4733225703239441,-0.12440162152051926
1780625766301636000,6.325635986328125,0.09465410560369492,0.7343916893005371,-0.18097621202468872
1780625766311631000,6.335631103515625,0.05464991554617882,1.0892155170440674,-0.31039711833000183
1780625766321626000,6.345626220703125,0.022785989567637444,1.3292042016983032,-0.4036913812160492
1780625766331621000,6.35562109375,0.012181611731648445,1.1436021327972412,-0.42215678095817566
1780625766341616000,6.3656162109375,0.016498863697052002,0.524067223072052,-0.3842666447162628
1780625766351612200,6.375612060546875,0.029963329434394836,-0.19584836065769196,-0.3580172061920166
1780625766361607200,6.385607177734375,0.05809749290347099,-0.6300296187400818,-0.4013471007347107
1780625766371602200,6.395602294921875,0.10051951557397842,-0.6904333829879761,-0.505216658115387
1780625766381597000,6.405596923828125,0.14244964718818665,-0.4883098900318146,-0.6062463521957397
1780625766391592000,6.415592041015625,0.16035214066505432,-0.16446109116077423,-0.6015748977661133
1780625766401588200,6.425588134765625,0.14503949880599976,0.1920648068189621,-0.46896976232528687
1780625766411583200,6.435583251953125,0.0882328450679779,0.4543129801750183,-0.29499340057373047
1780625766421578200,6.445578125,0.006667942740023136,0.4733007848262787,-0.16593393683433533
1780625766431573200,6.4555732421875,-0.053476087749004364,0.3242015838623047,-0.09483712911605835
1780625766441568300,6.465568359375,-0.07761071622371674,0.0649455338716507,-0.012256231158971786
1780625766451563000,6.47556298828125,-0.0667576938867569,-0.2587346136569977,0.08023194968700409
1780625766461559000,6.48555908203125,-0.025701072067022324,-0.5142566561698914,0.09507907181978226
1780625766471554000,6.495553955078125,0.027363110333681107,-0.5418368577957153,0.027132678776979446
1780625766481549000,6.505549072265625,0.06473684310913086,-0.398202508687973,-0.07636095583438873
1780625766491544000,6.5155439453125,0.07814207673072815,-0.250628262758255,-0.14560112357139587
1780625766501539300,6.525539306640625,0.08015888929367065,-0.21675394475460052,-0.14383065700531006
1780625766511535000,6.53553515625,0.07591080665588379,-0.2816096842288971,-0.09657712280750275
1780625766521530000,6.545530029296875,0.06359554827213287,-0.367132306098938,-0.030616484582424164
1780625766531525000,6.555525146484375,0.040296051651239395,-0.3918953239917755,0.05025726929306984
1780625766541520100,6.56552001953125,-0.009567376226186752,-0.3146609961986542,0.1648608148097992
1780625766551515100,6.57551513671875,-0.07418178021907806,-0.16274532675743103,0.2854452431201935
1780625766561511000,6.585510986328125,-0.13570399582386017,-0.03563637286424637,0.3650897443294525
1780625766571506000,6.595505859375,-0.15917782485485077,-0.035197701305150986,0.4135066866874695
1780625766581501000,6.6055009765625,-0.12732988595962524,-0.16720792651176453,0.4346231520175934
1780625766591496200,6.61549609375,-0.0473821759223938,-0.32853665947914124,0.3835377097129822
1780625766601491200,6.6254912109375,0.027901923283934593,-0.44206055998802185,0.24957989156246185
1780625766611486200,6.635486328125,0.07467250525951385,-0.4889213442802429,0.0919678807258606
1780625766621482200,6.645482177734375,0.09498976171016693,-0.5167644619941711,0.013635790906846523
1780625766631477000,6.65547705078125,0.09404674172401428,-0.5558148622512817,0.05577859655022621
1780625766641472000,6.665471923828125,0.09200063347816467,-0.5632863640785217,0.17423413693904877
1780625766651467000,6.675467041015625,0.09537684917449951,-0.5089997053146362,0.2882181406021118
1780625766661462000,6.6854619140625,0.12383459508419037,-0.3986026346683502,0.32813572883605957
1780625766671458000,6.6954580078125,0.17980210483074188,-0.270317018032074,0.2980952560901642
1780625766681453300,6.705453369140625,0.24488070607185364,-0.17626482248306274,0.2329884171485901
1780625766691448300,6.7154482421875,0.2861015498638153,-0.11739372462034225,0.16989046335220337
1780625766701443000,6.725443115234375,0.27275460958480835,-0.07162277400493622,0.11680753529071808
1780625766711438000,6.73543798828125,0.21793133020401,-0.0013138317735865712,0.08065012097358704
1780625766721434000,6.74543408203125,0.1492862105369568,0.09978988021612167,0.06498593837022781
1780625766731429000,6.75542919921875,0.09093534201383591,0.1978844553232193,0.06666535884141922
1780625766741424000,6.765424072265625,0.05355042219161987,0.2394436150789261,0.07501676678657532
1780625766751419100,6.775419189453125,0.03895752876996994,0.2022268921136856,0.08201216906309128
1780625766761414100,6.7854140625,0.035916998982429504,0.11584354192018509,0.07975807040929794
1780625766771410200,6.79541015625,0.029910532757639885,0.03757765516638756,0.06933718174695969
1780625766781405200,6.8054052734375,0.03143971785902977,-0.02071414887905121,0.05484319105744362
1780625766791400200,6.815400146484375,0.03893980756402016,-0.04041334614157677,0.02310333028435707
1780625766801395200,6.825395263671875,0.04882466048002243,-0.011172636412084103,-0.03226592019200325
1780625766811390200,6.83539013671875,0.05339200049638748,0.02230674773454666,-0.08107464015483856
1780625766821385200,6.84538525390625,0.04822174087166786,0.043152108788490295,-0.11155238747596741
1780625766831381000,6.855381103515625,0.0473656989634037,0.044397030025720596,-0.1306772530078888
1780625766841376000,6.8653759765625,0.051064830273389816,0.02299346774816513,-0.13963079452514648
1780625766851371000,6.87537109375,0.058755189180374146,0.00116437254473567,-0.1655316799879074
1780625766861366000,6.885365966796875,0.07531179487705231,0.01971568539738655,-0.21084216237068176
1780625766871361000,6.895361083984375,0.09364786744117737,0.0942637249827385,-0.26510196924209595
1780625766881357300,6.905357421875,0.10803106427192688,0.18914656341075897,-0.29638561606407166
1780625766891352000,6.91535205078125,0.12655232846736908,0.25118914246559143,-0.31155556440353394
1780625766901347000,6.92534716796875,0.1435837745666504,0.27871954441070557,-0.3391118049621582
1780625766911342000,6.935342041015625,0.15290209650993347,0.29105430841445923,-0.390760213136673
1780625766921337000,6.945337158203125,0.16203726828098297,0.32537898421287537,-0.44757768511772156
1780625766931333000,6.9553330078125,0.17240263521671295,0.39108043909072876,-0.48870769143104553
1780625766941328100,6.965328125,0.17111419141292572,0.4830774962902069,-0.5008813142776489
1780625766951323100,6.9753232421875,0.14687955379486084,0.5698559284210205,-0.47374898195266724
1780625766961318100,6.985318115234375,0.10232140868902206,0.6182375550270081,-0.41520896553993225
1780625766971313000,6.99531298828125,0.05660567432641983,0.580970823764801,-0.3498566448688507
1780625766981308200,7.00530810546875,0.020238611847162247,0.477834016084671,-0.3311404883861542
1780625766991304200,7.01530419921875,-0.0011116554960608482,0.35469043254852295,-0.37380531430244446
1780625767001299200,7.02529931640625,0.006576357875019312,0.24813254177570343,-0.46938297152519226
1780625767011294200,7.035294189453125,0.03128283470869064,0.15280209481716156,-0.5901944041252136
1780625767021289200,7.045289306640625,0.054882436990737915,0.05748276039958,-0.7282239198684692
1780625767031284000,7.055283935546875,0.07946246862411499,-0.03544202446937561,-0.9016071557998657
1780625767041280000,7.065280029296875,0.09138597548007965,-0.11686364561319351,-1.0704630613327026
1780625767051275000,7.07527490234375,0.08844739198684692,-0.17280827462673187,-1.1309009790420532
1780625767061270300,7.085270263671875,0.06473780423402786,-0.16156494617462158,-1.0165456533432007
1780625767071265300,7.095265380859375,0.0272551029920578,-0.05906518176198006,-0.7819815278053284
1780625767081260300,7.10526025390625,-0.006719107739627361,0.13714507222175598,-0.5641525387763977
1780625767091256000,7.115256103515625,-0.028137359768152237,0.34457969665527344,-0.4427627921104431
1780625767101251000,7.1252509765625,-0.010243047028779984,0.451644629240036,-0.3969087600708008
1780625767111246000,7.13524609375,0.03772740066051483,0.4194857180118561,-0.40384650230407715
1780625767121241000,7.145240966796875,0.09199276566505432,0.29388201236724854,-0.4650254547595978
1780625767131236000,7.155236083984375,0.1260605901479721,0.11062784492969513,-0.5530388951301575
1780625767141231000,7.165231201171875,0.13959449529647827,-0.0845288634300232,-0.6310529708862305
1780625767151227100,7.17522705078125,0.13321229815483093,-0.21549491584300995,-0.6751628518104553
1780625767161222100,7.18522216796875,0.10701105743646622,-0.21403950452804565,-0.6608960032463074
1780625767171217200,7.195217041015625,0.08952146023511887,-0.11239030957221985,-0.564242422580719
1780625767181212200,7.205212158203125,0.10706289857625961,-0.02598378248512745,-0.42690157890319824
1780625767191207200,7.215207275390625,0.16150784492492676,0.0030688478145748377,-0.3271409571170807
1780625767201203200,7.225203125,0.2202526479959488,-0.012823034077882767,-0.28811872005462646
1780625767211198200,7.2351982421875,0.2479160875082016,-0.02912270650267601,-0.2828978896141052
1780625767221193000,7.24519287109375,0.23712068796157837,0.01056718360632658,-0.25806817412376404
1780625767231188000,7.25518798828125,0.21416397392749786,0.12287908047437668,-0.18511992692947388
1780625767241183000,7.265182861328125,0.18804022669792175,0.26828819513320923,-0.10886776447296143
1780625767251179300,7.27517919921875,0.1589648276567459,0.39785513281822205,-0.07415717095136642
1780625767261174300,7.28517431640625,0.11703309416770935,0.4500328302383423,-0.09943349659442902
1780625767271169300,7.295169189453125,0.06739666312932968,0.391137957572937,-0.1617952287197113
1780625767281164300,7.305164306640625,0.02912517637014389,0.265579491853714,-0.22036080062389374
1780625767291159000,7.315158935546875,0.016436278820037842,0.13312555849552155,-0.24411672353744507
1780625767301155000,7.325155029296875,0.021443020552396774,0.03924194723367691,-0.23186779022216797
1780625767311150000,7.335150146484375,0.019876744598150253,-0.004917476326227188,-0.18836277723312378
1780625767321145000,7.34514501953125,-0.007765003480017185,-0.029516294598579407,-0.13085661828517914
1780625767331140000,7.35514013671875,-0.06691733002662659,-0.04973790794610977,-0.07316166162490845
1780625767341135000,7.365135009765625,-0.13659627735614777,-0.052528634667396545,-0.005982089787721634
1780625767351130000,7.375130126953125,-0.19615884125232697,-0.03069343790411949,0.09762122482061386
1780625767361126100,7.385126220703125,-0.24724465608596802,0.09729382395744324,0.19431635737419128
1780625767371121200,7.39512109375,-0.2945218086242676,0.3979629576206207,0.16574789583683014
1780625767381116200,7.4051162109375,-0.3038695156574249,0.7376025915145874,-0.0202438086271286
1780625767391111200,7.415111083984375,-0.2509259879589081,0.9120408296585083,-0.32221725583076477
1780625767401106200,7.425106201171875,-0.11953122168779373,0.8379706144332886,-0.67699134349823
1780625767411102000,7.43510205078125,0.04667993634939194,0.45428523421287537,-0.9224395751953125
1780625767421097000,7.445096923828125,0.1574208289384842,-0.11575589329004288,-0.9521828293800354
1780625767431092000,7.455092041015625,0.16298554837703705,-0.5090532898902893,-0.7934839725494385
1780625767441087000,7.4650869140625,0.11875630170106888,-0.3543209731578827,-0.5217121243476868
1780625767451082200,7.475082275390625,0.04107115417718887,0.37866681814193726,-0.22940222918987274
1780625767461078300,7.485078369140625,-0.05457361415028572,1.1534507274627686,0.02447265386581421
1780625767471073000,7.495072998046875,-0.1351391226053238,1.2749429941177368,0.17459098994731903
1780625767481068000,7.505068115234375,-0.17346760630607605,0.7323873043060303,0.21885912120342255
1780625767491063000,7.51506298828125,-0.16278491914272308,-0.043510518968105316,0.21657916903495789
1780625767501058000,7.52505810546875,-0.11103357374668121,-0.5914814472198486,0.13513676822185516
1780625767511054000,7.53505419921875,-0.07011043280363083,-0.7013413906097412,0.07015694677829742
1780625767521049300,7.54504931640625,-0.06326504051685333,-0.5960671305656433,0.17774970829486847
1780625767531044400,7.55504443359375,-0.08116766810417175,-0.49290820956230164,0.49477294087409973
1780625767541039000,7.5650390625,-0.06023894622921944,-0.38488081097602844,0.8411244750022888
1780625767551034000,7.5750341796875,0.026063065975904465,-0.2900683879852295,1.1007059812545776
1780625767561030100,7.585030029296875,0.1611090451478958,-0.325491338968277,1.2945449352264404
1780625767571025200,7.595025146484375,0.26436638832092285,-0.4409216046333313,1.391600251197815
1780625767581020400,7.6050205078125,0.2037978321313858,-0.4392387568950653,1.2706793546676636
1780625767591015400,7.615015380859375,-0.038120336830616,-0.25478264689445496,0.8235063552856445
1780625767601010400,7.625010498046875,-0.2769733965396881,-0.11612623184919357,0.16354042291641235
1780625767611005200,7.635005126953125,-0.34238123893737793,-0.3509695827960968,-0.30094173550605774
1780625767621001200,7.645001220703125,-0.23147337138652802,-0.6639615893363953,-0.3529426157474518
1780625767630996200,7.654996337890625,-0.07542183250188828,-0.2808776795864105,-0.13171371817588806
1780625767640991200,7.6649912109375,0.041685886681079865,0.5311499238014221,0.23994025588035583
1780625767650986200,7.674986328125,0.1024261862039566,1.0542356967926025,0.5576472878456116
1780625767660981200,7.684981201171875,0.10579508543014526,1.0493477582931519,0.8213207125663757
1780625767670977300,7.694977294921875,0.056014616042375565,0.6664727926254272,1.0721888542175293
1780625767680972300,7.70497216796875,-0.024423765018582344,0.21560683846473694,1.2808947563171387
1780625767690967300,7.71496728515625,-0.08441311866044998,-0.1705232560634613,1.3625919818878174
1780625767700962300,7.72496240234375,-0.1107693612575531,-0.4385184943675995,1.3383034467697144
1780625767710957300,7.734957275390625,-0.1823142021894455,-0.4659133851528168,1.2525315284729004
1780625767720953300,7.744953369140625,-0.31126153469085693,-0.3341500163078308,1.070700764656067
1780625767730948000,7.754947998046875,-0.48308971524238586,-0.15100793540477753,0.791063129901886
1780625767740943000,7.764943115234375,-0.6281294226646423,0.027768202126026154,0.44996652007102966
1780625767750938000,7.774938232421875,-0.6716728806495667,0.08554144948720932,0.12458046525716782
1780625767760933000,7.78493310546875,-0.5342984795570374,-0.13708524405956268,-0.08757334202528
1780625767770929400,7.794929443359375,-0.2721381187438965,-0.6072088479995728,-0.0632939487695694
1780625767780924400,7.80492431640625,-0.06326508522033691,-1.0496398210525513,0.25714051723480225
1780625767790919400,7.81491943359375,0.06821760535240173,-1.0880963802337646,0.7082317471504211
1780625767800914200,7.8249140625,0.15632084012031555,-0.6112188100814819,1.0536818504333496
1780625767810909200,7.8349091796875,0.1965664178133011,0.12411276996135712,1.2001696825027466
1780625767820904200,7.844904296875,0.1822921335697174,0.7540885806083679,1.161048173904419
1780625767830900200,7.854900146484375,0.13369472324848175,1.1037074327468872,1.0033167600631714
1780625767840895200,7.864895263671875,0.04352674260735512,1.1764646768569946,0.8179285526275635
1780625767850890200,7.87489013671875,-0.08227412402629852,1.0397833585739136,0.651041567325592
1780625767860885200,7.88488525390625,-0.21186727285385132,0.7611865997314453,0.516024112701416
1780625767870880000,7.8948798828125,-0.30801790952682495,0.42033788561820984,0.4077661633491516
1780625767880876300,7.904876220703125,-0.3331400454044342,0.11215900629758835,0.32999467849731445
1780625767890871300,7.914871337890625,-0.2856886386871338,-0.10519967973232269,0.27436256408691406
1780625767900866300,7.9248662109375,-0.1968219131231308,-0.2119940221309662,0.26851800084114075
1780625767910861300,7.934861328125,-0.09112031012773514,-0.19278433918952942,0.33372482657432556
1780625767920856300,7.944856201171875,0.0035830289125442505,-0.02708139270544052,0.3826441764831543
1780625767930852000,7.95485205078125,0.08557265251874924,0.2357587069272995,0.37703442573547363
1780625767940847000,7.96484716796875,0.18062114715576172,0.514209508895874,0.3366379737854004
1780625767950842000,7.974842041015625,0.2837371826171875,0.7607612013816833,0.27508217096328735
1780625767960837000,7.984837158203125,0.37057167291641235,0.834830105304718,0.19645552337169647
1780625767970832400,7.994832275390625,0.4420815110206604,0.5300652384757996,0.07252579182386398
1780625767980828200,8.004828125,0.46674105525016785,-0.10094121098518372,-0.05765457823872566
1780625767990823200,8.0148232421875,0.38319236040115356,-0.572997510433197,-0.08340028673410416
1780625768000818200,8.024818115234375,0.2215733677148819,-0.5377652049064636,0.050106633454561234
1780625768010813200,8.034813232421875,0.04341675341129303,-0.16185477375984192,0.2845035493373871
1780625768020808200,8.04480810546875,-0.11301759630441666,0.24997620284557343,0.5011247992515564
1780625768030804200,8.05480419921875,-0.22826451063156128,0.5379946231842041,0.5960238575935364
1780625768040799200,8.06479931640625,-0.3140510618686676,0.7189998626708984,0.5261289477348328
1780625768050794200,8.074794189453126,-0.37213796377182007,0.8562495112419128,0.29794973134994507
1780625768060789200,8.084789306640625,-0.38403138518333435,0.9865281581878662,-0.02490900829434395
1780625768070784300,8.0947841796875,-0.3248696029186249,1.0914490222930908,-0.29548534750938416
1780625768080780300,8.1047802734375,-0.17375358939170837,1.0573277473449707,-0.37282994389533997
1780625768090775300,8.114775390625,0.018086649477481842,0.7793580293655396,-0.21174445748329163
1780625768100770300,8.124770263671875,0.14527229964733124,0.3243963420391083,-0.003307898296043277
1780625768110765300,8.134765380859376,0.1413486897945404,-0.12149166315793991,0.0888773500919342
1780625768120760300,8.14476025390625,0.04066789522767067,-0.3791953921318054,0.09405720233917236
1780625768130755000,8.154755126953125,-0.09108084440231323,-0.3843531012535095,0.05707554891705513
1780625768140751400,8.16475146484375,-0.22048544883728027,-0.1404607892036438,0.02368110790848732
1780625768150746400,8.174746337890625,-0.3371961712837219,0.25101035833358765,0.006737952586263418
1780625768160741400,8.184741455078125,-0.4269212484359741,0.729481041431427,0.011360401287674904
1780625768170736400,8.194736328125,-0.462773859500885,1.1716972589492798,0.060265105217695236
1780625768180731400,8.2047314453125,-0.40420374274253845,1.418493390083313,0.12997201085090637
1780625768190727200,8.21472705078125,-0.2719419598579407,1.3737822771072388,0.10813979804515839
1780625768200722200,8.22472216796875,-0.1200251504778862,1.078018307685852,-0.11753833293914795
1780625768210717200,8.23471728515625,0.003220168873667717,0.5896579623222351,-0.4783020317554474
1780625768220712200,8.244712158203125,0.08318743854761124,-0.034931059926748276,-0.7347385883331299
1780625768230707200,8.254707275390626,0.13472406566143036,-0.6647617816925049,-0.7903136014938354
1780625768240703200,8.264703125,0.13545671105384827,-1.096111536026001,-0.6863358020782471
1780625768250698200,8.2746982421875,0.08925381302833557,-1.1540464162826538,-0.5241442918777466
1780625768260693200,8.284693359375,0.04301680251955986,-0.8022070527076721,-0.3467388451099396
1780625768270688300,8.294688232421874,0.028539638966321945,-0.10524597018957138,-0.1179790049791336
1780625768280683300,8.304683349609375,0.06005069613456726,0.7260821461677551,0.08890627324581146
1780625768290679300,8.31467919921875,0.1364525854587555,1.1974447965621948,0.1444719135761261
1780625768300674300,8.32467431640625,0.20760692656040192,1.1760170459747314,0.04627637565135956
1780625768310669000,8.3346689453125,0.21628735959529877,0.9527220726013184,-0.11013154685497284
1780625768320664000,8.3446640625,0.16527077555656433,0.7055903077125549,-0.13829581439495087
1780625768330659000,8.3546591796875,0.10219208151102066,0.46589195728302,-0.051894042640924454
1780625768340655400,8.3646552734375,0.05171212553977966,0.27069103717803955,0.03038645163178444
1780625768350650400,8.374650390625,0.013730278238654137,0.10345126688480377,0.006677333265542984
1780625768360645400,8.384645263671874,0.008198093622922897,-0.12572385370731354,-0.12225401401519775
1780625768370640400,8.394640380859375,0.04761561378836632,-0.38682252168655396,-0.20598971843719482
1780625768380635100,8.40463525390625,0.12124375998973846,-0.5748323798179626,-0.19434185326099396
1780625768390630100,8.414630126953124,0.19949336349964142,-0.5188894867897034,-0.14961868524551392
1780625768400626200,8.424626220703125,0.22330787777900696,-0.2363048791885376,-0.11685381829738617
1780625768410621200,8.43462109375,0.16899672150611877,0.10462499409914017,-0.06063918396830559
1780625768420616200,8.4446162109375,0.05808645114302635,0.33878982067108154,0.06937766820192337
1780625768430611200,8.454611083984375,-0.0721750557422638,0.42087265849113464,0.2249070405960083
1780625768440606500,8.4646064453125,-0.20272961258888245,0.4707365930080414,0.34598153829574585
1780625768450602200,8.474602294921874,-0.2820824980735779,0.5099035501480103,0.40048399567604065
1780625768460597200,8.48459716796875,-0.2969474494457245,0.4769991338253021,0.3630649745464325
1780625768470592300,8.49459228515625,-0.22254008054733276,0.3555535078048706,0.23714962601661682
1780625768480587300,8.504587158203124,-0.07694853842258453,0.13364878296852112,0.0754091888666153
1780625768490582300,8.514582275390625,0.031281761825084686,-0.11682014912366867,-0.10655255615711212
1780625768500578000,8.524578125,0.034696467220783234,-0.309764564037323,-0.2383289486169815
1780625768510573000,8.534572998046874,-0.022415420040488243,-0.3875293433666229,-0.24745576083660126
1780625768520568300,8.544568359375,-0.08988900482654572,-0.3833763897418976,-0.1362280398607254
1780625768530563300,8.554563232421875,-0.137643963098526,-0.34084948897361755,0.015379616990685463
1780625768540558300,8.564558349609374,-0.1530998796224594,-0.24632297456264496,0.13459575176239014
1780625768550554400,8.574554443359375,-0.1657012552022934,-0.12567824125289917,0.21149154007434845
1780625768560549400,8.58454931640625,-0.1867343783378601,-0.03639336675405502,0.23620860278606415
1780625768570544000,8.594544189453124,-0.19427070021629333,-0.023447303101420403,0.21906663477420807
1780625768580539100,8.6045390625,-0.1836862415075302,-0.11942070722579956,0.1894480139017105
1780625768590534100,8.6145341796875,-0.16376975178718567,-0.28566882014274597,0.16593755781650543
1780625768600530400,8.624530517578124,-0.14451217651367188,-0.484795480966568,0.12856808304786682
1780625768610525400,8.634525390625,-0.13760559260845184,-0.6371606588363647,0.07230641692876816
1780625768620520400,8.6445205078125,-0.16505691409111023,-0.694599449634552,0.044137101620435715
1780625768630515500,8.654515380859374,-0.22497397661209106,-0.665828287601471,0.08818617463111877
1780625768640510200,8.66451025390625,-0.2874453663825989,-0.5472702383995056,0.19638456404209137
1780625768650505200,8.674505126953125,-0.33510762453079224,-0.4135161340236664,0.3419932425022125
1780625768660501200,8.684501220703124,-0.36390092968940735,-0.32866382598876953,0.48304492235183716
1780625768670496300,8.694496337890625,-0.3781825602054596,-0.30306878685951233,0.5964537262916565
1780625768680491300,8.7044912109375,-0.3828606903553009,-0.3154897689819336,0.6469326019287109
1780625768690486300,8.714486328125,-0.3704403340816498,-0.3929649293422699,0.6377999782562256
1780625768700481300,8.724481201171875,-0.3372879922389984,-0.5532459020614624,0.5704470276832581
1780625768710477300,8.734477294921875,-0.2811102271080017,-0.761586606502533,0.434562087059021
1780625768720472300,8.744472412109374,-0.219015434384346,-1.00094735622406,0.2817762792110443
1780625768730467300,8.75446728515625,-0.16586622595787048,-1.1856682300567627,0.13826780021190643
1780625768740462300,8.76446240234375,-0.13229414820671082,-1.2571765184402466,0.03693317994475365
1780625768750457300,8.774457275390626,-0.14787998795509338,-1.2211402654647827,0.016584254801273346
1780625768760453000,8.784453125,-0.22183917462825775,-1.1322317123413086,0.09294799715280533
1780625768770448100,8.7944482421875,-0.3197334110736847,-0.9821004271507263,0.2273027002811432
1780625768780443100,8.804443115234376,-0.3903692364692688,-0.697679340839386,0.3292232155799866
1780625768790438100,8.814438232421875,-0.40846920013427734,-0.23731783032417297,0.33743104338645935
1780625768800433400,8.824433349609375,-0.4064366817474365,0.2939082086086273,0.2918286621570587
1780625768810429400,8.834429443359374,-0.43004509806632996,0.7471223473548889,0.24921736121177673
1780625768820424200,8.844424072265625,-0.4934498965740204,1.0120083093643188,0.2339281588792801
1780625768830419200,8.854419189453125,-0.6019815802574158,1.0502547025680542,0.23485206067562103
1780625768840414200,8.864414306640626,-0.7236452102661133,0.84263014793396,0.21755963563919067
1780625768850409200,8.8744091796875,-0.8256047368049622,0.46161049604415894,0.16640117764472961
1780625768860405200,8.8844052734375,-0.8778482675552368,0.06860087811946869,0.08166126906871796
1780625768870400300,8.894400146484376,-0.8638620972633362,-0.20245330035686493,0.001082029426470399
1780625768880395300,8.904395263671875,-0.7919362187385559,-0.2995779812335968,-0.037309568375349045
1780625768890390300,8.914390380859375,-0.6899188160896301,-0.2515574097633362,-0.016028808429837227
1780625768900385300,8.92438525390625,-0.5935875177383423,-0.09572388231754303,0.04440710321068764
1780625768910381300,8.93438134765625,-0.5146825909614563,0.09157555550336838,0.10951191186904907
1780625768920376300,8.944376220703125,-0.47209304571151733,0.30687829852104187,0.14987346529960632
1780625768930371300,8.954371337890626,-0.47313442826271057,0.5468776226043701,0.16437439620494843
1780625768940366300,8.964366455078125,-0.5134970545768738,0.7251507043838501,0.1358008086681366
1780625768950361300,8.974361328125,-0.571884036064148,0.739267110824585,0.07931441813707352
1780625768960357000,8.984357177734376,-0.6221746206283569,0.6277996897697449,0.050113122910261154
1780625768970352000,8.99435205078125,-0.6398774981498718,0.4463982582092285,0.05531078949570656
1780625768980347400,9.004347412109375,-0.6103118658065796,0.2232581079006195,0.0829477459192276
1780625768990342400,9.01434228515625,-0.5242072343826294,-0.017443174496293068,0.1034579649567604
1780625769000337400,9.02433740234375,-0.4031756520271301,-0.2780388295650482,0.09641044586896896
1780625769010333200,9.034333251953125,-0.2866355776786804,-0.4348818361759186,0.08936190605163574
1780625769020328200,9.044328125,-0.2212752252817154,-0.3982918858528137,0.08425663411617279
1780625769030323200,9.0543232421875,-0.2139090597629547,-0.2676004469394684,0.0654139369726181
1780625769040318200,9.064318115234375,-0.22206659615039825,-0.09874751418828964,0.0712348148226738
1780625769050313200,9.074313232421876,-0.22899767756462097,0.10629001259803772,0.10706474632024765
1780625769060309200,9.084309326171875,-0.23775601387023926,0.30634936690330505,0.15539951622486115
1780625769070304500,9.094304443359375,-0.2617036998271942,0.4814109206199646,0.20672395825386047
1780625769080299300,9.10429931640625,-0.29934293031692505,0.599590539932251,0.22988493740558624
1780625769090294300,9.114294189453124,-0.33906662464141846,0.5934712290763855,0.23542827367782593
1780625769100289300,9.124289306640625,-0.3598558008670807,0.33558106422424316,0.23576408624649048
1780625769110285300,9.134285400390626,-0.3436221480369568,-0.1404479593038559,0.24992510676383972
1780625769120280300,9.1442802734375,-0.2910721004009247,-0.5293227434158325,0.2917380630970001
1780625769130275300,9.154275390625,-0.22564995288848877,-0.6834416389465332,0.3236024081707001
1780625769140270300,9.164270263671876,-0.16810649633407593,-0.6501950025558472,0.297568678855896
1780625769150265300,9.174265380859374,-0.11530860513448715,-0.5015240907669067,0.21409854292869568
1780625769160260000,9.184260009765625,-0.053231388330459595,-0.224887415766716,0.1402413696050644
1780625769170256400,9.19425634765625,0.008985407650470734,0.15632818639278412,0.11011698842048645
1780625769180251400,9.20425146484375,0.06517437100410461,0.5243538618087769,0.0982360988855362
1780625769190246400,9.214246337890625,0.08415962010622025,0.7299162149429321,0.07860983908176422
1780625769200241400,9.224241455078126,0.043619655072689056,0.7497290372848511,0.034773681312799454
1780625769210236400,9.234236328125,-0.033395469188690186,0.5926917195320129,0.0003695632331073284
1780625769220232200,9.244232177734375,-0.09942615032196045,0.27102556824684143,0.014588179998099804
1780625769230227200,9.254227294921876,-0.1078217476606369,-0.05603114143013954,0.07399967312812805
1780625769240222200,9.26422216796875,-0.0431056022644043,-0.21628952026367188,0.13956616818904877
1780625769250217200,9.27421728515625,0.029985737055540085,-0.24347999691963196,0.13042309880256653
1780625769260212200,9.284212158203125,0.06113433092832565,-0.27391836047172546,0.06076624616980553
1780625769270208300,9.294208251953124,0.0629577562212944,-0.2310120314359665,-0.012875639833509922
1780625769280203300,9.304203369140625,0.04649648815393448,-0.02514302171766758,-0.052633706480264664
1780625769290198300,9.3141982421875,0.06202038750052452,0.20916521549224854,-0.06450528651475906
1780625769300193300,9.324193359375,0.11862906813621521,0.35976725816726685,-0.09324346482753754
1780625769310188300,9.334188232421875,0.18932683765888214,0.4006516933441162,-0.13655489683151245
1780625769320184300,9.344184326171876,0.2195766270160675,0.2812741696834564,-0.21305952966213226
1780625769330179300,9.354179443359374,0.17855456471443176,0.10381368547677994,-0.30945318937301636
1780625769340174000,9.364174072265625,0.10716560482978821,0.07012896239757538,-0.376011461019516
1780625769350169000,9.374169189453125,0.09156310558319092,0.2527817487716675,-0.29667288064956665
1780625769360164400,9.384164306640624,0.10680783540010452,0.3391914963722229,-0.13593752682209015
1780625769370160400,9.394160400390625,0.1148843839764595,0.18310077488422394,-0.05736202746629715
1780625769380155400,9.4041552734375,0.10524480789899826,0.08301092684268951,-0.06011013686656952
1780625769390150400,9.414150390625,0.08466503769159317,0.15663406252861023,-0.11084266752004623
1780625769400145400,9.4241455078125,0.07970276474952698,0.2020561397075653,-0.19944071769714355
1780625769410140200,9.43414013671875,0.10619835555553436,0.13214802742004395,-0.2505449056625366
1780625769420136200,9.44413623046875,0.14570848643779755,0.02608710341155529,-0.2261335849761963
1780625769430131200,9.454131103515625,0.18599765002727509,-0.06736557930707932,-0.17448504269123077
1780625769440126200,9.464126220703125,0.20996157824993134,-0.013234964571893215,-0.13581913709640503
1780625769450121500,9.47412158203125,0.20342063903808594,0.21742795407772064,-0.1253250539302826
1780625769460116500,9.484116455078125,0.18426477909088135,0.3567458987236023,-0.13665547966957092
1780625769470111500,9.494111572265625,0.16917452216148376,0.2986232042312622,-0.1514008641242981
1780625769480107300,9.504107177734374,0.1547497808933258,0.0658530741930008,-0.20195165276527405
1780625769490102300,9.514102294921875,0.1381395161151886,-0.18879857659339905,-0.2916763722896576
1780625769500097300,9.52409716796875,0.11036673188209534,-0.2518813908100128,-0.370396226644516
1780625769510092300,9.53409228515625,0.09323764592409134,-0.0595494769513607,-0.3390680253505707
1780625769520086800,9.544086669921874,0.10542027652263641,0.2407301813364029,-0.2131686955690384
1780625769530082800,9.554082763671875,0.13062043488025665,0.3593409061431885,-0.091401107609272
1780625769540077800,9.564077880859376,0.15565147995948792,0.27942344546318054,-0.046532973647117615
1780625769550072800,9.57407275390625,0.1558573842048645,0.15888981521129608,-0.06464467197656631
1780625769560067800,9.58406787109375,0.0917351171374321,0.08948276937007904,-0.12572745978832245
1780625769570064000,9.59406396484375,0.001928884070366621,0.13068537414073944,-0.15123149752616882
1780625769580059000,9.604058837890625,-0.06610183417797089,0.13118258118629456,-0.1507073938846588
1780625769590054000,9.614053955078125,-0.07351549714803696,-0.05106643959879875,-0.1854066252708435
1780625769600049000,9.624048828125,-0.012543220072984695,-0.14105571806430817,-0.19798792898654938
1780625769610043600,9.634043701171874,0.09740106761455536,-0.07918831706047058,-0.1474403589963913
1780625769620039000,9.644038818359375,0.2135910540819168,-0.08185174316167831,-0.11692506074905396
1780625769630035000,9.654034912109376,0.2432403415441513,-0.14533327519893646,-0.14164113998413086
1780625769640030000,9.664030029296875,0.18121184408664703,-0.06039201840758324,-0.1361915022134781
1780625769650025000,9.67402490234375,0.08270715177059174,0.2062753289937973,-0.11358879506587982
1780625769660020000,9.68402001953125,0.01502957008779049,0.4242667853832245,-0.11734198778867722
1780625769670015000,9.694014892578124,0.011957972310483456,0.47657281160354614,-0.09370940178632736
1780625769680010800,9.7040107421875,0.042914025485515594,0.3059789538383484,-0.08622965216636658
1780625769690005800,9.714005859375,0.08937561511993408,0.00290070497430861,-0.10827254503965378
1780625769700000800,9.724000732421874,0.13556015491485596,-0.15155571699142456,-0.11328062415122986
1780625769709996000,9.73399609375,0.1628962904214859,-0.05307501554489136,-0.07123005390167236
1780625769719991000,9.743990966796876,0.13279537856578827,0.0386892594397068,-0.03679059073328972
1780625769729986800,9.75398681640625,0.0544673390686512,0.005145192611962557,-0.05759236961603165
1780625769739981800,9.76398193359375,-0.033167172223329544,-0.04697420075535774,-0.14397971332073212
1780625769749976800,9.773976806640626,-0.0995970219373703,-0.23246116936206818,-0.27074670791625977
1780625769759971800,9.783971923828124,-0.13381412625312805,-0.4858678877353668,-0.28250083327293396
1780625769769966800,9.793966796875,-0.06100837141275406,-0.4058941900730133,-0.12328039109706879
1780625769779963000,9.803962890625,0.07721368968486786,-0.18749555945396423,0.010362097062170506
1780625769789958000,9.8139580078125,0.17306773364543915,-0.18174779415130615,-0.07789281755685806
1780625769799953000,9.823952880859375,0.1604616492986679,-0.05501222610473633,-0.24442347884178162
1780625769809948000,9.833947998046876,0.06236473098397255,0.15856409072875977,-0.3237336575984955
1780625769819943000,9.84394287109375,-0.02390730381011963,0.2151765078306198,-0.3022102415561676
1780625769829939000,9.85393896484375,-0.06897441297769547,0.07838033139705658,-0.2594033479690552
1780625769839934000,9.863933837890626,-0.10287618637084961,-0.14647462964057922,-0.23202790319919586
1780625769849929000,9.873928955078124,-0.10343997925519943,-0.38597989082336426,-0.20512571930885315
1780625769859923700,9.883923828125,-0.04127807542681694,-0.3715205192565918,-0.10966098308563232
1780625769869918700,9.893918701171875,0.04726838320493698,-0.24817104637622833,-0.007067402359098196
1780625769879914800,9.903914794921874,0.10684702545404434,-0.33514612913131714,-0.021347004920244217
1780625769889910000,9.913909912109375,0.11207824945449829,-0.32294875383377075,-0.052073024213314056
1780625769899905000,9.923905029296876,0.0708828717470169,-0.2519203722476959,-0.08352522552013397
1780625769909900000,9.933900146484374,0.03951391950249672,-0.24040959775447845,-0.16693414747714996
1780625769919895000,9.94389501953125,0.0386023186147213,-0.11469907313585281,-0.233562171459198
1780625769929890800,9.953890869140626,0.08240487426519394,-0.02572149969637394,-0.24814726412296295
1780625769939885800,9.9638857421875,0.17600274085998535,0.13645648956298828,-0.1691424697637558
1780625769949880800,9.973880859375,0.29063349962234497,0.2609800100326538,-0.12155468016862869
1780625769959875800,9.983875732421875,0.39436575770378113,0.3048473298549652,-0.2256464660167694
1780625769969870800,9.993870849609374,0.4429418742656708,0.3273700177669525,-0.44876551628112793
1780625769979865900,10.003865966796875,0.4375185966491699,0.26818791031837463,-0.6214211583137512
1780625769989862000,10.01386181640625,0.38568180799484253,0.47963905334472656,-0.5809181332588196
1780625769999857000,10.02385693359375,0.32694098353385925,0.7563433647155762,-0.4345311224460602
1780625770009852000,10.033851806640625,0.3014073371887207,0.6597609519958496,-0.35223057866096497
1780625770019847000,10.043846923828125,0.31617510318756104,0.42389485239982605,-0.33276286721229553
1780625770029842000,10.053842041015624,0.36675986647605896,0.12334372848272324,-0.29600805044174194
1780625770039838000,10.063837890625,0.44435131549835205,-0.07725834846496582,-0.17304033041000366
1780625770049832700,10.073832763671875,0.5141631960868835,-0.0008511923952028155,0.042414192110300064
1780625770059827700,10.08382763671875,0.5470300912857056,0.21396496891975403,0.23831045627593994
1780625770069822700,10.09382275390625,0.5724316835403442,0.3655231297016144,0.37992557883262634
1780625770079817700,10.103817626953125,0.6390174031257629,0.4288262128829956,0.4787871837615967
1780625770089814000,10.11381396484375,0.8149557113647461,0.35629069805145264,0.5380558371543884
1780625770099809000,10.12380908203125,1.1371697187423706,0.21095402538776398,0.5718103051185608
1780625770109804000,10.133803955078125,1.5865877866744995,-0.03280895948410034,0.5077032446861267
1780625770119798800,10.143798828125,1.973831057548523,-0.5170235633850098,0.2735957205295563
1780625770129793800,10.153793701171875,1.8961735963821411,-0.7914798855781555,-0.00478654820472002
1780625770139789800,10.163789794921875,1.3537404537200928,-0.18580012023448944,-0.05167389661073685
1780625770149784800,10.173784912109374,0.6784294843673706,1.0643327236175537,0.1320495903491974
1780625770159779800,10.18377978515625,0.24424871802330017,1.5964722633361816,0.30088815093040466
1780625770169774800,10.19377490234375,0.2424292415380478,0.994769811630249,0.269034743309021
1780625770179769900,10.203769775390626,0.5061138868331909,-0.012361799366772175,0.05235648900270462
1780625770189766000,10.213765869140625,0.7113816142082214,-0.5969594120979309,-0.1762361228466034
1780625770199761000,10.223760986328125,0.8824665546417236,-0.5458909273147583,-0.3427340090274811
1780625770209756000,10.233755859375,1.1475247144699097,-0.3582233786582947,-0.3919711410999298
1780625770219751000,10.2437509765625,1.4077990055084229,-0.12166009843349457,-0.21405385434627533
1780625770229746000,10.253745849609375,1.455026388168335,0.36811935901641846,0.10724221915006638
1780625770239741700,10.26374169921875,1.1735925674438477,0.9848730564117432,0.36635899543762207
1780625770249736700,10.27373681640625,0.7294641733169556,1.2802261114120483,0.4431830644607544
1780625770259731700,10.283731689453125,0.4723261296749115,1.0295664072036743,0.3990235924720764
1780625770269726700,10.293726806640626,0.48547250032424927,0.3200990557670593,0.330117404460907
1780625770279722000,10.303721923828125,0.6126909255981445,-0.5178488492965698,0.24441421031951904
1780625770289718000,10.313718017578125,0.7131839990615845,-1.1253657341003418,0.17368994653224945
1780625770299713000,10.323713134765624,0.708749532699585,-1.3176512718200684,0.08652228116989136
1780625770309707800,10.333707763671875,0.5810965895652771,-1.0734432935714722,-0.024315960705280304
1780625770319702800,10.343702880859375,0.37209171056747437,-0.3276444375514984,-0.20358212292194366
1780625770329697800,10.35369775390625,0.13491865992546082,0.7233781814575195,-0.5523748397827148
1780625770339693800,10.36369384765625,-0.08302272856235504,1.7203969955444336,-0.99879390001297
1780625770349688800,10.373688720703125,-0.23559558391571045,2.297311782836914,-1.4240676164627075
1780625770359683800,10.383683837890626,-0.31630322337150574,2.3649559020996094,-1.7322912216186523
1780625770369678800,10.393678955078125,-0.3414880633354187,2.0853822231292725,-1.8793755769729614
1780625770379673900,10.403673828125,-0.3797105550765991,1.7512166500091553,-1.8991894721984863
1780625770389670000,10.413669921875,-0.5127683877944946,1.606675624847412,-1.9030864238739014
1780625770399665000,10.423664794921875,-0.7369165420532227,1.7850366830825806,-1.9587223529815674
1780625770409660000,10.433659912109375,-1.019658088684082,2.2029013633728027,-2.019594430923462
1780625770419655000,10.443655029296876,-1.2908982038497925,2.5816028118133545,-2.0553712844848633
1780625770429650000,10.45364990234375,-1.5109798908233643,2.628844976425171,-2.0348501205444336
1780625770439645700,10.463645751953125,-1.6228907108306885,2.3728556632995605,-1.9430439472198486
1780625770449640700,10.473640625,-1.667479395866394,2.0678982734680176,-1.8856803178787231
1780625770459636000,10.483635986328125,-1.7122902870178223,1.7670533657073975,-1.974158525466919
1780625770469631000,10.493630859375,-1.7966269254684448,1.4857722520828247,-2.164149045944214
1780625770479626000,10.5036259765625,-1.9482574462890625,1.2755738496780396,-2.2992148399353027
1780625770489621000,10.51362109375,-2.1918506622314453,1.2415767908096313,-2.332643508911133
1780625770499616800,10.52361669921875,-2.5463449954986572,1.401343584060669,-2.376204490661621
1780625770509611800,10.53361181640625,-2.980501174926758,1.4853242635726929,-2.439258098602295
1780625770519607600,10.543607666015625,-3.5089821815490723,1.3300065994262695,-2.563070774078369
1780625770529602600,10.5536025390625,-4.049651145935059,1.2045243978500366,-2.8133656978607178
1780625770539597600,10.56359765625,-4.438883304595947,0.9491384625434875,-3.033923625946045
1780625770549593300,10.57359326171875,-4.549356937408447,0.38910385966300964,-3.1530728340148926
1780625770559588400,10.58358837890625,-4.315861701965332,-0.3417740762233734,-3.2112269401550293
1780625770569583400,10.593583251953126,-4.0327606201171875,-0.761504590511322,-3.147566318511963
1780625770579578400,10.603578369140624,-3.8865883350372314,-0.6419134736061096,-2.947521924972534
1780625770589573400,10.613573486328125,-3.824838638305664,-0.5093620419502258,-2.612637758255005
1780625770599569700,10.623569580078126,-3.75457763671875,-0.5713614821434021,-2.2461142539978027
1780625770609564400,10.633564453125,-3.580191135406494,-0.6763170957565308,-1.9905835390090942
1780625770619559400,10.643559326171875,-3.3196234703063965,-1.028524398803711,-1.8666751384735107
1780625770629554400,10.653554443359376,-3.040104627609253,-1.3913182020187378,-1.6870983839035034
1780625770639549400,10.663549560546874,-2.7709972858428955,-1.360511064529419,-1.4141006469726562
1780625770649545500,10.67354541015625,-2.5206401348114014,-0.9489738941192627,-1.072935700416565
1780625770659540500,10.68354052734375,-2.2846224308013916,-0.506840169429779,-0.7139989137649536
1780625770669535500,10.693535400390624,-1.9693098068237305,-0.32101261615753174,-0.3656753599643707
1780625770679530500,10.703530517578125,-1.6536165475845337,-0.14419789612293243,-0.1153845489025116
1780625770689525500,10.713525390625,-1.431274175643921,0.07095418125391006,0.08630713820457458
1780625770699521500,10.723521484375,-1.3820775747299194,0.14906015992164612,0.2404831349849701
1780625770709516500,10.7335166015625,-1.446413516998291,0.12420053035020828,0.2524730861186981
1780625770719511600,10.743511474609376,-1.4344916343688965,0.08165574073791504,0.27085423469543457
1780625770729506600,10.753506591796874,-1.3402403593063354,0.1629553884267807,0.3623301088809967
1780625770739501600,10.76350146484375,-1.3284549713134766,0.26899445056915283,0.4178871214389801
1780625770749497300,10.773497314453126,-1.3705055713653564,0.23821735382080078,0.3516164720058441
1780625770759492400,10.783492431640624,-1.4070460796356201,0.0786665678024292,0.2015707939863205
1780625770769487400,10.7934873046875,-1.4356516599655151,-0.12050435692071915,0.08431290090084076
1780625770779482600,10.803482666015626,-1.4603055715560913,-0.10896541178226471,0.07875940948724747
1780625770789477600,10.8134775390625,-1.4784159660339355,0.11276734620332718,0.1498274803161621
1780625770799473400,10.823473388671875,-1.487714171409607,0.2641001343727112,0.18681852519512177
1780625770809468400,10.833468505859376,-1.5240894556045532,0.3250643014907837,0.12731117010116577
1780625770819463400,10.84346337890625,-1.6352314949035645,0.2780488431453705,-0.031042786315083504
1780625770829458400,10.85345849609375,-1.760819435119629,0.11184869706630707,-0.186311736702919
1780625770839453400,10.863453369140625,-1.8517643213272095,0.05619475990533829,-0.3130022883415222
1780625770849448400,10.873448486328124,-1.9053795337677002,0.08531457185745239,-0.4060865342617035
1780625770859444500,10.883444580078125,-1.864819884300232,0.12695468962192535,-0.4631141424179077
1780625770869439500,10.893439453125,-1.8168210983276367,0.10200115293264389,-0.525827944278717
1780625770879434500,10.9034345703125,-1.8417689800262451,0.05146953463554382,-0.6020915508270264
1780625770889429500,10.913429443359375,-1.9237220287322998,0.048428725451231,-0.6968722939491272
1780625770899424500,10.923424560546875,-1.9564733505249023,-0.06966595351696014,-0.7491768002510071
1780625770909420500,10.933420654296874,-1.9547114372253418,-0.3310285210609436,-0.7380279302597046
1780625770919415600,10.94341552734375,-1.8561859130859375,-0.5338500738143921,-0.7507964372634888
1780625770929410600,10.95341064453125,-1.6475733518600464,-0.5721563100814819,-0.8670295476913452
1780625770939405600,10.963405517578124,-1.5206289291381836,-0.579858660697937,-0.9001235961914062
1780625770949400300,10.973400390625,-1.505212664604187,-0.41986382007598877,-0.8359811902046204
1780625770959396600,10.983396728515626,-1.5222651958465576,-0.2111191302537918,-0.7629815340042114
1780625770969391600,10.9933916015625,-1.5031421184539795,-0.003177900332957506,-0.6923345923423767
1780625770979386600,11.00338671875,-1.5131385326385498,0.09099893271923065,-0.6186092495918274
1780625770989381600,11.013381591796875,-1.501440405845642,0.043717920780181885,-0.5949562191963196
1780625770999376600,11.023376708984374,-1.422842025756836,-0.0051305778324604034,-0.6299885511398315
1780625771009372400,11.033372314453125,-1.3302887678146362,-0.13823454082012177,-0.5920689105987549
1780625771019367400,11.043367431640625,-1.2022581100463867,-0.2946893870830536,-0.4644334614276886
1780625771029362400,11.053362548828124,-1.0387576818466187,-0.40095555782318115,-0.3366551995277405
1780625771039357400,11.063357421875,-0.9162260890007019,-0.42866066098213196,-0.2078743278980255
1780625771049352400,11.0733525390625,-0.8735964298248291,-0.3687778413295746,-0.1548108011484146
1780625771059348500,11.083348388671874,-0.8365755677223206,-0.2427634447813034,-0.24643473327159882
1780625771069343500,11.093343505859375,-0.7905184626579285,-0.18611253798007965,-0.3011055290699005
1780625771079338500,11.10333837890625,-0.8030704259872437,-0.20011916756629944,-0.29565590620040894
1780625771089333500,11.11333349609375,-0.8406548500061035,-0.24119128286838531,-0.3624783158302307
1780625771099328500,11.12332861328125,-0.8704492449760437,-0.3543332815170288,-0.5244744420051575
1780625771109323500,11.133323486328125,-0.8320668339729309,-0.5395410060882568,-0.6717419028282166
1780625771119319600,11.143319580078124,-0.7528436183929443,-0.7128669619560242,-0.722733736038208
1780625771129314300,11.153314208984375,-0.6944156885147095,-0.7528595328330994,-0.6315245628356934
1780625771139309300,11.163309326171875,-0.6192785501480103,-0.5237616300582886,-0.49929356575012207
1780625771149304300,11.17330419921875,-0.4837031662464142,-0.19877538084983826,-0.520545482635498
1780625771159299600,11.183299560546875,-0.28955021500587463,-0.19248072803020477,-0.586909294128418
1780625771169295600,11.193295654296875,-0.1235981434583664,-0.2457733154296875,-0.6775919795036316
1780625771179290600,11.20329052734375,-0.05376632511615753,-0.22901004552841187,-0.6343827247619629
1780625771189285600,11.21328564453125,-0.0708448737859726,-0.1823786497116089,-0.5436220169067383
1780625771199280400,11.2232802734375,-0.07185368239879608,-0.11840180307626724,-0.5409148931503296
1780625771209275400,11.233275390625,-0.04084876552224159,-0.08982190489768982,-0.5547423958778381
1780625771219271400,11.243271484375,-0.053500909358263016,-0.09719646722078323,-0.5149854421615601
1780625771229266400,11.253266357421875,-0.06397253274917603,-0.09296891838312149,-0.3476881980895996
1780625771239261400,11.263261474609376,-0.056155093014240265,-0.01272494439035654,-0.06794068962335587
1780625771249256700,11.273256591796875,0.010669056326150894,0.1471659243106842,0.17672593891620636
1780625771259251700,11.283251708984375,0.13207696378231049,0.2699536383152008,0.28524869680404663
1780625771269247500,11.29324755859375,0.2517310678958893,0.26311251521110535,0.17878767848014832
1780625771279242500,11.303242431640625,0.2991723418235779,0.20193597674369812,0.14730004966259003
1780625771289237500,11.313237548828125,0.19496361911296844,0.22884707152843475,0.25395533442497253
1780625771299232500,11.323232421875,0.05162403732538223,0.1550775170326233,0.3774069547653198
1780625771309227500,11.3332275390625,0.006912751588970423,0.009416891261935234,0.41738036274909973
1780625771319223300,11.343223388671875,0.08050601184368134,-0.08951660990715027,0.3944063186645508
1780625771329218300,11.35321826171875,0.1778571754693985,-0.08716165274381638,0.4077749252319336
1780625771339213600,11.363213623046875,0.20818577706813812,0.03564309701323509,0.4392894208431244
1780625771349208600,11.37320849609375,0.2474309206008911,0.17798852920532227,0.4956035614013672
1780625771359203600,11.38320361328125,0.30966314673423767,0.325762003660202,0.4956653416156769
1780625771369199600,11.39319970703125,0.3818925619125366,0.3346596360206604,0.41117316484451294
1780625771379194600,11.403194580078125,0.41097986698150635,0.18776768445968628,0.31022125482559204
1780625771389189400,11.413189453125,0.33747225999832153,0.030978931114077568,0.24670374393463135
1780625771399184400,11.423184326171874,0.18348641693592072,-0.047251421958208084,0.2805810272693634
1780625771409179400,11.433179443359375,0.0544055812060833,-0.08131390810012817,0.35142606496810913
1780625771419174400,11.44317431640625,0.033998046070337296,-0.026068760082125664,0.38866692781448364
1780625771429170700,11.453170654296875,0.07859139889478683,0.07372384518384933,0.41245323419570923
1780625771439165700,11.463165771484375,0.09263025224208832,0.09217289090156555,0.49065378308296204
1780625771449160400,11.473160400390626,0.07275258749723434,0.05208297073841095,0.5072569251060486
1780625771459155500,11.483155517578124,-0.013356998562812805,-0.037114016711711884,0.4328175485134125
1780625771469150500,11.493150390625,-0.0702955573797226,-0.16756369173526764,0.39041730761528015
1780625771479146500,11.503146484375,-0.08346302062273026,-0.3128732144832611,0.5029387474060059
1780625771489141500,11.5131416015625,-0.09304661303758621,-0.39144760370254517,0.6591543555259705
1780625771499136500,11.523136474609375,-0.07774675637483597,-0.2807820737361908,0.7669535279273987
1780625771509131500,11.533131591796876,-0.029836850240826607,-0.03641790151596069,0.8974161148071289
1780625771519126500,11.54312646484375,-0.04135742038488388,0.16852672398090363,1.0078803300857544
1780625771529122300,11.553122314453125,-0.09468070417642593,0.21473407745361328,0.9710447192192078
1780625771539117300,11.563117431640626,-0.09760937839746475,0.0997592955827713,0.8260337114334106
1780625771549112300,11.5731123046875,-0.08165453374385834,0.001543437479995191,0.6883140206336975
1780625771559107300,11.583107421875,-0.11416267603635788,-0.04082692041993141,0.5713312029838562
1780625771569102300,11.593102294921875,-0.11372005939483643,-0.0953410342335701,0.42515799403190613
1780625771579098400,11.603098388671874,-0.008366473019123077,-0.16511131823062897,0.3200494050979614
1780625771589093400,11.61309326171875,0.15272851288318634,-0.12319909781217575,0.2568497359752655
1780625771599088400,11.62308837890625,0.27608078718185425,0.03372526913881302,0.20288875699043274
1780625771609083400,11.63308349609375,0.2923189699649811,0.19670312106609344,0.09706813842058182
1780625771619078400,11.643078369140625,0.26555314660072327,0.24121439456939697,-0.0009186079259961843
1780625771629073400,11.653073486328125,0.2243238091468811,0.2215636521577835,-0.10252523422241211
1780625771639069400,11.6630693359375,0.23410587012767792,0.20664969086647034,-0.16805097460746765
1780625771649064200,11.673064208984375,0.27435824275016785,0.19901145994663239,-0.11732086539268494
1780625771659059200,11.68305908203125,0.32115742564201355,0.09434017539024353,-0.09953734278678894
1780625771669054200,11.69305419921875,0.4308052957057953,-0.03774547576904297,-0.14491191506385803
1780625771679049200,11.70304931640625,0.49844691157341003,-0.035864219069480896,-0.11672448366880417
1780625771689045500,11.71304541015625,0.5060831904411316,0.100677989423275,-0.02058468572795391
1780625771699040500,11.72304052734375,0.44302695989608765,0.2535058856010437,0.08862622082233429
1780625771709035500,11.733035400390625,0.31668153405189514,0.3543396592140198,0.11511911451816559
1780625771719030300,11.7430302734375,0.23358824849128723,0.39156773686408997,0.05456309765577316
1780625771729025300,11.753025390625,0.23048990964889526,0.2542214095592499,-0.002899985294789076
1780625771739021300,11.763021240234375,0.263386070728302,0.08517380058765411,-0.03824306279420853
1780625771749016300,11.773016357421875,0.3125966191291809,-0.02554258331656456,-0.07070045918226242
1780625771759011300,11.78301123046875,0.34468555450439453,-0.06260605901479721,-0.06846979260444641
1780625771769006300,11.79300634765625,0.3299749195575714,0.02789127640426159,-0.14183157682418823
1780625771779001600,11.803001708984375,0.25082045793533325,0.21331892907619476,-0.21827201545238495
1780625771788997400,11.812997314453124,0.10097692161798477,0.3796829283237457,-0.24262495338916779
1780625771798992400,11.822992431640625,-0.07396186888217926,0.4606262445449829,-0.30389204621315
1780625771808987400,11.8329873046875,-0.20866398513317108,0.355729877948761,-0.4175494611263275
1780625771818982400,11.842982421875,-0.26934146881103516,0.14908485114574432,-0.5423768162727356
1780625771828977400,11.852977294921875,-0.26950502395629883,0.051030233502388,-0.6108015775680542
1780625771838972400,11.862972412109375,-0.2290034145116806,0.11880901455879211,-0.6002491116523743
1780625771848968200,11.87296826171875,-0.1932033896446228,0.23966063559055328,-0.5382987856864929
1780625771858963200,11.882963134765625,-0.19773714244365692,0.23465655744075775,-0.4632946252822876
1780625771868958500,11.89295849609375,-0.19256453216075897,0.12304971367120743,-0.4917146861553192
1780625771878953500,11.902953369140626,-0.18934530019760132,0.07544544339179993,-0.5986480712890625
1780625771888948500,11.912948486328125,-0.21342164278030396,0.12114228308200836,-0.6827746629714966
1780625771898944300,11.9229443359375,-0.23852406442165375,0.1604987531900406,-0.7311999797821045
1780625771908939300,11.932939208984376,-0.2373228818178177,0.026724811643362045,-0.7926589250564575
1780625771918934300,11.942934326171875,-0.18987280130386353,-0.24798159301280975,-0.8856738209724426
1780625771928929300,11.95292919921875,-0.11547332257032394,-0.3829873204231262,-1.0090230703353882
1780625771938924300,11.96292431640625,-0.04691609740257263,-0.3026543855667114,-1.096157193183899
1780625771948920300,11.97292041015625,-0.0002822284586727619,-0.08745182305574417,-1.0898185968399048
1780625771958915600,11.98291552734375,-0.004815461579710245,0.20320290327072144,-1.0364432334899902
1780625771968910300,11.992910400390626,-0.045160405337810516,0.45357024669647217,-0.9557174444198608
1780625771978905300,12.0029052734375,-0.07948828488588333,0.7078539133071899,-0.8683111667633057
1780625771988900400,12.012900390625,-0.09970549494028091,0.793148934841156,-0.7771772742271423
1780625771998896400,12.022896484375,-0.08191211521625519,0.517220675945282,-0.7031959891319275
1780625772008891400,12.032891357421875,-0.0158672034740448,0.03678011894226074,-0.7617844343185425
1780625772018886400,12.042886474609375,0.11287373304367065,-0.3388283848762512,-0.928366482257843
1780625772028881400,12.05288134765625,0.2569715082645416,-0.4503103792667389,-1.06314218044281
1780625772038876400,12.06287646484375,0.3110209107398987,-0.3826887011528015,-1.0999516248703003
1780625772048871200,12.07287109375,0.3063270151615143,-0.13043804466724396,-1.0567829608917236
1780625772058867500,12.082867431640626,0.2864678204059601,0.27912789583206177,-0.9467346668243408
1780625772068862500,12.092862548828125,0.2765665650367737,0.6003642082214355,-0.7734174132347107
1780625772078857500,12.102857421875,0.2634475529193878,0.6648015379905701,-0.5838378667831421
1780625772088852500,12.1128525390625,0.21345072984695435,0.4589628279209137,-0.4063262641429901
1780625772098847500,12.122847412109374,0.10478177666664124,0.1360343098640442,-0.2695865333080292
1780625772108843300,12.13284326171875,-0.028961369767785072,-0.061044126749038696,-0.19233089685440063
1780625772118838300,12.14283837890625,-0.15833453834056854,-0.042330361902713776,-0.1086605042219162
1780625772128833300,12.152833251953124,-0.3123184144496918,0.1086997538805008,-0.07494693249464035
1780625772138828300,12.162828369140625,-0.4451720714569092,0.49690818786621094,-0.35127121210098267
1780625772148823300,12.1728232421875,-0.5077419281005859,0.7190330624580383,-0.7316712737083435
1780625772158818600,12.182818603515624,-0.5697413682937622,0.49487587809562683,-0.8796330690383911
1780625772168814300,12.192814453125,-0.6724627017974854,0.06238839030265808,-0.7076724767684937
1780625772178809300,12.202809326171876,-0.7914295196533203,-0.0012110943207517266,-0.5046575665473938
1780625772188804400,12.212804443359374,-0.8368968963623047,0.2247152477502823,-0.4257378578186035
1780625772198799400,12.22279931640625,-0.7470437288284302,0.2934325337409973,-0.44494324922561646
1780625772208794400,12.23279443359375,-0.5409179329872131,0.1826147586107254,-0.4743023216724396
1780625772218790400,12.242790283203124,-0.3232665956020355,0.044461414217948914,-0.37598666548728943
1780625772228785200,12.25278515625,-0.23008379340171814,-0.017629651352763176,-0.17255394160747528
1780625772238780200,12.2627802734375,-0.2724890410900116,0.0371696799993515,0.015623687766492367
1780625772248775400,12.272775390625,-0.31065061688423157,0.16379636526107788,0.04524946212768555
1780625772258770400,12.2827705078125,-0.267507940530777,0.22186551988124847,-0.11911763995885849
1780625772268766500,12.292766357421876,-0.194444939494133,0.19460463523864746,-0.3128364384174347
1780625772278761500,12.302761474609374,-0.11200758069753647,0.1465148776769638,-0.3783765733242035
1780625772288756500,12.312756591796875,-0.028942422941327095,0.0768660455942154,-0.3878871500492096
1780625772298751200,12.322751220703125,-0.019264496862888336,0.02269628271460533,-0.4093892574310303
1780625772308746200,12.332746337890624,-0.14568175375461578,0.024693254381418228,-0.39836615324020386
1780625772318742300,12.3427421875,-0.3244626820087433,0.06506704539060593,-0.344107985496521
1780625772328737300,12.3527373046875,-0.38067448139190674,0.036459051072597504,-0.3033071756362915
1780625772338732500,12.362732666015624,-0.3385339677333832,-0.023937178775668144,-0.2969669699668884
1780625772348727600,12.3727275390625,-0.2630569040775299,-0.03871302679181099,-0.34407564997673035
1780625772358722600,12.38272265625,-0.2118579000234604,-0.03605279326438904,-0.49445289373397827
1780625772368717300,12.39271728515625,-0.1625393182039261,-0.12123855203390121,-0.6792271137237549
1780625772378713300,12.40271337890625,-0.07157424837350845,-0.3520776331424713,-0.7258017659187317
1780625772388708400,12.412708251953125,-0.017361318692564964,-0.49698060750961304,-0.6516543030738831
1780625772398703400,12.422703369140624,-0.05965125188231468,-0.38671401143074036,-0.5311585068702698
