time,seconds_elapsed,z,y,x
1780625760030911700,0.054911865234375,-0.13372930884361267,0.1522878110408783,0.06279680877923965
1780625760040906800,0.06490673828125,-0.2110603153705597,0.01037674117833376,0.1146024763584137
1780625760050902000,0.074902099609375,-0.3022671937942505,-0.14190706610679626,0.1622357815504074
1780625760060897800,0.084897705078125,-0.41701453924179077,-0.24836000800132751,0.21913181245326996
1780625760070892800,0.094892822265625,-0.5571098327636719,-0.31104549765586853,0.28843578696250916
1780625760080887800,0.1048876953125,-0.726110577583313,-0.35994753241539,0.35546568036079407
1780625760090882800,0.1148828125,-0.9039583802223206,-0.4120192527770996,0.4323362410068512
1780625760100877800,0.1248779296875,-1.0580244064331055,-0.46861860156059265,0.5190505981445312
1780625760110872800,0.134872802734375,-1.147133708000183,-0.4854598939418793,0.5996453166007996
1780625760120867800,0.144867919921875,-1.140353798866272,-0.45956411957740784,0.666548490524292
1780625760130863600,0.154863525390625,-1.0869489908218384,-0.4498678147792816,0.7039650678634644
1780625760140859000,0.16485888671875,-1.0350748300552368,-0.4518132507801056,0.720491349697113
1780625760150854000,0.17485400390625,-0.9692241549491882,-0.4581151008605957,0.7252341508865356
1780625760160849000,0.184848876953125,-0.7635424137115479,-0.4661940634250641,0.8030248284339905
1780625760170844000,0.194843994140625,-0.5004865527153015,-0.42159146070480347,0.9164272546768188
1780625760180839000,0.2048388671875,-0.44547387957572937,-0.41441982984542847,0.9272040128707886
1780625760190834700,0.214834716796875,-0.45681095123291016,-0.41894400119781494,0.9551088809967041
1780625760200829700,0.22482958984375,-0.5413151979446411,-0.3502464294433594,1.0491282939910889
1780625760210824700,0.23482470703125,-0.6198368668556213,-0.3461315631866455,1.1609070301055908
1780625760220819700,0.24481982421875,-0.6944165825843811,-0.453573077917099,1.2661783695220947
1780625760230814700,0.254814697265625,-0.6241991519927979,-0.6122516989707947,1.301571249961853
1780625760240809700,0.264809814453125,-0.10803832113742828,-0.46230530738830566,0.9198164343833923
1780625760250805800,0.2748056640625,0.5168652534484863,0.07186087220907211,0.41497349739074707
1780625760260800800,0.28480078125,0.9264689683914185,0.35202035307884216,0.16524913907051086
1780625760270795800,0.294795654296875,1.3156050443649292,0.3459677994251251,0.1000261977314949
1780625760280790800,0.304790771484375,1.6166995763778687,0.5078616142272949,0.09959796071052551
1780625760290785800,0.314785888671875,1.8294726610183716,0.39414089918136597,0.11115501821041107
1780625760300780800,0.32478076171875,1.8704895973205566,-0.01962323673069477,0.07191919535398483
1780625760310776800,0.33477685546875,1.6990903615951538,-0.3666485846042633,0.05848115310072899
1780625760320771600,0.344771484375,1.3646039962768555,-0.557687520980835,0.10188428312540054
1780625760330766600,0.3547666015625,0.9600908756256104,-0.7484068274497986,0.17744269967079163
1780625760340761900,0.364761962890625,0.6052507758140564,-0.7669395208358765,0.34865811467170715
1780625760350756900,0.3747568359375,0.3582513630390167,-0.5503696799278259,0.6339753270149231
1780625760360751900,0.384751953125,0.16589921712875366,-0.36164528131484985,0.8746042251586914
1780625760370748000,0.394747802734375,0.021637383848428726,-0.16505686938762665,0.9508872628211975
1780625760380743000,0.404742919921875,-0.10798212885856628,0.10116603225469589,0.9080782532691956
1780625760390737700,0.414737548828125,-0.22713914513587952,0.23876731097698212,0.7756723165512085
1780625760400732700,0.424732666015625,-0.3134458065032959,0.23617658019065857,0.5927948951721191
1780625760410727700,0.434727783203125,-0.38553038239479065,0.1841069906949997,0.4018672704696655
1780625760420722700,0.44472265625,-0.43385156989097595,0.11411724984645844,0.28252971172332764
1780625760430719000,0.454718994140625,-0.44981348514556885,0.13042618334293365,0.27882710099220276
1780625760440714000,0.4647138671875,-0.43592938780784607,0.1484307497739792,0.37279221415519714
1780625760450709000,0.474708984375,-0.43060678243637085,0.039812128990888596,0.4762866497039795
1780625760460703700,0.484703857421875,-0.46640899777412415,-0.006964432541280985,0.5740332007408142
1780625760470698800,0.49469873046875,-0.5258845686912537,-0.03404771536588669,0.6105381846427917
1780625760480693800,0.50469384765625,-0.588545560836792,-0.037092506885528564,0.6365237236022949
1780625760490689800,0.514689697265625,-0.6518949866294861,-0.03479712828993797,0.6826712489128113
1780625760500684800,0.524684814453125,-0.7072916626930237,-0.038782548159360886,0.7505030035972595
1780625760510679600,0.534679443359375,-0.5845926403999329,0.04388117045164108,0.8130747675895691
1780625760520674600,0.544674560546875,0.4694353938102722,0.5961483120918274,0.7735729217529297
1780625760530669600,0.554669677734375,1.2738125324249268,1.013082504272461,0.6177295446395874
1780625760540664300,0.564664306640625,1.5026143789291382,1.107016682624817,0.44285517930984497
1780625760550660600,0.57466064453125,1.3641057014465332,1.120821475982666,0.44131773710250854
1780625760560655600,0.584655517578125,1.0611165761947632,1.070615530014038,0.5514532923698425
1780625760570650600,0.594650634765625,0.5688722729682922,1.1884071826934814,0.6834725737571716
1780625760580645600,0.604645751953125,0.1419542133808136,1.170617699623108,0.7865521311759949
1780625760590640600,0.614640625,-0.16425259411334991,0.7991642951965332,0.820557713508606
1780625760600635600,0.6246357421875,-0.27145788073539734,0.0362141951918602,0.8121325373649597
1780625760610630400,0.63463037109375,0.06548579782247543,-0.652733325958252,0.8088952302932739
1780625760620626400,0.64462646484375,0.39084523916244507,-0.48982617259025574,0.76622074842453
1780625760630621400,0.654621337890625,0.5769637227058411,0.3078526258468628,0.6759518384933472
1780625760640616400,0.664616455078125,0.6173332333564758,1.198839783668518,0.5040698051452637
1780625760650611500,0.674611572265625,0.6191442012786865,1.0377087593078613,0.15384122729301453
1780625760660606500,0.6846064453125,0.6788190007209778,0.890404462814331,-0.3118066191673279
1780625760670601700,0.694601806640625,0.8433253765106201,1.3256409168243408,-0.7037009000778198
1780625760680597500,0.704597412109375,1.0797269344329834,1.8598496913909912,-1.0093497037887573
1780625760690592500,0.714592529296875,1.1551988124847412,1.9626426696777344,-1.2434152364730835
1780625760700587500,0.72458740234375,1.1015961170196533,1.764433741569519,-1.3933299779891968
1780625760710582500,0.73458251953125,0.967818558216095,1.6125757694244385,-1.4125832319259644
1780625760720577500,0.74457763671875,0.7207025289535522,1.4244590997695923,-1.3518024682998657
1780625760730572500,0.754572509765625,0.4239555299282074,1.0404120683670044,-1.351354718208313
1780625760740568300,0.764568359375,0.23673105239868164,0.5132606625556946,-1.4398324489593506
1780625760750563300,0.774563232421875,0.20002204179763794,0.11986861377954483,-1.5834863185882568
1780625760760558600,0.78455859375,0.2151423990726471,-0.02719779871404171,-1.8025094270706177
1780625760770553600,0.7945537109375,0.19627630710601807,-0.018566226586699486,-2.0604820251464844
1780625760780548600,0.804548583984375,0.21334956586360931,0.12857314944267273,-2.2709507942199707
1780625760790543600,0.814543701171875,0.3416116535663605,0.31875935196876526,-2.397472381591797
1780625760800539400,0.824539306640625,0.5254504680633545,0.48932042717933655,-2.4478652477264404
1780625760810534400,0.834534423828125,0.7311498522758484,0.48363617062568665,-2.445174217224121
1780625760820529400,0.844529296875,1.0042465925216675,0.28799211978912354,-2.4881579875946045
1780625760830524400,0.8545244140625,1.3044745922088623,0.18455706536769867,-2.4772679805755615
1780625760840519400,0.86451953125,1.2977006435394287,0.2993427515029907,-2.3410346508026123
1780625760850514400,0.874514404296875,0.5731769800186157,0.4915476143360138,-2.2418057918548584
1780625760860510500,0.884510498046875,0.5480244755744934,-0.08307810872793198,-2.049304723739624
1780625760870505500,0.89450537109375,1.000392198562622,-0.30827048420906067,-1.8322092294692993
1780625760880500500,0.90450048828125,1.4848310947418213,-0.14137230813503265,-1.6590982675552368
1780625760890495500,0.91449560546875,1.7990654706954956,-0.20753668248653412,-1.5766233205795288
1780625760900490500,0.924490478515625,1.9317939281463623,-0.5179387331008911,-1.5478891134262085
1780625760910485500,0.934485595703125,1.9865155220031738,-0.7686737775802612,-1.5159962177276611
1780625760920481500,0.9444814453125,2.033594846725464,-1.0248738527297974,-1.4654762744903564
1780625760930476500,0.9544765625,2.0716466903686523,-1.2933924198150635,-1.4014126062393188
1780625760940471300,0.96447119140625,2.085002899169922,-1.443607211112976,-1.2877159118652344
1780625760950466300,0.97446630859375,2.0386106967926025,-1.6076043844223022,-1.136766791343689
1780625760960461300,0.98446142578125,1.928688883781433,-1.8224985599517822,-0.9556819796562195
1780625760970456600,0.99445654296875,1.7424399852752686,-1.9675471782684326,-0.7478129863739014
1780625760980452600,1.00445263671875,1.5356823205947876,-1.964401125907898,-0.45952045917510986
1780625760990447600,1.014447509765625,1.3837913274765015,-2.0167529582977295,-0.11569570749998093
1780625761000442600,1.024442626953125,1.3359286785125732,-2.3080146312713623,0.20307615399360657
1780625761010437400,1.034437255859375,1.3737410306930542,-2.598223924636841,0.5002723932266235
1780625761020432400,1.044432373046875,1.442733645439148,-2.8655343055725098,0.7471476793289185
1780625761030427400,1.054427490234375,1.4905632734298706,-3.048912286758423,0.89579176902771
1780625761040423400,1.06442333984375,1.549564003944397,-3.1840720176696777,0.9100157022476196
1780625761050418400,1.07441845703125,1.6824631690979004,-3.388489007949829,0.7473791241645813
1780625761060413700,1.08441357421875,1.7249014377593994,-3.68440318107605,0.39984753727912903
1780625761070408700,1.09440869140625,1.5786994695663452,-4.035862922668457,-0.10650433599948883
1780625761080403500,1.104403564453125,1.3554104566574097,-4.260682582855225,-0.594669759273529
1780625761090398500,1.1143984375,1.3575639724731445,-4.448683261871338,-0.7877050042152405
1780625761100393500,1.1243935546875,1.6767656803131104,-4.464809894561768,-0.6706351041793823
1780625761110389500,1.134389404296875,1.9973989725112915,-4.529003620147705,-0.3931390345096588
1780625761120384500,1.144384521484375,2.1816611289978027,-4.667051792144775,-0.08940817415714264
1780625761130379500,1.154379638671875,2.2904791831970215,-4.781741619110107,0.21393145620822906
1780625761140374500,1.16437451171875,2.3798322677612305,-4.923852443695068,0.4102786183357239
1780625761150369300,1.174369384765625,2.4852001667022705,-5.122623443603516,0.49787023663520813
1780625761160364300,1.1843642578125,2.6483919620513916,-5.331337928771973,0.5307387113571167
1780625761170360600,1.194360595703125,2.7783799171447754,-5.42125940322876,0.5329251885414124
1780625761180355600,1.20435546875,2.885655164718628,-5.340116024017334,0.560239851474762
1780625761190350600,1.2143505859375,2.9968557357788086,-4.978184223175049,0.6396076679229736
1780625761200345600,1.224345703125,3.077080726623535,-4.266367435455322,0.6622067093849182
1780625761210340600,1.234340576171875,3.16635799407959,-3.4139459133148193,0.5593064427375793
1780625761220335400,1.24433544921875,3.2195653915405273,-2.581507682800293,0.3751611113548279
1780625761230331400,1.254331298828125,3.255155086517334,-1.9052709341049194,0.13053137063980103
1780625761240326400,1.264326416015625,3.2392280101776123,-1.4468743801116943,-0.18710437417030334
1780625761250321400,1.2743212890625,3.169318914413452,-1.1577363014221191,-0.455138236284256
1780625761260316700,1.284316650390625,3.115057945251465,-0.9548218250274658,-0.6026967763900757
1780625761270311700,1.294311767578125,3.0815322399139404,-0.790429949760437,-0.6120436787605286
1780625761280306700,1.304306640625,3.071995735168457,-0.729915201663971,-0.45841312408447266
1780625761290302500,1.314302490234375,3.057140350341797,-0.8911845088005066,-0.16831018030643463
1780625761300297500,1.32429736328125,2.987791061401367,-1.2534284591674805,0.19032147526741028
1780625761310292500,1.33429248046875,2.8445515632629395,-1.6480332612991333,0.5369454622268677
1780625761320287500,1.34428759765625,2.663407325744629,-1.856796383857727,0.7981157898902893
1780625761330282500,1.354282470703125,2.5226070880889893,-1.8312233686447144,0.8913144469261169
1780625761340277500,1.364277587890625,2.412304162979126,-1.643032431602478,0.8135632276535034
1780625761350273500,1.3742734375,2.2781457901000977,-1.372483730316162,0.6530970931053162
1780625761360268500,1.3842685546875,2.0709383487701416,-1.0786150693893433,0.5042192339897156
1780625761370263600,1.394263671875,1.7870879173278809,-0.8104377388954163,0.4314406216144562
1780625761380258600,1.404258544921875,1.5057464838027954,-0.5560144782066345,0.3393397033214569
1780625761390253600,1.414253662109375,1.2788044214248657,-0.28032752871513367,0.1511775404214859
1780625761400248600,1.42424853515625,1.1196339130401611,0.010010023601353168,-0.1103171855211258
1780625761410244400,1.434244384765625,0.9280722141265869,0.6935651898384094,-0.5622183084487915
1780625761420239400,1.4442392578125,0.9611644148826599,0.9974896311759949,-1.2761961221694946
1780625761430234400,1.454234375,1.1567397117614746,0.16050073504447937,-1.3458012342453003
1780625761440229400,1.4642294921875,1.2012033462524414,-0.14471963047981262,-1.1921504735946655
1780625761450224400,1.474224365234375,1.0377672910690308,-0.17516063153743744,-1.1806693077087402
1780625761460219400,1.484219482421875,0.6933140158653259,-0.2973983883857727,-1.237012267112732
1780625761470215700,1.494215576171875,0.3869338631629944,-0.3766449987888336,-1.2495639324188232
1780625761480210400,1.50421044921875,0.2489352524280548,-0.22970935702323914,-1.335052490234375
1780625761490205400,1.514205322265625,0.17624907195568085,-0.11549250781536102,-1.5460699796676636
1780625761500200400,1.524200439453125,0.1111060157418251,-0.1073850467801094,-1.7756413221359253
1780625761510196000,1.534196044921875,0.024280039593577385,-0.18373441696166992,-1.9167335033416748
1780625761520191000,1.54419091796875,-0.11353614926338196,-0.299054354429245,-1.8757621049880981
1780625761530187000,1.55418701171875,-0.24912592768669128,-0.38771283626556396,-1.6526890993118286
1780625761540181800,1.564181640625,-0.35046693682670593,-0.4589228332042694,-1.326660394668579
1780625761550176800,1.5741767578125,-0.370781809091568,-0.5764859318733215,-0.944883406162262
1780625761560171800,1.584171875,-0.3222491443157196,-0.7325493097305298,-0.5457349419593811
1780625761570166800,1.594166748046875,-0.28865817189216614,-0.9086458086967468,-0.1634744107723236
1780625761580161800,1.604161865234375,-0.32293811440467834,-1.0234781503677368,0.18616454303264618
1780625761590158000,1.614157958984375,-0.3968330919742584,-1.0564520359039307,0.4939633905887604
1780625761600153000,1.624153076171875,-0.4788382351398468,-0.989482045173645,0.7777761816978455
1780625761610147800,1.63414794921875,-0.5315488576889038,-0.8235897421836853,1.016013741493225
1780625761620142800,1.644142822265625,-0.5625888109207153,-0.6341404914855957,1.1616666316986084
1780625761630137900,1.654137939453125,-0.600361168384552,-0.43796801567077637,1.259360671043396
1780625761640132900,1.6641328125,-0.6481271386146545,-0.07599862664937973,1.3230117559432983
1780625761650129000,1.67412890625,-0.6705331206321716,0.29429739713668823,1.2582900524139404
1780625761660124000,1.6841240234375,-0.6129968166351318,0.3802855610847473,1.1464847326278687
1780625761670119000,1.694118896484375,-0.5895817875862122,0.47780704498291016,1.1749686002731323
1780625761680114000,1.704114013671875,-0.6167665123939514,0.4424344003200531,1.2528114318847656
1780625761690108700,1.714108642578125,-0.694578230381012,0.35533520579338074,1.3266643285751343
1780625761700103700,1.724103759765625,-0.7710602283477783,0.24798770248889923,1.4127593040466309
1780625761710100000,1.734099853515625,-0.7821786403656006,0.22506028413772583,1.4872441291809082
1780625761720095000,1.744094970703125,-0.7180417776107788,0.27029913663864136,1.5360654592514038
1780625761730090000,1.754090087890625,-0.6134650111198425,0.3243546485900879,1.510986566543579
1780625761740085000,1.7640849609375,-0.5059249401092529,0.44007378816604614,1.4474005699157715
1780625761750079700,1.774079833984375,-0.37769535183906555,0.5486626029014587,1.3992464542388916
1780625761760074800,1.78407470703125,-0.24193993210792542,0.6145496964454651,1.356786847114563
1780625761770069800,1.79406982421875,-0.1257811039686203,0.6209551692008972,1.420007348060608
1780625761780065800,1.804065673828125,-0.028731513768434525,0.5312873125076294,1.672993540763855
1780625761790060800,1.814060791015625,0.055698417127132416,0.3835678994655609,2.0106587409973145
1780625761800056000,1.82405615234375,0.10655733197927475,0.31193897128105164,2.3043696880340576
1780625761810051000,1.834051025390625,0.17050142586231232,0.39588847756385803,2.413968801498413
1780625761820045800,1.8440458984375,0.2877204716205597,0.497656911611557,2.2710888385772705
1780625761830040800,1.854040771484375,0.3674539029598236,0.7289247512817383,2.0693886280059814
1780625761840036900,1.864036865234375,0.37074902653694153,1.0726760625839233,1.8564168214797974
1780625761850031900,1.874031982421875,0.33093103766441345,1.248077392578125,1.6706174612045288
1780625761860027000,1.88402685546875,0.19691413640975952,1.3280131816864014,1.50242018699646
1780625761870022000,1.89402197265625,0.07068349421024323,1.2115803956985474,1.0430244207382202
1780625761880017000,1.904016845703125,-0.011218300089240074,0.7336034178733826,0.6073272228240967
1780625761890012000,1.914011962890625,-0.04555043950676918,0.3169686198234558,0.3365684449672699
1780625761900008000,1.924008056640625,-0.0977044552564621,-0.011967713013291359,0.009741577319800854
1780625761910003000,1.9340029296875,-0.20223912596702576,-0.13464409112930298,-0.4454081058502197
1780625761919998000,1.943998046875,-0.2620854079723358,-0.054910387843847275,-0.9958576560020447
1780625761929993000,1.953992919921875,-0.24347390234470367,0.1002749353647232,-1.5482369661331177
1780625761939988000,1.963988037109375,-0.17707571387290955,0.28291159868240356,-2.037397623062134
1780625761949983000,1.97398291015625,-0.13328056037425995,0.371011883020401,-2.463137149810791
1780625761959978800,1.983978759765625,-0.24469417333602905,0.5566017031669617,-2.8112409114837646
1780625761969973800,1.993973876953125,-0.496645450592041,1.0279189348220825,-3.0444931983947754
1780625761979968800,2.00396875,-0.7230207920074463,1.659081220626831,-3.3221800327301025
1780625761989963800,2.0139638671875,-0.7780709862709045,2.2514939308166504,-3.8374929428100586
1780625761999958800,2.023958740234375,-0.6878761053085327,2.5075156688690186,-4.3793044090271
1780625762009954000,2.0339541015625,-0.4802513122558594,1.8607312440872192,-4.452192783355713
1780625762019949800,2.04394970703125,-0.23282526433467865,0.26467081904411316,-3.80124568939209
1780625762029944800,2.05394482421875,-0.06453265249729156,-1.589174747467041,-2.6115224361419678
1780625762039939800,2.06393994140625,-0.1011766865849495,-2.767589807510376,-1.3191779851913452
1780625762049934800,2.073934814453125,-0.17781446874141693,-3.1063215732574463,-0.3870944678783417
1780625762059929900,2.083929931640625,-0.1111944317817688,-2.847491979598999,-0.06460589170455933
1780625762069924900,2.0939248046875,0.10507155954837799,-2.239680528640747,-0.2229209691286087
1780625762079921000,2.1039208984375,0.4086697995662689,-1.5212279558181763,-0.5142577290534973
1780625762089915600,2.11391552734375,0.6449475884437561,-0.9365666508674622,-0.6593001484870911
1780625762099911000,2.123910888671875,0.7483391761779785,-0.6336302161216736,-0.4150821566581726
1780625762109906000,2.133906005859375,0.6757949590682983,-0.698906421661377,0.21013619005680084
1780625762119901000,2.14390087890625,0.4499679505825043,-0.43411576747894287,0.9818238615989685
1780625762129896000,2.15389599609375,0.1589193493127823,0.5923421382904053,1.3256547451019287
1780625762139892000,2.16389208984375,-0.2598944306373596,1.4608359336853027,1.0494705438613892
1780625762149886700,2.17388671875,-0.7807818055152893,2.0307607650756836,0.6160985827445984
1780625762159881700,2.1838818359375,-1.0346087217330933,2.1308963298797607,0.2514359652996063
1780625762169876700,2.193876708984375,-0.9094431400299072,1.6394331455230713,-0.087643563747406
1780625762179871700,2.203871826171875,-0.5857676267623901,0.97588711977005,-0.20180608332157135
1780625762189866800,2.21386669921875,-0.2516556680202484,0.4064468443393707,0.018013620749115944
1780625762199863000,2.223863037109375,-0.07747109234333038,0.1517557054758072,0.48823705315589905
1780625762209858000,2.233858154296875,-0.06514757871627808,0.098244808614254,0.9153947830200195
1780625762219852800,2.243852783203125,-0.0626085177063942,-0.21716134250164032,1.1175715923309326
1780625762229847800,2.253847900390625,-0.05993763729929924,-0.3229421079158783,1.2960199117660522
1780625762239842800,2.2638427734375,-0.18976034224033356,-0.22247114777565002,1.5659583806991577
1780625762249837800,2.273837890625,-0.4034172296524048,0.14701049029827118,1.890040397644043
1780625762259833900,2.283833740234375,-0.45670416951179504,0.40971535444259644,2.199924945831299
1780625762269828900,2.293828857421875,-0.24350160360336304,0.8410592675209045,2.407623291015625
1780625762279824000,2.303823974609375,0.13405926525592804,0.8388672471046448,2.429989814758301
1780625762289819000,2.31381884765625,0.38990461826324463,0.89825439453125,2.378829002380371
1780625762299814000,2.32381396484375,0.4278962016105652,0.9823317527770996,2.3499388694763184
1780625762309809000,2.333808837890625,0.3044847846031189,1.0128728151321411,2.3865978717803955
1780625762319805000,2.343804931640625,0.1123608946800232,0.9203916788101196,2.429931879043579
1780625762329800000,2.353800048828125,-0.0814591720700264,0.939941942691803,2.4075098037719727
1780625762339795000,2.363794921875,-0.19640333950519562,1.0572855472564697,2.293567419052124
1780625762349790000,2.3737900390625,-0.18049468100070953,1.268423080444336,2.12418532371521
1780625762359785000,2.383784912109375,-0.08324242383241653,1.3113045692443848,1.9469480514526367
1780625762369780700,2.39378076171875,0.02281077392399311,1.1662195920944214,1.832304835319519
1780625762379775700,2.403775634765625,0.10279908031225204,0.9813846945762634,1.7824345827102661
1780625762389771000,2.41377099609375,0.18271228671073914,0.7183685302734375,1.5465354919433594
1780625762399766000,2.42376611328125,0.3009158968925476,0.3595816195011139,0.9950629472732544
1780625762409761000,2.433760986328125,0.5302654504776001,-0.19182083010673523,0.09451451897621155
1780625762419756000,2.443756103515625,0.6344779133796692,-0.22088710963726044,-0.49666330218315125
1780625762429751800,2.453751708984375,0.3746985197067261,-0.12656885385513306,-0.2381659597158432
1780625762439746800,2.463746826171875,0.07873182743787766,-0.28177574276924133,0.04580876603722572
1780625762449741800,2.473741943359375,-0.07307208329439163,-0.3570673167705536,0.09792470186948776
1780625762459736800,2.48373681640625,-0.15763384103775024,-0.3437128961086273,0.004424842074513435
1780625762469731800,2.49373193359375,-0.2985616624355316,-0.39531776309013367,-0.20413076877593994
1780625762479726800,2.503726806640625,-0.5244920253753662,-0.4329666197299957,-0.4008699357509613
1780625762489723000,2.513722900390625,-0.7084847092628479,-0.4770648181438446,-0.6304269433021545
1780625762499718000,2.5237177734375,-0.765843391418457,-0.41408905386924744,-0.9630944132804871
1780625762509712000,2.5337119140625,-0.6689589023590088,-0.18552058935165405,-1.3430038690567017
1780625762519707000,2.543706787109375,-0.5047678351402283,0.07118123769760132,-1.6564667224884033
1780625762529702000,2.553701904296875,-0.30001336336135864,0.2017027586698532,-1.8922553062438965
1780625762539697000,2.56369677734375,-0.0989990159869194,0.12480078637599945,-2.018927574157715
1780625762549693000,2.57369287109375,-0.04992654547095299,-0.13930197060108185,-2.01660418510437
1780625762559688000,2.58368798828125,-0.11366158723831177,-0.39873141050338745,-1.959841251373291
1780625762569683000,2.593682861328125,-0.17102260887622833,-0.5859487056732178,-1.8825759887695312
1780625762579677700,2.603677734375,-0.26102545857429504,-0.6171470880508423,-1.753188967704773
1780625762589672700,2.613672607421875,-0.4091739356517792,-0.5519209504127502,-1.6862651109695435
1780625762599668000,2.62366796875,-0.5583277344703674,-0.5133101940155029,-1.7005404233932495
1780625762609664000,2.6336640625,-0.577488124370575,-0.4931705594062805,-1.6726441383361816
1780625762619659000,2.643658935546875,-0.40990203619003296,-0.41417479515075684,-1.6041545867919922
1780625762629654000,2.653654052734375,-0.3050887882709503,-0.33196860551834106,-1.3953001499176025
1780625762639649000,2.66364892578125,-0.3406478762626648,-0.35659167170524597,-1.1648666858673096
1780625762649643800,2.673643798828125,-0.46461400389671326,-0.5114739537239075,-0.9985203146934509
1780625762659638800,2.683638671875,-0.6040888428688049,-0.774000346660614,-0.7902003526687622
1780625762669634800,2.693634765625,-0.6563581228256226,-0.843929648399353,-0.5942244529724121
1780625762679629800,2.7036298828125,-0.5528820753097534,-0.8442944884300232,-0.4066798686981201
1780625762689625000,2.713625,-0.3815063536167145,-1.1012157201766968,-0.38103097677230835
1780625762699620000,2.7236201171875,-0.249555766582489,-1.1535085439682007,-0.2980774939060211
1780625762709615000,2.733614990234375,-0.15388862788677216,-0.9521083235740662,-0.19487467408180237
1780625762719609900,2.74360986328125,-0.05381236597895622,-0.6529490351676941,-0.12385350465774536
1780625762729606000,2.75360595703125,-0.12888580560684204,-0.41721561551094055,-0.24952247738838196
1780625762739601000,2.763600830078125,-0.3225330412387848,-0.13292422890663147,-0.49486273527145386
1780625762749596000,2.773595947265625,-0.5631595253944397,-0.06274540722370148,-0.5231590867042542
1780625762759591000,2.7835908203125,-0.7148867249488831,-0.19680707156658173,-0.42059943079948425
1780625762769586000,2.7935859375,-0.6756535768508911,-0.3647790253162384,-0.41214415431022644
1780625762779582000,2.80358203125,-0.3618870973587036,-0.41673651337623596,-0.3344117999076843
1780625762789577000,2.813576904296875,-0.08410688489675522,-0.3746311366558075,-0.22129829227924347
1780625762799572000,2.823572021484375,0.030236465856432915,-0.26998433470726013,-0.1448887437582016
1780625762809567000,2.83356689453125,-0.004519117996096611,-0.15136422216892242,-0.13434022665023804
1780625762819562000,2.84356201171875,0.06936948746442795,-0.03960706293582916,-0.18564416468143463
1780625762829557000,2.853556884765625,0.18401138484477997,-0.01131204329431057,-0.22738175094127655
1780625762839552800,2.863552734375,0.27172791957855225,-0.03542536869645119,-0.20536300539970398
1780625762849547800,2.8735478515625,0.3439145088195801,-0.058215901255607605,-0.10830223560333252
1780625762859542800,2.883542724609375,0.3769829571247101,-0.04404548928141594,0.010278736241161823
1780625762869537800,2.893537841796875,0.3573325574398041,0.04020307958126068,0.08450130373239517
1780625762879532800,2.90353271484375,0.33070042729377747,0.2314116507768631,0.0844123512506485
1780625762889527800,2.91352783203125,0.25885871052742004,0.33922305703163147,0.06305965781211853
1780625762899524000,2.923524169921875,0.12348758429288864,0.2957019507884979,0.11801479011774063
1780625762909518800,2.933518798828125,0.009553557261824608,0.09647247940301895,0.21134233474731445
1780625762919513900,2.943513916015625,0.0068272799253463745,-0.21433812379837036,0.3100960850715637
1780625762929508900,2.9535087890625,0.10147149860858917,-0.40869855880737305,0.36453720927238464
1780625762939503900,2.96350390625,0.23042654991149902,-0.348823219537735,0.3532845675945282
1780625762949499000,2.973498779296875,0.3884526789188385,-0.12289609760046005,0.24320067465305328
1780625762959495000,2.983494873046875,0.5948899984359741,0.11970056593418121,0.05793334171175957
1780625762969490000,2.993489990234375,0.7970263361930847,0.2948899567127228,-0.11697562038898468
1780625762979484700,3.003484619140625,0.96982342004776,0.388567715883255,-0.21866309642791748
1780625762989480000,3.01347998046875,1.038636565208435,0.3365950584411621,-0.21179640293121338
1780625762999475000,3.023474853515625,1.0871678590774536,0.1971958875656128,-0.14755457639694214
1780625763009470000,3.033469970703125,1.1867716312408447,-0.022517826408147812,-0.0969126969575882
1780625763019466000,3.043466064453125,1.2729451656341553,-0.20296163856983185,-0.07798001915216446
1780625763029461000,3.0534609375,1.3281275033950806,-0.2752278447151184,-0.14840704202651978
1780625763039456000,3.0634560546875,1.3482176065444946,-0.15465642511844635,-0.3614945411682129
1780625763049450800,3.07345068359375,1.3212727308273315,0.19545099139213562,-0.626802384853363
1780625763059445800,3.08344580078125,1.0904158353805542,0.6580034494400024,-1.0038048028945923
1780625763069441800,3.09344189453125,0.6659484505653381,1.2366657257080078,-1.466265320777893
1780625763079437000,3.10343701171875,0.3375636637210846,1.6843777894973755,-1.7429465055465698
1780625763089432000,3.11343212890625,0.24067865312099457,1.9242832660675049,-1.7820696830749512
1780625763099427000,3.123427001953125,0.32816776633262634,1.8429162502288818,-1.6866164207458496
1780625763109422000,3.133422119140625,0.4361501634120941,1.5921533107757568,-1.52133047580719
1780625763119416800,3.143416748046875,0.4572746157646179,1.2210590839385986,-1.3003251552581787
1780625763129412900,3.153412841796875,0.39143913984298706,0.8430012464523315,-1.1068975925445557
1780625763139408000,3.163407958984375,0.28724294900894165,0.5549156665802002,-0.9479721784591675
1780625763149403000,3.17340283203125,0.18057110905647278,0.3868345320224762,-0.7721268534660339
1780625763159398000,3.18339794921875,0.08663129806518555,0.3686416745185852,-0.6391807794570923
1780625763169393000,3.193392822265625,0.04891214892268181,0.4839285910129547,-0.5971819162368774
1780625763179388000,3.203387939453125,0.09700723737478256,0.6091208457946777,-0.5920204520225525
1780625763189384000,3.213384033203125,0.0912604033946991,0.6574029326438904,-0.5895799398422241
1780625763199379000,3.22337890625,-0.04422525316476822,0.6216973662376404,-0.5602864623069763
1780625763209374000,3.2333740234375,-0.2595929503440857,0.4158688485622406,-0.5340551137924194
1780625763219369000,3.243368896484375,-0.46692565083503723,0.11468183994293213,-0.46798476576805115
1780625763229364000,3.253364013671875,-0.6817399263381958,-0.16960901021957397,-0.3507974445819855
1780625763239359700,3.26335986328125,-0.9118911027908325,-0.37048086524009705,-0.2637035548686981
1780625763249354800,3.273354736328125,-1.1047372817993164,-0.42043083906173706,-0.2728261947631836
1780625763259349800,3.283349853515625,-1.2461646795272827,-0.33023303747177124,-0.35444703698158264
1780625763269344800,3.2933447265625,-1.3388749361038208,-0.22655218839645386,-0.45916756987571716
1780625763279340000,3.303340087890625,-1.3003339767456055,-0.16581720113754272,-0.5616114139556885
1780625763289335000,3.3133349609375,-1.1110366582870483,-0.08381394296884537,-0.6119579076766968
1780625763299331000,3.3233310546875,-0.8835119605064392,-0.005146026145666838,-0.5693020820617676
1780625763309325800,3.333325927734375,-0.6956674456596375,0.038237933069467545,-0.46020621061325073
1780625763319320800,3.34332080078125,-0.5573601722717285,0.05078328400850296,-0.35463106632232666
1780625763329315800,3.35331591796875,-0.4704998731613159,0.07572485506534576,-0.29244357347488403
1780625763339310800,3.363310791015625,-0.4575888514518738,0.1616661250591278,-0.3259589374065399
1780625763349305900,3.373305908203125,-0.47755298018455505,0.18448889255523682,-0.35117506980895996
1780625763359302000,3.383302001953125,-0.4402226507663727,0.06202928349375725,-0.3828752040863037
1780625763369297200,3.393297119140625,-0.4204484224319458,-0.12642930448055267,-0.43619728088378906
1780625763379292000,3.4032919921875,-0.42295071482658386,-0.3020669221878052,-0.5030562281608582
1780625763389287000,3.413286865234375,-0.36824193596839905,-0.3873346745967865,-0.48493924736976624
1780625763399282000,3.423281982421875,-0.2499469816684723,-0.39901983737945557,-0.37484949827194214
1780625763409278000,3.43327783203125,-0.07612406462430954,-0.3857351839542389,-0.2543196380138397
1780625763419273000,3.44327294921875,0.07684791088104248,-0.43619248270988464,-0.24016733467578888
1780625763429268000,3.45326806640625,0.15111708641052246,-0.564943790435791,-0.2826836407184601
1780625763439263000,3.463262939453125,0.16184988617897034,-0.7962555885314941,-0.36843156814575195
1780625763449257700,3.4732578125,0.1165764108300209,-1.1790019273757935,-0.40086352825164795
1780625763459252700,3.483252685546875,0.056105080991983414,-1.4983985424041748,-0.307873398065567
1780625763469249000,3.4932490234375,0.08012492954730988,-1.8485698699951172,-0.24574291706085205
1780625763479244000,3.503244140625,0.15015648305416107,-2.2423157691955566,-0.27169570326805115
1780625763489239000,3.513239013671875,0.16835571825504303,-2.504244089126587,-0.3001132309436798
1780625763499234000,3.523234130859375,0.10180039703845978,-2.480339288711548,-0.34060046076774597
1780625763509229600,3.5332294921875,-0.04657602310180664,-2.334629774093628,-0.40603405237197876
1780625763519224600,3.543224609375,-0.24679221212863922,-2.1121327877044678,-0.4849909245967865
1780625763529220600,3.553220703125,-0.3397626280784607,-1.9535788297653198,-0.5573104023933411
1780625763539215600,3.563215576171875,-0.4820835590362549,-1.867847204208374,-0.5561862587928772
1780625763549210600,3.573210693359375,-0.7311618328094482,-1.7751209735870361,-0.4694441854953766
1780625763559205600,3.58320556640625,-1.025566577911377,-1.703271508216858,-0.2979118525981903
1780625763569200600,3.59320068359375,-1.2741483449935913,-1.5618382692337036,-0.05048874020576477
1780625763579196700,3.60319677734375,-1.4479377269744873,-1.2232367992401123,0.16372208297252655
1780625763589191700,3.613191650390625,-1.5998615026474,-0.9780349731445312,0.26878857612609863
1780625763599186700,3.623186767578125,-1.5391230583190918,-0.7980212569236755,0.2689933776855469
1780625763609181700,3.633181640625,-1.2660737037658691,-0.7066631317138672,0.30760788917541504
1780625763619176700,3.6431767578125,-0.966242253780365,-0.7568426728248596,0.3588787913322449
1780625763629171700,3.653171630859375,-0.7197698950767517,-0.8277394771575928,0.4009229242801666
1780625763639167500,3.66316748046875,-0.4957998991012573,-0.8830227255821228,0.4186449348926544
1780625763649162500,3.67316259765625,-0.3023169934749603,-0.9310701489448547,0.40561941266059875
1780625763659157500,3.683157470703125,-0.09215815365314484,-0.8795901536941528,0.38727954030036926
1780625763669152800,3.69315283203125,0.13007038831710815,-0.8412702083587646,0.39610713720321655
1780625763679147800,3.703147705078125,0.3791409134864807,-0.7182723879814148,0.41772985458374023
1780625763689142800,3.713142822265625,0.653401255607605,-0.5966242551803589,0.4328845739364624
1780625763699138600,3.723138671875,0.9231757521629333,-0.5024625658988953,0.43164941668510437
1780625763709133600,3.733133544921875,1.1534714698791504,-0.3456282317638397,0.39877933263778687
1780625763719128600,3.743128662109375,1.397429347038269,-0.051771052181720734,0.2783072590827942
1780625763729123600,3.75312353515625,1.6042996644973755,0.20066066086292267,0.007186539936810732
1780625763739118600,3.76311865234375,1.6350221633911133,0.10510005056858063,-0.09644345194101334
1780625763749114600,3.773114501953125,1.5246224403381348,-0.024758609011769295,0.015679894015192986
1780625763759109600,3.783109619140625,1.3210467100143433,-0.1740271896123886,0.20470280945301056
1780625763769104600,3.793104736328125,1.0720908641815186,-0.3209740221500397,0.3069407641887665
1780625763779099600,3.803099609375,0.8266664743423462,-0.3134303689002991,0.12177570164203644
1780625763789094700,3.8130947265625,0.705331027507782,-0.3562028408050537,-0.2942119240760803
1780625763799089700,3.823089599609375,0.603339672088623,-0.3977029025554657,-0.6445249319076538
1780625763809085700,3.833085693359375,0.3285592496395111,-0.29350805282592773,-0.7065190672874451
1780625763819080700,3.843080810546875,0.30107036232948303,-0.7656516432762146,-0.6124293208122253
1780625763829075500,3.853075439453125,0.3630831241607666,-1.2685754299163818,-0.4306858777999878
1780625763839070500,3.863070556640625,0.4447537660598755,-1.3105589151382446,-0.21967829763889313
1780625763849065500,3.8730654296875,0.6111035943031311,-1.2957311868667603,-0.1122485101222992
1780625763859060500,3.883060546875,0.8701474070549011,-1.417900562286377,-0.10356341302394867
1780625763869056800,3.893056884765625,1.206161618232727,-1.4889858961105347,-0.06191530078649521
1780625763879051800,3.9030517578125,1.6207276582717896,-1.598651647567749,0.10764709860086441
1780625763889046800,3.913046875,2.062805652618408,-1.9620420932769775,0.44127941131591797
1780625763899041500,3.92304150390625,2.455322027206421,-2.4177064895629883,0.9070976972579956
1780625763909036500,3.93303662109375,2.7946512699127197,-2.7901499271392822,1.4662376642227173
1780625763919032600,3.943032470703125,3.0157973766326904,-2.81650710105896,2.0833022594451904
1780625763929027600,3.953027587890625,3.103996515274048,-2.5502665042877197,2.75080943107605
1780625763939022600,3.963022705078125,2.9408621788024902,-2.1303651332855225,3.4433116912841797
1780625763949017600,3.973017578125,2.4459402561187744,-1.700849175453186,4.103265762329102
1780625763959012600,3.9830126953125,2.223632335662842,-1.0816729068756104,4.682850360870361
1780625763969007600,3.993007568359375,2.614244222640991,-0.48628681898117065,5.030520439147949
1780625763979003600,4.003003662109375,2.8869359493255615,0.4611274003982544,4.883721828460693
1780625763988998700,4.01299853515625,3.0875024795532227,2.309537410736084,3.0210070610046387
1780625763998993700,4.02299365234375,3.038743734359741,-0.00962839275598526,0.940169632434845
1780625764008988700,4.03298876953125,2.4663021564483643,-2.16940975189209,-0.2716999650001526
1780625764018983700,4.042983642578125,1.7555512189865112,-2.549534320831299,-0.7532527446746826
1780625764028979500,4.0529794921875,1.6952564716339111,-2.7368741035461426,-0.8009890913963318
1780625764038974500,4.062974365234375,2.4341893196105957,-3.1684911251068115,-0.7269952893257141
1780625764048969500,4.072969482421875,3.4427618980407715,-3.3970699310302734,-0.38065654039382935
1780625764058964700,4.08296484375,4.164474964141846,-3.056699514389038,0.2123362272977829
1780625764068959700,4.092959716796875,4.619414806365967,-2.6526663303375244,0.7624763250350952
1780625764078954800,4.102954833984375,4.865407943725586,-1.8095135688781738,1.2181988954544067
1780625764088950500,4.112950439453125,4.928335189819336,-0.7932113409042358,1.4061291217803955
1780625764098945500,4.122945556640625,5.073444843292236,-0.39699050784111023,1.2078630924224854
1780625764108940500,4.1329404296875,5.359841823577881,-0.5105127692222595,0.8578580021858215
1780625764118935600,4.142935546875,5.713100433349609,-0.9400625824928284,0.5284052491188049
1780625764128930600,4.1529306640625,6.09237813949585,-1.36066734790802,0.31967467069625854
1780625764138926600,4.162926513671875,6.5413818359375,-1.5545283555984497,0.24512960016727448
1780625764148921900,4.172921875,6.983021259307861,-1.5265811681747437,0.24131354689598083
1780625764158916600,4.18291650390625,7.275413990020752,-1.1476054191589355,0.2554005980491638
1780625764168911600,4.19291162109375,7.37560510635376,-0.9305025935173035,0.2733228802680969
1780625764178906600,4.20290673828125,7.386744499206543,-1.1409860849380493,0.35676345229148865
1780625764188901600,4.212901611328125,7.282494068145752,-1.4159015417099,0.5874592661857605
1780625764198897700,4.222897705078125,6.507226467132568,-1.5656415224075317,0.9166414141654968
1780625764208892700,4.232892578125,4.521831035614014,-1.6380256414413452,1.2102937698364258
1780625764218887700,4.2428876953125,1.414257287979126,-1.7527536153793335,1.2130954265594482
1780625764228882400,4.25288232421875,-1.8910646438598633,-1.741226077079773,0.7894770503044128
1780625764238877400,4.26287744140625,-4.103354454040527,-1.6313529014587402,0.3513484299182892
1780625764248873700,4.272873779296875,-5.037147521972656,-1.3291938304901123,-0.023996146395802498
1780625764258868700,4.28286865234375,-4.971396446228027,-0.885553777217865,-0.3191593587398529
1780625764268863700,4.29286376953125,-4.010885238647461,-0.3300279676914215,-0.5031757950782776
1780625764278858800,4.302858642578125,-1.7737635374069214,0.378074586391449,-0.6835775375366211
1780625764288853800,4.312853759765625,0.7876490354537964,0.695318341255188,-0.7906150221824646
1780625764298848500,4.3228486328125,1.9291385412216187,0.650346040725708,-0.7693145275115967
1780625764308844500,4.332844482421875,1.864059329032898,0.2851116359233856,-0.6181463003158569
1780625764318839600,4.342839599609375,1.1861927509307861,-0.25338006019592285,-0.4361434876918793
1780625764328834600,4.35283447265625,0.47710317373275757,-0.5704826712608337,-0.3627861738204956
1780625764338829600,4.36282958984375,0.004752943757921457,-0.6245376467704773,-0.421933650970459
1780625764348824600,4.372824462890625,-0.2745971977710724,-0.5056331157684326,-0.5532954335212708
1780625764358820600,4.382820556640625,-0.37435203790664673,-0.2633488178253174,-0.6937739849090576
1780625764368815600,4.392815673828125,-0.3311888575553894,0.019478360190987587,-0.8096201419830322
1780625764378810600,4.402810546875,-0.24281956255435944,0.280864953994751,-0.8810775279998779
1780625764388805600,4.4128056640625,-0.19885291159152985,0.4433779716491699,-0.8895687460899353
1780625764398800600,4.422800537109375,-0.19757911562919617,0.5509249567985535,-0.8607099652290344
1780625764408796700,4.432796630859375,-0.24897520244121552,0.5643616318702698,-0.7912219762802124
1780625764418791400,4.44279150390625,-0.31251394748687744,0.5097665786743164,-0.6862832903862
1780625764428786400,4.452786376953125,-0.35411015152931213,0.4308621883392334,-0.586765468120575
1780625764438781400,4.462781494140625,-0.38451918959617615,0.3392062783241272,-0.5024564862251282
1780625764448776700,4.472776611328125,-0.42401865124702454,0.2487805187702179,-0.4396849572658539
1780625764458771700,4.482771728515625,-0.4843352437019348,0.17574359476566315,-0.3917155861854553
1780625764468767700,4.492767822265625,-0.5746725797653198,0.14537157118320465,-0.3613123893737793
1780625764478762800,4.5027626953125,-0.6729448437690735,0.17127321660518646,-0.3531719148159027
1780625764488757500,4.512757568359375,-0.7424741387367249,0.24556316435337067,-0.37535443902015686
1780625764498752500,4.52275244140625,-0.7677198052406311,0.2991219758987427,-0.4340049624443054
1780625764508747500,4.53274755859375,-0.7474997639656067,0.2710946202278137,-0.5072288513183594
1780625764518743800,4.542743896484375,-0.6800389885902405,0.16159555315971375,-0.5729774832725525
1780625764528738800,4.55273876953125,-0.584139883518219,-0.025889920070767403,-0.6138610243797302
1780625764538733800,4.56273388671875,-0.46447980403900146,-0.18806684017181396,-0.6124378442764282
1780625764548728800,4.572728759765625,-0.3802432119846344,-0.3321281373500824,-0.5890515446662903
1780625764558723600,4.5827236328125,-0.3673194348812103,-0.37190431356430054,-0.5846911668777466
1780625764568718600,4.592718505859375,-0.41474899649620056,-0.3013039231300354,-0.5954346060752869
1780625764578714600,4.602714599609375,-0.5422166585922241,-0.2222820669412613,-0.593998372554779
1780625764588709600,4.612709716796875,-0.7571681141853333,-0.2050658017396927,-0.4848218262195587
1780625764598704600,4.62270458984375,-0.8605824112892151,-0.1585283875465393,-0.345419704914093
1780625764608699600,4.63269970703125,-0.8425229787826538,-0.2494303286075592,-0.2915218472480774
1780625764618694700,4.642694580078125,-0.7576290965080261,-0.3625941872596741,-0.2995007038116455
1780625764628690700,4.652690673828125,-0.6649367213249207,-0.4426860809326172,-0.350911945104599
1780625764638685700,4.662685791015625,-0.58443284034729,-0.3642016649246216,-0.4173205494880676
1780625764648680700,4.6726806640625,-0.5433072447776794,-0.2315322905778885,-0.4760288596153259
1780625764658675700,4.68267578125,-0.534234881401062,-0.10403798520565033,-0.5064778327941895
1780625764668670700,4.692670654296875,-0.5298864841461182,-0.003145193215459585,-0.5007866621017456
1780625764678665700,4.702665771484375,-0.5293610692024231,0.025427328422665596,-0.479308545589447
1780625764688661500,4.71266162109375,-0.5288574695587158,-0.037401169538497925,-0.451137900352478
1780625764698656500,4.722656494140625,-0.5258051753044128,-0.2085992842912674,-0.4381243586540222
1780625764708651500,4.732651611328125,-0.5039520859718323,-0.43034258484840393,-0.42825227975845337
1780625764718646800,4.742646728515625,-0.47309350967407227,-0.5944101214408875,-0.4281825125217438
1780625764728641800,4.752641845703125,-0.4476051926612854,-0.703985869884491,-0.4522114098072052
1780625764738637600,4.762637451171875,-0.4257979094982147,-0.7205619215965271,-0.4900820851325989
1780625764748632600,4.772632568359375,-0.42084309458732605,-0.6802698969841003,-0.5146838426589966
1780625764758627600,4.782627685546875,-0.43290430307388306,-0.6396766304969788,-0.5182018876075745
1780625764768622600,4.79262255859375,-0.46029436588287354,-0.6868364214897156,-0.5120944380760193
1780625764778617600,4.80261767578125,-0.4912501573562622,-0.8047567009925842,-0.5290516018867493
1780625764788612600,4.812612548828125,-0.5051217675209045,-0.9468781352043152,-0.5743892192840576
1780625764798608600,4.822608642578125,-0.4816089868545532,-1.0727388858795166,-0.6038200855255127
1780625764808603600,4.832603759765625,-0.4355829060077667,-1.1175862550735474,-0.6101871728897095
1780625764818598700,4.8425986328125,-0.38828274607658386,-1.1063162088394165,-0.5998069643974304
1780625764828593700,4.85259375,-0.35431545972824097,-1.0987635850906372,-0.5882057547569275
1780625764838588700,4.862588623046875,-0.35599884390830994,-1.0689619779586792,-0.6000397205352783
1780625764848584700,4.872584716796875,-0.3904484510421753,-0.9842931628227234,-0.6071253418922424
1780625764858579700,4.882579833984375,-0.4260522425174713,-0.890845775604248,-0.5756728649139404
1780625764868574700,4.89257470703125,-0.44354575872421265,-0.8300870656967163,-0.5342934727668762
1780625764878569700,4.90256982421875,-0.45662161707878113,-0.8225657939910889,-0.49553439021110535
1780625764888564500,4.912564453125,-0.4688819944858551,-0.8676038384437561,-0.46711498498916626
1780625764898560800,4.922560791015625,-0.47895193099975586,-0.925605058670044,-0.48496776819229126
1780625764908555800,4.9325556640625,-0.4651415944099426,-0.9698284268379211,-0.5782750844955444
1780625764918550800,4.94255078125,-0.4216569662094116,-1.01630437374115,-0.7286847829818726
1780625764928545800,4.9525458984375,-0.36149004101753235,-1.044006586074829,-0.874122679233551
1780625764938540800,4.962540771484375,-0.30894026160240173,-1.0174106359481812,-0.9305446743965149
1780625764948535800,4.972535888671875,-0.2698290944099426,-0.9515517354011536,-0.876738429069519
1780625764958531600,4.982531494140625,-0.23203669488430023,-0.8749879598617554,-0.7161937952041626
1780625764968526600,4.992526611328125,-0.1774970293045044,-0.7818036675453186,-0.4797394275665283
1780625764978521600,5.002521484375,-0.11196568608283997,-0.6082372069358826,-0.23307213187217712
1780625764988516600,5.0125166015625,-0.053277336061000824,-0.3759984076023102,-0.04161535203456879
1780625764998511600,5.02251171875,-0.021403025835752487,-0.2159450799226761,0.04854649677872658
1780625765008507600,5.032507568359375,-0.015783756971359253,-0.19976797699928284,0.03917882591485977
1780625765018502700,5.042502685546875,-0.03488980606198311,-0.3174802362918854,-0.028248682618141174
1780625765028497700,5.05249755859375,-0.0714973509311676,-0.48330143094062805,-0.11113717406988144
1780625765038492700,5.06249267578125,-0.10090264678001404,-0.5989832878112793,-0.17531536519527435
1780625765048487700,5.07248779296875,-0.11403921991586685,-0.6267256736755371,-0.21099959313869476
1780625765058482700,5.082482666015625,-0.11213798820972443,-0.5690059065818787,-0.22286450862884521
1780625765068478500,5.092478515625,-0.10604414343833923,-0.43217137455940247,-0.20972739160060883
1780625765078473500,5.102473388671875,-0.09815452992916107,-0.25451403856277466,-0.16651228070259094
1780625765088468500,5.112468505859375,-0.10337219387292862,-0.08638149499893188,-0.10766228288412094
1780625765098463700,5.122463623046875,-0.12262871116399765,0.06639713048934937,-0.09625676274299622
1780625765108458800,5.132458740234375,-0.13242408633232117,0.2402227222919464,-0.1932685226202011
1780625765118454800,5.142454833984375,-0.1396700143814087,0.4309180974960327,-0.38897785544395447
1780625765128449800,5.15244970703125,-0.15778057277202606,0.5032405257225037,-0.5396967530250549
1780625765138444500,5.162444580078125,-0.20039594173431396,0.3522419333457947,-0.49260222911834717
1780625765148439600,5.172439453125,-0.2555404305458069,0.09020392596721649,-0.24245710670948029
1780625765158434600,5.1824345703125,-0.3026219308376312,-0.08571357280015945,0.049429599195718765
1780625765168430600,5.1924306640625,-0.30975839495658875,-0.1120237410068512,0.2836993634700775
1780625765178425600,5.202425537109375,-0.27097582817077637,-0.07344332337379456,0.46007439494132996
1780625765188420900,5.2124208984375,-0.19265493750572205,-0.09799953550100327,0.5378280282020569
1780625765198416000,5.222415771484375,-0.11383495479822159,-0.19744543731212616,0.47934582829475403
1780625765208410600,5.23241064453125,-0.0751621276140213,-0.2284773886203766,0.2787858247756958
1780625765218405600,5.242405517578125,-0.0845593586564064,-0.011313906870782375,0.06734707951545715
1780625765228401700,5.252401611328125,-0.10179293900728226,0.38343021273612976,0.029028987511992455
1780625765238396700,5.262396728515625,-0.09718646854162216,0.6650421619415283,0.18228910863399506
1780625765248391700,5.2723916015625,-0.05723026767373085,0.6893547177314758,0.4313359558582306
1780625765258386700,5.28238671875,-0.016398414969444275,0.5767072439193726,0.6470152735710144
1780625765268381700,5.292381591796875,0.024275777861475945,0.46221423149108887,0.7620931267738342
1780625765278377700,5.302377685546875,0.03449539095163345,0.41761988401412964,0.7915910482406616
1780625765288372700,5.312372802734375,-0.029747508466243744,0.4886817932128906,0.7997363209724426
1780625765298367700,5.32236767578125,-0.11877964437007904,0.5961241126060486,0.8256795406341553
1780625765308362800,5.33236279296875,-0.18168671429157257,0.656994640827179,0.8796015977859497
1780625765318357800,5.342357666015625,-0.21695974469184875,0.6342925429344177,0.9341679215431213
1780625765328353500,5.352353515625,-0.23863175511360168,0.531460165977478,0.955711841583252
1780625765338348500,5.3623486328125,-0.2502175569534302,0.38075345754623413,0.9315311312675476
1780625765348343600,5.372343505859375,-0.23897822201251984,0.2000846266746521,0.8646330833435059
1780625765358338600,5.382338623046875,-0.2137274593114853,0.0011169298086315393,0.7606757879257202
1780625765368333600,5.39233349609375,-0.19476522505283356,-0.1667809933423996,0.6784120798110962
1780625765378328600,5.40232861328125,-0.19933147728443146,-0.20147879421710968,0.693747341632843
1780625765388324900,5.412324951171875,-0.2194948047399521,-0.07017935067415237,0.7694721817970276
1780625765398319600,5.422319580078125,-0.2504417896270752,0.17252196371555328,0.8342067003250122
1780625765408314600,5.432314697265625,-0.2773786187171936,0.4728471636772156,0.8610771894454956
1780625765418309600,5.4423095703125,-0.29876139760017395,0.7503485679626465,0.8455911874771118
1780625765428304600,5.4523046875,-0.3163744807243347,0.9355812668800354,0.8101450204849243
1780625765438300700,5.46230078125,-0.3376443386077881,0.9723432660102844,0.7799352407455444
1780625765448295700,5.472295654296875,-0.3634333312511444,0.8679726719856262,0.7677462100982666
1780625765458290700,5.482290771484375,-0.3765619099140167,0.6681487560272217,0.7663259506225586
1780625765468285400,5.492285400390625,-0.3615851104259491,0.4394950866699219,0.7597178220748901
1780625765478280400,5.502280517578125,-0.3004591763019562,0.23786768317222595,0.7394106984138489
1780625765488275700,5.512275634765625,-0.20485007762908936,0.08396653831005096,0.7101220488548279
1780625765498271700,5.522271728515625,-0.10110317915678024,0.0005555353709496558,0.681789219379425
1780625765508266800,5.532266845703125,-0.01943548396229744,0.006330866366624832,0.6435320973396301
1780625765518261200,5.54226123046875,0.03771115839481354,0.08366533368825912,0.5826245546340942
1780625765528256300,5.55225634765625,0.07163690030574799,0.1756514459848404,0.49707287549972534
1780625765538251300,5.562251220703125,0.08563847094774246,0.22499796748161316,0.399998277425766
1780625765548247000,5.5722470703125,0.07653738558292389,0.20339733362197876,0.33674418926239014
1780625765558242000,5.582241943359375,0.04189498722553253,0.14457795023918152,0.3122875988483429
1780625765568237000,5.592237060546875,-0.010448379442095757,0.0965968444943428,0.3133201003074646
1780625765578232000,5.602232177734375,-0.06360107660293579,0.10682737827301025,0.32426515221595764
1780625765588227000,5.61222705078125,-0.10337246209383011,0.20135042071342468,0.33456841111183167
1780625765598223000,5.62222314453125,-0.12369131296873093,0.3489265739917755,0.3392784595489502
1780625765608218000,5.632218017578125,-0.1193772628903389,0.4939737617969513,0.31254512071609497
1780625765618213000,5.642213134765625,-0.09123457223176956,0.577713131904602,0.2369222640991211
1780625765628208000,5.6522080078125,-0.050150785595178604,0.5516056418418884,0.11799774318933487
1780625765638203100,5.662203125,-0.0033103092573583126,0.3999069333076477,-0.013548299670219421
1780625765648198100,5.6721982421875,0.05669496953487396,0.16894720494747162,-0.12280102074146271
1780625765658194200,5.682194091796875,0.13479216396808624,-0.04043184593319893,-0.18596693873405457
1780625765668189000,5.69218896484375,0.20699553191661835,-0.1315673440694809,-0.1958552598953247
1780625765678184000,5.702183837890625,0.22191855311393738,-0.11363335698843002,-0.191519096493721
1780625765688179000,5.712178955078125,0.17836840450763702,-0.05578656494617462,-0.2013229876756668
1780625765698174000,5.722174072265625,0.12211579084396362,0.02203099988400936,-0.20594383776187897
1780625765708170200,5.732170166015625,0.07473762333393097,0.11244691908359528,-0.19465257227420807
1780625765718165200,5.742165283203125,0.03692739084362984,0.20218878984451294,-0.17705200612545013
1780625765728160300,5.75216015625,-0.0036663739010691643,0.26771533489227295,-0.17919665575027466
1780625765738155000,5.762155029296875,-0.05004878714680672,0.3022536039352417,-0.22534416615962982
1780625765748150000,5.77214990234375,-0.08616204559803009,0.3250574469566345,-0.30783239006996155
1780625765758146000,5.78214599609375,-0.07872410863637924,0.372205525636673,-0.4160217046737671
1780625765768141000,5.79214111328125,-0.02563212625682354,0.45540106296539307,-0.48617976903915405
1780625765778136000,5.802135986328125,0.07107044756412506,0.4779455363750458,-0.4161309003829956
1780625765788131300,5.81213134765625,0.186998650431633,0.34458455443382263,-0.22130122780799866
1780625765798126300,5.822126220703125,0.256274938583374,0.16456684470176697,0.010209227912127972
1780625765808121000,5.83212109375,0.23004332184791565,0.13190610706806183,0.19638122618198395
1780625765818117000,5.8421171875,0.12656086683273315,0.29476451873779297,0.31658700108528137
1780625765828112100,5.852112060546875,0.024100275710225105,0.5981403589248657,0.3696227967739105
1780625765838107100,5.862107177734375,-0.030958181247115135,0.917831540107727,0.37058818340301514
1780625765848102100,5.87210205078125,-0.03550766035914421,1.1834996938705444,0.319381445646286
1780625765858097200,5.88209716796875,0.015291604213416576,1.306368350982666,0.2118174433708191
1780625765868093000,5.892093017578125,0.09408708661794662,1.2084394693374634,0.06329934298992157
1780625765878088200,5.902088134765625,0.1908101588487625,0.8332506418228149,-0.09625089913606644
1780625765888083200,5.912083251953125,0.2628294825553894,0.26630306243896484,-0.22721850872039795
1780625765898078200,5.922078125,0.2945418953895569,-0.3344043493270874,-0.3022219240665436
1780625765908073200,5.9320732421875,0.29346781969070435,-0.7747985124588013,-0.2515651285648346
1780625765918069200,5.9420693359375,0.23417814075946808,-0.9100191593170166,-0.05693545565009117
1780625765928064000,5.95206396484375,0.1328722983598709,-0.7684401869773865,0.1988486498594284
1780625765938059000,5.96205908203125,0.02183366008102894,-0.4463873505592346,0.41075077652931213
1780625765948054000,5.972053955078125,-0.0710882917046547,-0.0624585822224617,0.4830707907676697
1780625765958049000,5.982049072265625,-0.1070588082075119,0.3589927852153778,0.4031125605106354
1780625765968044000,5.9920439453125,-0.07265636324882507,0.6509647369384766,0.22779801487922668
1780625765978040300,6.002040283203125,-0.026454776525497437,0.750312089920044,0.03166818246245384
1780625765988035300,6.012035400390625,0.013895842246711254,0.635621964931488,-0.14424586296081543
1780625765998030000,6.022030029296875,0.05931472405791283,0.3917677700519562,-0.29854699969291687
1780625766008025000,6.032025146484375,0.09790978580713272,0.10509712249040604,-0.42821580171585083
1780625766018020000,6.04202001953125,0.1283702254295349,-0.1685703694820404,-0.5115184187889099
1780625766028016000,6.05201611328125,0.17115923762321472,-0.3784745931625366,-0.5354173183441162
1780625766038011100,6.06201123046875,0.1932203322649002,-0.46439990401268005,-0.5346077680587769
1780625766048006100,6.072006103515625,0.16849766671657562,-0.3793576955795288,-0.5479810833930969
1780625766058001200,6.082001220703125,0.09505806863307953,-0.09849487990140915,-0.5451578497886658
1780625766067996000,6.091995849609375,-0.008112787269055843,0.31001991033554077,-0.4374510943889618
1780625766077992200,6.1019921875,-0.1340574026107788,0.7245467901229858,-0.23116052150726318
1780625766087987200,6.1119873046875,-0.24834536015987396,1.0022391080856323,-0.04493498429656029
1780625766097982200,6.121982177734375,-0.31529057025909424,1.1415144205093384,0.02382064424455166
1780625766107977200,6.131977294921875,-0.33946195244789124,1.1512004137039185,0.01209740899503231
1780625766117972200,6.14197216796875,-0.2477850317955017,1.0616161823272705,-0.02851952612400055
1780625766127967200,6.15196728515625,-0.0434446781873703,0.8621552586555481,-0.09738567471504211
1780625766137963000,6.161962890625,0.15940536558628082,0.6353679299354553,-0.17436008155345917
1780625766147958000,6.1719580078125,0.2869209945201874,0.43633684515953064,-0.2321338951587677
1780625766157953000,6.181953125,0.3273027539253235,0.29382070899009705,-0.27971047163009644
1780625766167948000,6.191947998046875,0.31303808093070984,0.23537656664848328,-0.3343569338321686
1780625766177943300,6.201943359375,0.27671733498573303,0.27093908190727234,-0.41072016954421997
1780625766187939000,6.21193896484375,0.23580479621887207,0.3601054549217224,-0.5198761820793152
1780625766197934000,6.22193408203125,0.20453663170337677,0.41330263018608093,-0.612751841545105
1780625766207929000,6.23192919921875,0.18613950908184052,0.3802517354488373,-0.6339859962463379
1780625766217924000,6.241924072265625,0.15914411842823029,0.28112754225730896,-0.5861111283302307
1780625766227919000,6.251919189453125,0.12980620563030243,0.1526947319507599,-0.5017363429069519
1780625766237915100,6.2619150390625,0.09618964791297913,0.00765765318647027,-0.4186694324016571
1780625766247910100,6.27191015625,0.0762721374630928,-0.0828394889831543,-0.35400575399398804
1780625766257905000,6.28190478515625,0.07264730334281921,-0.05983031168580055,-0.309444397687912
1780625766267900200,6.291900146484375,0.08703769743442535,0.05807821825146675,-0.2569292485713959
1780625766277895200,6.301895263671875,0.1101376861333847,0.22282961010932922,-0.1858084797859192
1780625766287890200,6.31189013671875,0.12289662659168243,0.4006717801094055,-0.1273779273033142
1780625766297886200,6.32188623046875,0.11245011538267136,0.6256266236305237,-0.14395290613174438
1780625766307881200,6.331881103515625,0.07465905696153641,0.9538609385490417,-0.2585870921611786
1780625766317876200,6.341876220703125,0.037691451609134674,1.277824878692627,-0.37580639123916626
1780625766327871000,6.35187109375,0.01919393427670002,1.273864507675171,-0.4195999205112457
1780625766337866000,6.361865966796875,0.019059976562857628,0.7952702045440674,-0.39974740147590637
1780625766347862000,6.371862060546875,0.027835093438625336,0.058764778077602386,-0.35585159063339233
1780625766357857300,6.381857177734375,0.048042092472314835,-0.5109918713569641,-0.3754116892814636
1780625766367852300,6.391852294921875,0.08941590040922165,-0.708325207233429,-0.45876625180244446
1780625766377847300,6.401847412109375,0.1360667645931244,-0.5838309526443481,-0.57166987657547
1780625766387842300,6.41184228515625,0.1627252697944641,-0.2921120226383209,-0.617695152759552
1780625766397838000,6.421838134765625,0.15938806533813477,0.06314541399478912,-0.52773517370224
1780625766407833000,6.4318330078125,0.11921241134405136,0.3798772990703583,-0.3571224510669708
1780625766417828000,6.441828125,0.041126664727926254,0.49686434864997864,-0.2044663280248642
1780625766427823000,6.451822998046875,-0.030130205675959587,0.3937875032424927,-0.11703874170780182
1780625766437818000,6.461818115234375,-0.0672173872590065,0.1750892549753189,-0.0463416650891304
1780625766447813000,6.471813232421875,-0.0690632238984108,-0.1352616846561432,0.0527590848505497
1780625766457809200,6.48180908203125,-0.039204925298690796,-0.43903648853302,0.10370668768882751
1780625766467804200,6.49180419921875,0.011523764580488205,-0.5604822039604187,0.06410202383995056
1780625766477799200,6.501799072265625,0.05932004749774933,-0.46052286028862,-0.03543815016746521
1780625766487794200,6.511794189453125,0.08129005879163742,-0.2950071394443512,-0.12495151907205582
1780625766497789200,6.5217890625,0.08578414469957352,-0.21332186460494995,-0.15070322155952454
1780625766507785000,6.531784912109375,0.08341553062200546,-0.24852965772151947,-0.11351484060287476
1780625766517780000,6.541780029296875,0.07367262244224548,-0.335145503282547,-0.054856590926647186
1780625766527775000,6.55177490234375,0.057437725365161896,-0.392379492521286,0.01943175494670868
1780625766537770000,6.56177001953125,0.020053602755069733,-0.3533186614513397,0.11992773413658142
1780625766547765000,6.571764892578125,-0.04320180043578148,-0.2232634425163269,0.24546009302139282
1780625766557761300,6.58176123046875,-0.10981491208076477,-0.06981316953897476,0.34310275316238403
1780625766567756300,6.59175634765625,-0.15148140490055084,-0.017681792378425598,0.398133784532547
1780625766577751000,6.6017509765625,-0.14174701273441315,-0.1068982183933258,0.43584176898002625
1780625766587746000,6.61174609375,-0.07438661903142929,-0.2718850374221802,0.416963666677475
1780625766597741000,6.621740966796875,0.007434213999658823,-0.4059959650039673,0.31018102169036865
1780625766607736000,6.631736083984375,0.06734494864940643,-0.4765854477882385,0.1492249071598053
1780625766617732000,6.641732177734375,0.0942615196108818,-0.5051851272583008,0.031189078465104103
1780625766627727000,6.65172705078125,0.09992340207099915,-0.5385966300964355,0.030775222927331924
1780625766637722000,6.66172216796875,0.09758035093545914,-0.5658319592475891,0.12805810570716858
1780625766647717000,6.671717041015625,0.09647593647241592,-0.534969687461853,0.2541015148162842
1780625766657712000,6.681712158203125,0.11607946455478668,-0.44297316670417786,0.3232440948486328
1780625766667708200,6.691708251953125,0.16129834949970245,-0.3167896568775177,0.31807011365890503
1780625766677703200,6.701703125,0.2261822670698166,-0.20515021681785583,0.26175758242607117
1780625766687698200,6.7116982421875,0.2812793552875519,-0.1356358528137207,0.19560971856117249
1780625766697693200,6.721693115234375,0.2890262007713318,-0.09110540896654129,0.13738130033016205
1780625766707688200,6.731688232421875,0.24633680284023285,-0.03116004914045334,0.09564317017793655
1780625766717684000,6.74168408203125,0.18005791306495667,0.05991632863879204,0.07155514508485794
1780625766727679000,6.751678955078125,0.11537080258131027,0.16558922827243805,0.0668163150548935
1780625766737674200,6.76167431640625,0.07161080092191696,0.23112083971500397,0.0749533399939537
1780625766747669200,6.771669189453125,0.047875113785266876,0.22649119794368744,0.0830000787973404
1780625766757664300,6.781664306640625,0.04264919459819794,0.1513248085975647,0.08683715760707855
1780625766767660000,6.791659912109375,0.037218473851680756,0.0672413557767868,0.07501298934221268
1780625766777655000,6.801655029296875,0.0342426598072052,0.00022290658671408892,0.06348816305398941
1780625766787650000,6.811650146484375,0.04089763015508652,-0.03930000215768814,0.041851840913295746
1780625766797645000,6.82164501953125,0.05055239051580429,-0.02353568561375141,-0.0067995828576385975
1780625766807640000,6.83164013671875,0.0575098991394043,0.011934423819184303,-0.06286151707172394
1780625766817635000,6.841635009765625,0.05650562047958374,0.0373055599629879,-0.09845893085002899
1780625766827631400,6.85163134765625,0.05576552823185921,0.04819682240486145,-0.12215280532836914
1780625766837626000,6.861626220703125,0.05326215550303459,0.034761443734169006,-0.13214099407196045
1780625766847621000,6.87162109375,0.06090729311108589,0.007059241179376841,-0.15059404075145721
1780625766857616100,6.8816162109375,0.0737684965133667,0.007200655061751604,-0.18964342772960663
1780625766867611100,6.891611083984375,0.09316083788871765,0.061887070536613464,-0.24277536571025848
1780625766877607200,6.901607177734375,0.10975073277950287,0.15521328151226044,-0.2864930033683777
1780625766887602200,6.911602294921875,0.12597550451755524,0.2348726987838745,-0.30427253246307373
1780625766897597200,6.92159716796875,0.142171248793602,0.2731071710586548,-0.32246220111846924
1780625766907592000,6.931592041015625,0.15526628494262695,0.2866397500038147,-0.3665929138660431
1780625766917587000,6.9415869140625,0.1623508334159851,0.30911630392074585,-0.42372891306877136
1780625766927583200,6.951583251953125,0.17271745204925537,0.3621222674846649,-0.47281068563461304
1780625766937578200,6.961578125,0.17849278450012207,0.4475919008255005,-0.497951477766037
1780625766947573200,6.9715732421875,0.1633170247077942,0.5398690700531006,-0.48535871505737305
1780625766957568300,6.981568359375,0.12643809616565704,0.6101906299591064,-0.4364188611507416
1780625766967563300,6.991563232421875,0.07882317900657654,0.6061455607414246,-0.36898335814476013
1780625766977558000,7.00155810546875,0.036373455077409744,0.5219396352767944,-0.3269387185573578
1780625766987554000,7.011553955078125,0.008557269349694252,0.40181562304496765,-0.3481678366661072
1780625766997549000,7.021549072265625,0.005073854699730873,0.2837185263633728,-0.42505061626434326
1780625767007544000,7.0315439453125,0.027758926153182983,0.19099099934101105,-0.5414560437202454
1780625767017539000,7.0415390625,0.05289224162697792,0.09168118238449097,-0.669461727142334
1780625767027534000,7.0515341796875,0.07417143136262894,-0.0007177218794822693,-0.8308415412902832
1780625767037530000,7.061530029296875,0.09335018694400787,-0.08741346746683121,-1.0111713409423828
1780625767047525000,7.071525146484375,0.09541919827461243,-0.15394216775894165,-1.1242923736572266
1780625767057520000,7.08152001953125,0.07950174808502197,-0.1725158393383026,-1.076897382736206
1780625767067515100,7.09151513671875,0.0466226302087307,-0.10820476710796356,-0.8733090758323669
1780625767077510100,7.10151025390625,0.00965795386582613,0.05686967447400093,-0.6330983638763428
1780625767087506200,7.111506103515625,-0.017072726041078568,0.273992657661438,-0.4777039885520935
1780625767097501000,7.1215009765625,-0.016562199220061302,0.431865394115448,-0.4036012589931488
1780625767107496000,7.131495849609375,0.022889070212841034,0.4469793736934662,-0.3920162320137024
1780625767117491000,7.141490966796875,0.07775764167308807,0.34887969493865967,-0.4327676594257355
1780625767127486200,7.151486328125,0.12247531861066818,0.18628865480422974,-0.5159456729888916
1780625767137481200,7.161481201171875,0.14129480719566345,-0.013562946580350399,-0.6026666760444641
1780625767147477200,7.171477294921875,0.14298377931118011,-0.17909252643585205,-0.6606850028038025
1780625767157472300,7.18147216796875,0.12172297388315201,-0.22685737907886505,-0.6732149124145508
1780625767167467000,7.191467041015625,0.09599337726831436,-0.153485968708992,-0.605438232421875
1780625767177462000,7.2014619140625,0.09820539504289627,-0.05108954757452011,-0.47366955876350403
1780625767187457000,7.21145703125,0.14373666048049927,0.0018485001055523753,-0.3532049357891083
1780625767197453000,7.221453125,0.20570096373558044,-0.002359294332563877,-0.29282522201538086
1780625767207448000,7.231447998046875,0.24825242161750793,-0.02659778855741024,-0.2818777561187744
1780625767217443300,7.241443359375,0.24973607063293457,-0.012974121607840061,-0.26964718103408813
1780625767227438300,7.251438232421875,0.22915782034397125,0.07632513344287872,-0.21328485012054443
1780625767237433000,7.26143310546875,0.20232966542243958,0.21343745291233063,-0.1316070258617401
1780625767247429000,7.27142919921875,0.17613880336284637,0.35635438561439514,-0.07700503617525101
1780625767257424100,7.281424072265625,0.1400202214717865,0.4458019733428955,-0.08001281321048737
1780625767267419100,7.291419189453125,0.0910705178976059,0.4247265160083771,-0.13421505689620972
1780625767277414100,7.3014140625,0.0462159663438797,0.31548070907592773,-0.19700521230697632
1780625767287409200,7.3114091796875,0.023356188088655472,0.18230216205120087,-0.23627538979053497
1780625767297405000,7.321405029296875,0.023335415869951248,0.06844590604305267,-0.2375209480524063
1780625767307400200,7.331400146484375,0.028177842497825623,0.008374310098588467,-0.20483596622943878
1780625767317395200,7.341395263671875,0.012807141989469528,-0.020927652716636658,-0.1494629979133606
1780625767327390200,7.35139013671875,-0.03871463984251022,-0.04201189801096916,-0.09252886474132538
1780625767337385200,7.36138525390625,-0.10613895207643509,-0.054668836295604706,-0.030249515548348427
1780625767347380200,7.371380126953125,-0.16872750222682953,-0.042033471167087555,0.05558523163199425
1780625767357376000,7.3813759765625,-0.22190123796463013,0.02883164770901203,0.17022445797920227
1780625767367371000,7.39137109375,-0.27247360348701477,0.26870229840278625,0.198019877076149
1780625767377366000,7.401365966796875,-0.30088499188423157,0.6242784857749939,0.06853511929512024
1780625767387361000,7.411361083984375,-0.27402836084365845,0.8754249811172485,-0.19300034642219543
1780625767397356000,7.42135595703125,-0.17042526602745056,0.9016597867012024,-0.5447839498519897
1780625767407352300,7.431352294921875,-0.014415690675377846,0.6361745595932007,-0.8503491878509521
1780625767417347000,7.44134716796875,0.13455621898174286,0.0983036682009697,-0.9629141092300415
1780625767427342000,7.451342041015625,0.1744232028722763,-0.4079478085041046,-0.8687012791633606
1780625767437337000,7.461337158203125,0.14406609535217285,-0.49150902032852173,-0.6289408802986145
1780625767447332000,7.47133203125,0.07953983545303345,0.060751497745513916,-0.3339020609855652
1780625767457328000,7.481328125,-0.013319001533091068,0.9118970036506653,-0.06018663942813873
1780625767467323100,7.4913232421875,-0.10336127877235413,1.3250070810317993,0.13805267214775085
1780625767477318100,7.501318115234375,-0.1605910062789917,0.9900921583175659,0.21159373223781586
1780625767487313200,7.511313232421875,-0.16941513121128082,0.24475568532943726,0.22698761522769928
1780625767497308000,7.521307861328125,-0.12670361995697021,-0.4348377287387848,0.17667943239212036
1780625767507304200,7.53130419921875,-0.07537464797496796,-0.7043006420135498,0.08350235223770142
1780625767517299200,7.54129931640625,-0.053401704877614975,-0.640023410320282,0.11219524592161179
1780625767527294200,7.551294189453125,-0.07098069787025452,-0.5311349630355835,0.36354225873947144
1780625767537289200,7.561289306640625,-0.0710909515619278,-0.4285675883293152,0.7225592732429504
1780625767547284200,7.5712841796875,-0.008166050538420677,-0.31505516171455383,1.0136198997497559
1780625767557280300,7.5812802734375,0.11181308329105377,-0.2947048842906952,1.231589436531067
1780625767567275300,7.591275146484375,0.24154338240623474,-0.39982303977012634,1.3761674165725708
1780625767577270300,7.601270263671875,0.25828880071640015,-0.46262648701667786,1.3522506952285767
1780625767587265300,7.611265380859375,0.06978946924209595,-0.33772265911102295,1.03296959400177
1780625767597260300,7.62126025390625,-0.19783692061901093,-0.1319894641637802,0.41529813408851624
1780625767607255300,7.63125537109375,-0.33887845277786255,-0.21482788026332855,-0.17106682062149048
1780625767617251000,7.6412509765625,-0.28048333525657654,-0.5932723879814148,-0.3730103373527527
1780625767627246000,7.65124609375,-0.12827914953231812,-0.5165038704872131,-0.23682719469070435
1780625767637241000,7.661240966796875,0.01215733028948307,0.23415470123291016,0.1026853621006012
1780625767647236400,7.671236328125,0.09305138140916824,0.9155428409576416,0.45095759630203247
1780625767657231400,7.6812314453125,0.11562992632389069,1.1114822626113892,0.7286334037780762
1780625767667227400,7.691227294921875,0.08649440854787827,0.8346285820007324,0.9832742214202881
1780625767677222100,7.70122216796875,0.009058210067451,0.38072577118873596,1.2175942659378052
1780625767687217200,7.711217041015625,-0.060139767825603485,-0.03248284012079239,1.351950764656067
1780625767697212200,7.721212158203125,-0.09556806832551956,-0.36308231949806213,1.3559761047363281
1780625767707207200,7.731207275390625,-0.14573350548744202,-0.4810768663883209,1.2956795692443848
1780625767717203200,7.741203125,-0.2491845190525055,-0.3919616639614105,1.1543892621994019
1780625767727198500,7.751198486328125,-0.4124288558959961,-0.22243785858154297,0.9098447561264038
1780625767737193500,7.761193359375,-0.5759884715080261,-0.0334588922560215,0.5835553407669067
1780625767747188200,7.771188232421875,-0.6668014526367188,0.08931683003902435,0.24109438061714172
1780625767757183200,7.781183349609375,-0.603571355342865,-0.016414126381278038,-0.025619609281420708
1780625767767179300,7.79117919921875,-0.3689599335193634,-0.41350874304771423,-0.10506276786327362
1780625767777174300,7.80117431640625,-0.12574568390846252,-0.9114943146705627,0.10865990072488785
1780625767787169300,7.811169189453125,0.030286001041531563,-1.1347172260284424,0.5447376370429993
1780625767797164300,7.821164306640625,0.13223233819007874,-0.8389862775802612,0.9508092403411865
1780625767807159300,7.8311591796875,0.19510504603385925,-0.15610304474830627,1.1712310314178467
1780625767817154000,7.841154052734375,0.19576364755630493,0.5476857423782349,1.1955835819244385
1780625767827150300,7.851150390625,0.16215188801288605,1.0097146034240723,1.074221134185791
1780625767837145300,7.861145263671875,0.0874669998884201,1.1785914897918701,0.8899381756782532
1780625767847140400,7.871140380859375,-0.025970080867409706,1.111558198928833,0.7138147950172424
1780625767857135400,7.88113525390625,-0.15869644284248352,0.8780567049980164,0.5657616853713989
1780625767867130400,7.89113037109375,-0.27296683192253113,0.5502822995185852,0.44823184609413147
1780625767877126100,7.901126220703125,-0.32701700925827026,0.22137926518917084,0.3580758571624756
1780625767887121200,7.91112109375,-0.3041588366031647,-0.03207191452383995,0.2944502830505371
1780625767897116200,7.9211162109375,-0.22904357314109802,-0.1844356209039688,0.26232829689979553
1780625767907111200,7.931111083984375,-0.12521810829639435,-0.21571658551692963,0.30844172835350037
1780625767917106200,7.941106201171875,-0.026616696268320084,-0.10356234759092331,0.3756069242954254
1780625767927102200,7.951102294921875,0.05961699038743973,0.13371971249580383,0.38633278012275696
1780625767937097200,7.96109716796875,0.1478416621685028,0.413112998008728,0.35867053270339966
1780625767947092200,7.97109228515625,0.2527552843093872,0.6788970232009888,0.30202192068099976
1780625767957087200,7.981087158203125,0.34497788548469543,0.8457597494125366,0.23072881996631622
1780625767967082200,7.991082275390625,0.42187613248825073,0.6960206031799316,0.12702159583568573
1780625767977078300,8.001078369140625,0.47157737612724304,0.15433630347251892,-0.01122176181524992
1780625767987073300,8.0110732421875,0.432648628950119,-0.45330411195755005,-0.0917927697300911
1780625767997068300,8.021068359375,0.29241588711738586,-0.6035537719726562,-0.012529906816780567
1780625768007063000,8.03106298828125,0.11383788287639618,-0.32074153423309326,0.19395136833190918
1780625768017058000,8.04105810546875,-0.05263258516788483,0.10973767936229706,0.43161213397979736
1780625768027054300,8.051054443359375,-0.18436451256275177,0.4459220767021179,0.5786492228507996
1780625768037049300,8.06104931640625,-0.2795695960521698,0.6605651378631592,0.576078474521637
1780625768047044400,8.07104443359375,-0.3493902087211609,0.8082987070083618,0.40260764956474304
1780625768057039400,8.081039306640625,-0.38303232192993164,0.9410005211830139,0.10203741490840912
1780625768067034400,8.091034423828125,-0.3531665802001953,1.0610902309417725,-0.20822803676128387
1780625768077030100,8.101030029296876,-0.2361353039741516,1.097828984260559,-0.3718790113925934
1780625768087025200,8.111025146484375,-0.04767724126577377,0.9134277701377869,-0.2889620363712311
1780625768097020200,8.121020263671875,0.11635270714759827,0.5053587555885315,-0.06678542494773865
1780625768107015200,8.13101513671875,0.16181792318820953,0.031864456832408905,0.06975031644105911
1780625768117010400,8.141010498046874,0.09041405469179153,-0.3096010088920593,0.10107868164777756
1780625768127005400,8.15100537109375,-0.035226430743932724,-0.4134831726551056,0.07486971467733383
1780625768137001200,8.161001220703126,-0.1680968552827835,-0.25556039810180664,0.03890851512551308
1780625768146996200,8.170996337890625,-0.29204198718070984,0.09234218299388885,0.013701963238418102
1780625768156991200,8.1809912109375,-0.39063751697540283,0.5471336841583252,0.009763681329786777
1780625768166986200,8.190986328125,-0.45327186584472656,1.021626353263855,0.04031599685549736
1780625768176981200,8.200981201171874,-0.4313521981239319,1.354329228401184,0.10890171676874161
1780625768186977000,8.21097705078125,-0.322816401720047,1.4275864362716675,0.13882659375667572
1780625768196972000,8.220971923828126,-0.1696508228778839,1.2147541046142578,-0.005012601613998413
1780625768206967300,8.23096728515625,-0.03192970156669617,0.7948864698410034,-0.33980923891067505
1780625768216962300,8.24096240234375,0.06150703504681587,0.21008798480033875,-0.6552766561508179
1780625768226957300,8.250957275390626,0.12519919872283936,-0.43695682287216187,-0.7898102402687073
1780625768236953300,8.260953369140625,0.14822648465633392,-0.9711994528770447,-0.7335330843925476
1780625768246948400,8.2709482421875,0.11611222475767136,-1.1783177852630615,-0.583392858505249
1780625768256943000,8.280943115234376,0.06320559978485107,-0.9778067469596863,-0.4145388603210449
1780625768266938000,8.290938232421874,0.03509699925780296,-0.39921289682388306,-0.2053840458393097
1780625768276933000,8.30093310546875,0.04495895281434059,0.42807918787002563,0.026682477444410324
1780625768286929200,8.31092919921875,0.11021944880485535,1.0903910398483276,0.14729198813438416
1780625768296924400,8.32092431640625,0.19082480669021606,1.2238506078720093,0.10170878469944
1780625768306919400,8.33091943359375,0.22789734601974487,1.045387625694275,-0.05700070038437843
1780625768316914400,8.34091455078125,0.19450609385967255,0.799771249294281,-0.1458727866411209
1780625768326909200,8.3509091796875,0.1289856731891632,0.5551268458366394,-0.08610265702009201
1780625768336905200,8.3609052734375,0.072484590113163,0.33739322423934937,0.010705375112593174
1780625768346900200,8.370900146484376,0.030660441145300865,0.1713981181383133,0.03540246561169624
1780625768356895200,8.380895263671874,0.010508300736546516,-0.03184208646416664,-0.06500909477472305
1780625768366890200,8.39089013671875,0.03151345252990723,-0.2854767441749573,-0.1844920814037323
1780625768376885200,8.40088525390625,0.09529376029968262,-0.5254994630813599,-0.20239651203155518
1780625768386880300,8.41088037109375,0.1790831983089447,-0.5710448622703552,-0.16288451850414276
1780625768396876300,8.420876220703125,0.22832398116588593,-0.35830727219581604,-0.12330089509487152
1780625768406871300,8.430871337890625,0.2039102464914322,-0.017226124182343483,-0.0866861566901207
1780625768416866300,8.4408662109375,0.11019840836524963,0.2733718752861023,0.015419170260429382
1780625768426861300,8.450861328125,-0.01708977110683918,0.40370458364486694,0.16896983981132507
1780625768436856300,8.460856201171875,-0.15416319668293,0.45163190364837646,0.31026092171669006
1780625768446852000,8.47085205078125,-0.2540663778781891,0.5020372867584229,0.3902670741081238
1780625768456847000,8.48084716796875,-0.2935352027416229,0.4998324513435364,0.39269375801086426
1780625768466842000,8.490842041015625,-0.25707387924194336,0.414050430059433,0.2923937737941742
1780625768476837000,8.500837158203124,-0.12995480000972748,0.22880016267299652,0.14368580281734467
1780625768486832000,8.51083203125,0.007392402272671461,-0.024390295147895813,-0.03726188465952873
1780625768496828400,8.520828369140625,0.050097521394491196,-0.248919278383255,-0.19677670300006866
1780625768506823400,8.530823486328124,0.009070460684597492,-0.3706592917442322,-0.2551891505718231
1780625768516818200,8.540818115234375,-0.06078771501779556,-0.38854482769966125,-0.18484121561050415
1780625768526813200,8.550813232421875,-0.11944703757762909,-0.3608822822570801,-0.036245089024305344
1780625768536808200,8.56080810546875,-0.14479872584342957,-0.2850205600261688,0.09769779443740845
1780625768546804200,8.57080419921875,-0.15455202758312225,-0.16990168392658234,0.191444531083107
1780625768556799200,8.58079931640625,-0.17332305014133453,-0.06238854303956032,0.23584102094173431
1780625768566794500,8.59079443359375,-0.18839015066623688,-0.013401293195784092,0.231588214635849
1780625768576789500,8.60078955078125,-0.18505321443080902,-0.0704968050122261,0.20419281721115112
1780625768586784300,8.6107841796875,-0.1655934900045395,-0.21725775301456451,0.17741313576698303
1780625768596780300,8.6207802734375,-0.14615587890148163,-0.4079403579235077,0.14695775508880615
1780625768606775300,8.630775390625,-0.13171249628067017,-0.5887170433998108,0.09632307291030884
1780625768616770300,8.640770263671875,-0.145568385720253,-0.680385172367096,0.049380600452423096
1780625768626765300,8.650765380859376,-0.19536709785461426,-0.6879887580871582,0.0648927167057991
1780625768636760300,8.66076025390625,-0.2611999213695526,-0.5984048247337341,0.15021559596061707
1780625768646755300,8.67075537109375,-0.31360185146331787,-0.4593423008918762,0.2872203290462494
1780625768656751400,8.68075146484375,-0.35112446546554565,-0.35275405645370483,0.43490299582481384
1780625768666746400,8.690746337890625,-0.36850425601005554,-0.30555564165115356,0.5627363324165344
1780625768676741400,8.700741455078125,-0.3786034882068634,-0.3057631254196167,0.6401232481002808
1780625768686736400,8.710736328125,-0.3716723620891571,-0.3497084677219391,0.6481662392616272
1780625768696731400,8.7207314453125,-0.3469640910625458,-0.4837597608566284,0.6058347821235657
1780625768706727200,8.73072705078125,-0.29860132932662964,-0.675973117351532,0.49439188838005066
1780625768716722200,8.74072216796875,-0.23558589816093445,-0.9135236144065857,0.34227558970451355
1780625768726717200,8.75071728515625,-0.1789628267288208,-1.1266367435455322,0.19181710481643677
1780625768736712200,8.760712158203125,-0.1345018893480301,-1.2430239915847778,0.06989067047834396
1780625768746707200,8.770707275390626,-0.13137319684028625,-1.2414062023162842,0.01811721920967102
1780625768756703500,8.780703369140625,-0.18430405855178833,-1.1688119173049927,0.0561349093914032
1780625768766698200,8.7906982421875,-0.2802811861038208,-1.0474878549575806,0.17946270108222961
1780625768776693200,8.800693359375,-0.36319097876548767,-0.8241487741470337,0.3035857081413269
1780625768786688300,8.810688232421874,-0.40090322494506836,-0.42500853538513184,0.34733933210372925
1780625768796683300,8.820683349609375,-0.4007554054260254,0.09363620728254318,0.31303781270980835
1780625768806679300,8.83067919921875,-0.41259530186653137,0.5955885648727417,0.2640548050403595
1780625768816674300,8.84067431640625,-0.4574306607246399,0.9414868354797363,0.23965440690517426
1780625768826669300,8.85066943359375,-0.5517622232437134,1.0668071508407593,0.23769670724868774
1780625768836664300,8.860664306640626,-0.6744799017906189,0.9470176696777344,0.23002521693706512
1780625768846659000,8.8706591796875,-0.7862013578414917,0.6195492744445801,0.19157183170318604
1780625768856655400,8.8806552734375,-0.8592665195465088,0.20685970783233643,0.11956421285867691
1780625768866650400,8.890650390625,-0.8721085786819458,-0.11802411079406738,0.03199947997927666
1780625768876645400,8.900645263671874,-0.8167638182640076,-0.2817786931991577,-0.02899782918393612
1780625768886640400,8.910640380859375,-0.722660481929779,-0.28523653745651245,-0.027512317523360252
1780625768896635400,8.920635498046876,-0.6236667633056641,-0.161446675658226,0.02292582206428051
1780625768906631200,8.930631103515625,-0.5363593101501465,0.021574534475803375,0.09044814109802246
1780625768916626200,8.940626220703125,-0.48016661405563354,0.22260244190692902,0.1397126317024231
1780625768926621200,8.95062109375,-0.46055829524993896,0.4585081934928894,0.16617752611637115
1780625768936616200,8.9606162109375,-0.4900658428668976,0.6748104095458984,0.155356302857399
1780625768946611500,8.970611572265625,-0.5452265739440918,0.7544618248939514,0.10240200161933899
1780625768956607200,8.980607177734376,-0.5994685292243958,0.6785625219345093,0.05818474292755127
1780625768966602200,8.990602294921874,-0.6321444511413574,0.5217899680137634,0.053643520921468735
1780625768976597200,9.00059716796875,-0.6230359077453613,0.3102017939090729,0.07414533197879791
1780625768986592300,9.01059228515625,-0.5583484768867493,0.07810678333044052,0.10413599014282227
1780625768996587300,9.020587158203124,-0.44320034980773926,-0.18193916976451874,0.1023053303360939
1780625769006583300,9.030583251953125,-0.31892871856689453,-0.39819955825805664,0.09452757239341736
1780625769016578300,9.040578369140626,-0.23418746888637543,-0.42935988306999207,0.09094402194023132
1780625769026573000,9.050572998046874,-0.20511560142040253,-0.320796400308609,0.07462097704410553
1780625769036568300,9.060568359375,-0.21421349048614502,-0.16638632118701935,0.06555131077766418
1780625769046563300,9.070563232421875,-0.22263041138648987,0.027596473693847656,0.09504129737615585
1780625769056559400,9.080559326171874,-0.2247753143310547,0.23567190766334534,0.13778316974639893
1780625769066554400,9.090554443359375,-0.24535170197486877,0.4197424054145813,0.19265200197696686
1780625769076549400,9.10054931640625,-0.2798633277416229,0.5692309737205505,0.22772850096225739
1780625769086544400,9.11054443359375,-0.3200853168964386,0.6196379661560059,0.23672199249267578
1780625769096539100,9.1205390625,-0.3498898148536682,0.46853071451187134,0.24003390967845917
1780625769106535200,9.13053515625,-0.35023683309555054,0.048643168061971664,0.24394795298576355
1780625769116530200,9.1405302734375,-0.30643370747566223,-0.40900135040283203,0.2773445248603821
1780625769126525400,9.150525390625,-0.2467557191848755,-0.6504805684089661,0.3198477625846863
1780625769136520400,9.1605205078125,-0.1820334494113922,-0.6789425611495972,0.31798967719078064
1780625769146515500,9.170515380859374,-0.1310054212808609,-0.5705617666244507,0.25030064582824707
1780625769156510500,9.180510498046875,-0.07067204266786575,-0.3421730399131775,0.165780171751976
1780625769166506200,9.19050634765625,-0.008817194029688835,0.005859486758708954,0.12009285390377045
1780625769176501200,9.200501220703124,0.05290955305099487,0.39923474192619324,0.1062002032995224
1780625769186496300,9.210496337890625,0.08490636944770813,0.6807540655136108,0.08972162753343582
1780625769196491300,9.2204912109375,0.06990505009889603,0.7623772621154785,0.05415910854935646
1780625769206486300,9.230486328125,0.0027334685437381268,0.6770232319831848,0.011900335550308228
1780625769216482300,9.240482421875,-0.07298979163169861,0.40606123208999634,0.006057626102119684
1780625769226477300,9.250477294921875,-0.10787160694599152,0.05264643207192421,0.05140486732125282
1780625769236472300,9.260472412109374,-0.0678994208574295,-0.17908905446529388,0.1239355280995369
1780625769246467300,9.27046728515625,0.011058243922889233,-0.23685061931610107,0.14705894887447357
1780625769256462300,9.28046240234375,0.058332014828920364,-0.25808799266815186,0.09229051321744919
1780625769266458400,9.290458251953124,0.07083848863840103,-0.2673339545726776,0.014198909513652325
1780625769276453400,9.300453369140625,0.05662652850151062,-0.11497825384140015,-0.041363686323165894
1780625769286448000,9.3104482421875,0.054235540330410004,0.1288815438747406,-0.058093927800655365
1780625769296443100,9.320443115234376,0.0987556055188179,0.3164740800857544,-0.07737654447555542
1780625769306438100,9.330438232421875,0.16842390596866608,0.40142571926116943,-0.11499476432800293
1780625769316434400,9.340434326171875,0.22170390188694,0.34579336643218994,-0.17726293206214905
1780625769326429400,9.350429443359374,0.20826345682144165,0.163910910487175,-0.27075105905532837
1780625769336424400,9.360424560546875,0.13417644798755646,0.05483182147145271,-0.3603488504886627
1780625769346419500,9.37041943359375,0.09509482234716415,0.17443571984767914,-0.34248650074005127
1780625769356414200,9.380414306640626,0.10627850145101547,0.3413216471672058,-0.18858003616333008
1780625769366410200,9.39041015625,0.1182483434677124,0.2528413236141205,-0.06895696371793747
1780625769376405200,9.4004052734375,0.11716017872095108,0.09657048434019089,-0.048582982271909714
1780625769386400300,9.410400146484376,0.09746982902288437,0.12007953226566315,-0.08311885595321655
1780625769396395300,9.420395263671875,0.08305733650922775,0.20198026299476624,-0.16568830609321594
1780625769406390300,9.430390380859375,0.09801231324672699,0.16419214010238647,-0.23870179057121277
1780625769416386300,9.44038623046875,0.13699594140052795,0.07385478168725967,-0.2392786294221878
1780625769426381300,9.45038134765625,0.17570151388645172,-0.04165982827544212,-0.19179552793502808
1780625769436376300,9.460376220703125,0.20837131142616272,-0.058278754353523254,-0.14428606629371643
1780625769446371300,9.470371337890626,0.21346594393253326,0.12499520182609558,-0.12132696062326431
1780625769456366300,9.480366455078125,0.196245938539505,0.33166900277137756,-0.12849006056785583
1780625769466361300,9.490361328125,0.18013249337673187,0.34415125846862793,-0.1399107575416565
1780625769476357000,9.500357177734376,0.1646624505519867,0.16669471561908722,-0.1744876503944397
1780625769486352100,9.51035205078125,0.15035274624824524,-0.1016954705119133,-0.25013765692710876
1780625769496347100,9.52034716796875,0.1255376785993576,-0.2604001462459564,-0.34764131903648376
1780625769506342100,9.530342041015626,0.10076949000358582,-0.15670359134674072,-0.3599621653556824
1780625769516337000,9.5403369140625,0.10314422845840454,0.13777197897434235,-0.2627647817134857
1780625769526333000,9.5503330078125,0.1252596527338028,0.3444788157939911,-0.12840484082698822
1780625769536328000,9.560327880859376,0.153173565864563,0.3251439929008484,-0.0514456145465374
1780625769546323000,9.570322998046874,0.16788354516029358,0.20355871319770813,-0.04707243666052818
1780625769556317700,9.580317626953125,0.12665808200836182,0.1041887179017067,-0.1028776466846466
1780625769566314000,9.59031396484375,0.04031946137547493,0.1070670634508133,-0.14520539343357086
1780625769576309000,9.60030908203125,-0.04075329005718231,0.15409502387046814,-0.1476118266582489
1780625769586304000,9.610303955078125,-0.07364359498023987,0.027301928028464317,-0.16720522940158844
1780625769596299000,9.620299072265626,-0.03718731552362442,-0.1317252665758133,-0.20043589174747467
1780625769606294000,9.6302939453125,0.05772508308291435,-0.10304196178913116,-0.16480280458927155
1780625769616289000,9.6402890625,0.17771939933300018,-0.06509218364953995,-0.11847711354494095
1780625769626284800,9.650284912109376,0.25110891461372375,-0.12356747686862946,-0.12656646966934204
1780625769636279800,9.66027978515625,0.2170572131872177,-0.12163562327623367,-0.1425560861825943
1780625769646274800,9.67027490234375,0.1248958632349968,0.10202649980783463,-0.11559530347585678
1780625769656269800,9.680269775390625,0.03767148032784462,0.3559296131134033,-0.1156240701675415
1780625769666264800,9.690264892578124,0.01353418454527855,0.485434353351593,-0.10233329236507416
1780625769676260900,9.7002607421875,0.034323886036872864,0.3946399986743927,-0.08001919835805893
1780625769686255900,9.710255859375,0.07487423717975616,0.11780998855829239,-0.09481359273195267
1780625769696251000,9.7202509765625,0.1248931959271431,-0.12411289662122726,-0.11268366873264313
1780625769706246000,9.730245849609375,0.16419880092144012,-0.10812593996524811,-0.0875261202454567
1780625769716241000,9.740240966796875,0.1555589735507965,0.026209766045212746,-0.04001239687204361
1780625769726237000,9.75023681640625,0.09303806722164154,0.021211279556155205,-0.04320712387561798
1780625769736231700,9.760231689453125,0.0011430287268012762,-0.013165337033569813,-0.09937691688537598
1780625769746226700,9.770226806640625,-0.07047070562839508,-0.14850984513759613,-0.2270275503396988
1780625769756221700,9.7802216796875,-0.1275414526462555,-0.40174955129623413,-0.2937850058078766
1780625769766216700,9.790216796875,-0.0963640883564949,-0.488090842962265,-0.19331832230091095
1780625769776213000,9.800212890625,0.03271746635437012,-0.24388456344604492,-0.012858540751039982
1780625769786208000,9.8102080078125,0.15399169921875,-0.17184846103191376,-0.018938537687063217
1780625769796203000,9.820203125,0.1835075169801712,-0.1313502937555313,-0.185709148645401
1780625769806197800,9.83019775390625,0.10935871303081512,0.09008754789829254,-0.30605125427246094
1780625769816192800,9.84019287109375,0.005907956510782242,0.2199621945619583,-0.3133224844932556
1780625769826188800,9.850188720703125,-0.05055878311395645,0.14549647271633148,-0.2721841037273407
1780625769836183800,9.860183837890625,-0.08727338910102844,-0.05145466700196266,-0.2365158647298813
1780625769846178800,9.8701787109375,-0.10571444779634476,-0.3104366958141327,-0.21917416155338287
1780625769856173800,9.880173828125,-0.06576729565858841,-0.41087087988853455,-0.150650754570961
1780625769866169000,9.890169189453125,0.020292755216360092,-0.27424272894859314,-0.033431194722652435
1780625769876164900,9.900164794921874,0.09276296198368073,-0.2872709333896637,0.00020932445477228612
1780625769886160000,9.910159912109375,0.12108967453241348,-0.3606005311012268,-0.04622901231050491
1780625769896155000,9.92015478515625,0.09432170540094376,-0.25416916608810425,-0.059717126190662384
1780625769906150000,9.93014990234375,0.05279210954904556,-0.25726401805877686,-0.13188134133815765
1780625769916145000,9.940144775390625,0.03785363957285881,-0.16343340277671814,-0.21115005016326904
1780625769926140700,9.950140625,0.06479204446077347,-0.0571058951318264,-0.2506348788738251
1780625769936135700,9.9601357421875,0.14307406544685364,0.06373663246631622,-0.20222899317741394
1780625769946130700,9.970130615234375,0.2523835003376007,0.2365685999393463,-0.1207040473818779
1780625769956126000,9.9801259765625,0.36334091424942017,0.2831139862537384,-0.16582411527633667
1780625769966121000,9.990120849609376,0.437434583902359,0.33692529797554016,-0.35636425018310547
1780625769976116000,10.000115966796875,0.4499056339263916,0.2804276645183563,-0.5732983946800232
1780625769986112000,10.010112060546875,0.41528642177581787,0.3612127900123596,-0.6180490851402283
1780625769996106800,10.020106689453126,0.34975001215934753,0.6890804171562195,-0.48690760135650635
1780625770006101800,10.030101806640625,0.31087690591812134,0.7323868870735168,-0.36959031224250793
1780625770016096800,10.0400966796875,0.3117368519306183,0.5212368369102478,-0.3347465693950653
1780625770026091800,10.050091796875,0.3493518829345703,0.2398378998041153,-0.31318774819374084
1780625770036087800,10.060087890625,0.419577032327652,-0.031886026263237,-0.2302664965391159
1780625770046083000,10.0700830078125,0.4953652620315552,-0.060449495911598206,-0.040474455803632736
1780625770056078000,10.080078125,0.543039858341217,0.13741378486156464,0.17603202164173126
1780625770066072800,10.09007275390625,0.5638300776481628,0.31958118081092834,0.33382272720336914
1780625770076067800,10.10006787109375,0.6110727190971375,0.42233073711395264,0.4516012668609619
1780625770086063900,10.11006396484375,0.7361932992935181,0.39850690960884094,0.5233886241912842
1780625770096059000,10.120058837890625,1.005998134613037,0.26831507682800293,0.5681108236312866
1780625770106054000,10.130053955078125,1.4136091470718384,0.0852629691362381,0.5538152456283569
1780625770116049000,10.140048828125,1.8653936386108398,-0.3144647181034088,0.38269731402397156
1780625770126044000,10.1500439453125,1.9968684911727905,-0.7625231742858887,0.0861458033323288
1780625770136040000,10.1600400390625,1.6006311178207397,-0.5360346436500549,-0.06760860234498978
1780625770146035000,10.170034912109376,0.9243453741073608,0.603874683380127,0.054970573633909225
1780625770156030000,10.180030029296875,0.36576521396636963,1.5487383604049683,0.2585687041282654
1780625770166025000,10.19002490234375,0.20148517191410065,1.3156561851501465,0.3120063543319702
1780625770176020000,10.20002001953125,0.4006025493144989,0.3589608371257782,0.14510206878185272
1780625770186015700,10.210015625,0.6579605937004089,-0.46431654691696167,-0.09095946699380875
1780625770196010800,10.2200107421875,0.813529908657074,-0.609329104423523,-0.28665998578071594
1780625770206005800,10.230005859375,1.044171929359436,-0.42232194542884827,-0.3942762017250061
1780625770216000800,10.240000732421874,1.329437494277954,-0.23080524802207947,-0.30433085560798645
1780625770225995800,10.249995849609375,1.4783351421356201,0.1535900980234146,-0.014434599317610264
1780625770235992000,10.259991943359376,1.3185219764709473,0.7673403024673462,0.2904837727546692
1780625770245986800,10.26998681640625,0.8962138891220093,1.2319319248199463,0.4385128915309906
1780625770255981800,10.27998193359375,0.5360985994338989,1.1862952709197998,0.4240386188030243
1780625770265976800,10.289976806640626,0.46267175674438477,0.625163733959198,0.3616173267364502
1780625770275971800,10.299971923828124,0.567483127117157,-0.21656426787376404,0.27804920077323914
1780625770285968000,10.3099677734375,0.6881904006004333,-0.9400822520256042,0.20295098423957825
1780625770295963000,10.319962890625,0.7301924228668213,-1.2947527170181274,0.1278170794248581
1780625770305958000,10.3299580078125,0.6479135155677795,-1.2208271026611328,0.023311180993914604
1780625770315953000,10.339952880859375,0.4618304669857025,-0.6624200344085693,-0.11962013691663742
1780625770325947600,10.34994775390625,0.2306305468082428,0.3160106837749481,-0.39991649985313416
1780625770335944000,10.35994384765625,-0.0008724515791982412,1.3831044435501099,-0.8225364685058594
1780625770345939000,10.36993896484375,-0.18229949474334717,2.1386215686798096,-1.2735768556594849
1780625770355934000,10.379933837890626,-0.2862147092819214,2.3984358310699463,-1.6291309595108032
1780625770365929000,10.389928955078124,-0.3275906443595886,2.2131571769714355,-1.8370591402053833
1780625770375924000,10.399924072265625,-0.35402917861938477,1.8702319860458374,-1.9004162549972534
1780625770385919700,10.409919677734376,-0.443820595741272,1.6247130632400513,-1.891327977180481
1780625770395914800,10.419914794921874,-0.6405118107795715,1.6840955018997192,-1.9332307577133179
1780625770405909800,10.42990966796875,-0.9081283211708069,2.031848192214966,-1.9964730739593506
1780625770415904800,10.43990478515625,-1.1872323751449585,2.467987060546875,-2.043008327484131
1780625770425900000,10.449900146484374,-1.4361234903335571,2.6573638916015625,-2.0504205226898193
1780625770435895800,10.459895751953125,-1.5873446464538574,2.490102767944336,-1.9787036180496216
1780625770445890800,10.469890869140626,-1.6511313915252686,2.181593894958496,-1.8899333477020264
1780625770455885800,10.4798857421875,-1.686522364616394,1.880165934562683,-1.9212802648544312
1780625770465880800,10.489880859375,-1.7508264780044556,1.5887926816940308,-2.0854883193969727
1780625770475875800,10.499875732421875,-1.8791155815124512,1.3412171602249146,-2.2608354091644287
1780625770485870800,10.509870849609374,-2.0820722579956055,1.2293494939804077,-2.3196239471435547
1780625770495867000,10.519866943359375,-2.3954594135284424,1.3273972272872925,-2.3517138957977295
1780625770505861600,10.529861572265625,-2.8025012016296387,1.4839261770248413,-2.4111504554748535
1780625770515857400,10.539857421875,-3.297952175140381,1.4014801979064941,-2.4991295337677
1780625770525852400,10.549852294921875,-3.851001024246216,1.2477096319198608,-2.7130286693573
1780625770535847400,10.559847412109375,-4.318807125091553,1.0780707597732544,-2.958686113357544
1780625770545843700,10.56984375,-4.543554306030273,0.6340323090553284,-3.1175100803375244
1780625770555838500,10.57983837890625,-4.428972244262695,-0.06847146898508072,-3.192171335220337
1780625770565833500,10.58983349609375,-4.116844654083252,-0.6740588545799255,-3.1837220191955566
1780625770575828500,10.599828369140624,-3.9224133491516113,-0.724312961101532,-3.0363271236419678
1780625770585823500,10.609823486328125,-3.8380537033081055,-0.5257961750030518,-2.7475714683532715
1780625770595819500,10.619819580078126,-3.7867631912231445,-0.5452553033828735,-2.37477445602417
1780625770605814500,10.629814453125,-3.6522250175476074,-0.6150549054145813,-2.06133770942688
1780625770615809500,10.6398095703125,-3.4187254905700684,-0.86775803565979,-1.9079126119613647
1780625770625804500,10.649804443359375,-3.137739419937134,-1.2857757806777954,-1.7622506618499756
1780625770635799300,10.65979931640625,-2.866899013519287,-1.4286963939666748,-1.524322509765625
1780625770645795600,10.669795654296875,-2.6032984256744385,-1.1312410831451416,-1.202346682548523
1780625770655790600,10.67979052734375,-2.3732693195343018,-0.6433592438697815,-0.847070038318634
1780625770665785600,10.68978564453125,-2.092966079711914,-0.37148618698120117,-0.4897039234638214
1780625770675780600,10.699780517578125,-1.758785605430603,-0.2188497930765152,-0.19008898735046387
1780625770685775600,10.709775634765625,-1.4950581789016724,0.001002413802780211,0.011012171395123005
1780625770695771400,10.719771484375,-1.3706661462783813,0.13542413711547852,0.2016628086566925
1780625770705766400,10.729766357421875,-1.418658971786499,0.1415478140115738,0.25976234674453735
1780625770715761400,10.739761474609375,-1.4520087242126465,0.09093363583087921,0.2543680965900421
1780625770725756400,10.74975634765625,-1.3659573793411255,0.11808988451957703,0.32849106192588806
1780625770735751400,10.75975146484375,-1.3173280954360962,0.24052578210830688,0.4127465486526489
1780625770745747500,10.76974755859375,-1.350736379623413,0.2697286903858185,0.39289188385009766
1780625770755742500,10.779742431640624,-1.3904153108596802,0.15017299354076385,0.263309121131897
1780625770765737500,10.789737548828125,-1.4226126670837402,-0.05312473699450493,0.12022547423839569
1780625770775732500,10.799732421875,-1.444001317024231,-0.15220259130001068,0.06948187202215195
1780625770785727500,10.8097275390625,-1.4689842462539673,0.026136795058846474,0.12329237163066864
1780625770795723500,10.8197236328125,-1.4787616729736328,0.2230253517627716,0.18474029004573822
1780625770805718500,10.829718505859375,-1.497336506843567,0.30943429470062256,0.16693732142448425
1780625770815713300,10.83971337890625,-1.5840988159179688,0.31747862696647644,0.03694843128323555
1780625770825708300,10.849708251953125,-1.7127281427383423,0.17164206504821777,-0.1293819546699524
1780625770835703600,10.85970361328125,-1.8192516565322876,0.05950354039669037,-0.2621844708919525
1780625770845698600,10.869698486328126,-1.8829361200332642,0.07635948807001114,-0.37460529804229736
1780625770855694600,10.879694580078125,-1.8878259658813477,0.11244212090969086,-0.4397185146808624
1780625770865689600,10.889689697265625,-1.8197970390319824,0.12378185987472534,-0.49804094433784485
1780625770875684600,10.8996845703125,-1.8169456720352173,0.06240372359752655,-0.5657947063446045
1780625770885679400,10.909679443359375,-1.8895097970962524,0.05549228563904762,-0.659083366394043
1780625770895674400,10.91967431640625,-1.9437131881713867,-0.00481393001973629,-0.7340090274810791
1780625770905670400,10.92967041015625,-1.9547258615493774,-0.21979254484176636,-0.7455138564109802
1780625770915665400,10.93966552734375,-1.9065959453582764,-0.48630520701408386,-0.7280712127685547
1780625770925660700,10.94966064453125,-1.7209123373031616,-0.5588262677192688,-0.8170450329780579
1780625770935655700,10.95965576171875,-1.5512691736221313,-0.5910987257957458,-0.9035788774490356
1780625770945650700,10.969650634765625,-1.4953676462173462,-0.4954904317855835,-0.8609818816184998
1780625770955646500,10.979646484375,-1.5163533687591553,-0.286912202835083,-0.7879143357276917
1780625770965641500,10.989641357421876,-1.503626823425293,-0.07769159972667694,-0.7173309326171875
1780625770975636500,10.999636474609375,-1.4993267059326172,0.08172761648893356,-0.6401317715644836
1780625770985631500,11.009631591796875,-1.509512186050415,0.06506209075450897,-0.5914009809494019
1780625770995626500,11.01962646484375,-1.4502962827682495,0.021697837859392166,-0.6140937805175781
1780625771005622300,11.029622314453125,-1.3633583784103394,-0.0791853666305542,-0.6184672117233276
1780625771015617500,11.039617431640625,-1.248899221420288,-0.23498162627220154,-0.5133423805236816
1780625771025612500,11.049612548828126,-1.0976982116699219,-0.36910054087638855,-0.3796434700489044
1780625771035607600,11.059607666015625,-0.9437403678894043,-0.43295541405677795,-0.2523992359638214
1780625771045602600,11.0696025390625,-0.8807297348976135,-0.39304423332214355,-0.15505589544773102
1780625771055598600,11.0795986328125,-0.8496019244194031,-0.2948140501976013,-0.20042204856872559
1780625771065593600,11.089593505859375,-0.7973485589027405,-0.19342458248138428,-0.29038122296333313
1780625771075588400,11.09958837890625,-0.7891774773597717,-0.18889695405960083,-0.29348835349082947
1780625771085583400,11.109583251953126,-0.8204464316368103,-0.21799597144126892,-0.3224440813064575
1780625771095578400,11.119578369140624,-0.8591573238372803,-0.3017883598804474,-0.45470041036605835
1780625771105573400,11.129573486328125,-0.852219820022583,-0.46455276012420654,-0.6234595775604248
1780625771115569700,11.139569580078126,-0.7722868919372559,-0.6539344191551208,-0.71220463514328
1780625771125564700,11.149564697265625,-0.7123143672943115,-0.7605242133140564,-0.6814398169517517
1780625771135559700,11.1595595703125,-0.6471915245056152,-0.6390721201896667,-0.5317938327789307
1780625771145554400,11.169554443359376,-0.5365976691246033,-0.30069246888160706,-0.49596768617630005
1780625771155549400,11.179549560546874,-0.36118510365486145,-0.15400874614715576,-0.555827796459198
1780625771165545500,11.18954541015625,-0.17079970240592957,-0.24537380039691925,-0.6443174481391907
1780625771175540500,11.19954052734375,-0.06184765323996544,-0.2315053939819336,-0.6663207411766052
1780625771185535500,11.209535400390624,-0.05606566742062569,-0.20724666118621826,-0.56598299741745
1780625771195530500,11.219530517578125,-0.07316369563341141,-0.13402730226516724,-0.5318620204925537
1780625771205525500,11.229525390625,-0.04478504881262779,-0.09529376029968262,-0.5519406795501709
1780625771215521500,11.239521484375,-0.040894437581300735,-0.0911906287074089,-0.5379255414009094
1780625771225516500,11.2495166015625,-0.05770404264330864,-0.09921739995479584,-0.42603546380996704
1780625771235511600,11.259511474609376,-0.05830991268157959,-0.05094999819993973,-0.17496435344219208
1780625771245506600,11.269506591796874,-0.016234897077083588,0.08615592122077942,0.09946294128894806
1780625771255501600,11.27950146484375,0.08874770998954773,0.23652119934558868,0.2746337056159973
1780625771265497300,11.289497314453126,0.21739596128463745,0.28162288665771484,0.23460398614406586
1780625771275492400,11.299492431640624,0.30263736844062805,0.22161415219306946,0.13647262752056122
1780625771285487400,11.3094873046875,0.25562164187431335,0.21171250939369202,0.21123340725898743
1780625771295482400,11.319482421875,0.10195858776569366,0.20876891911029816,0.33852797746658325
1780625771305477400,11.329477294921874,0.014425810426473618,0.060802631080150604,0.41836076974868774
1780625771315473700,11.3394736328125,0.04553978890180588,-0.058035340160131454,0.40625375509262085
1780625771325468400,11.349468505859376,0.15459489822387695,-0.10527342557907104,0.39990267157554626
1780625771335463400,11.35946337890625,0.20225536823272705,-0.01703411154448986,0.43019959330558777
1780625771345458400,11.36945849609375,0.2352420836687088,0.12571504712104797,0.4738951325416565
1780625771355453400,11.379453369140625,0.2880341708660126,0.27322036027908325,0.5160881280899048
1780625771365449500,11.389449462890624,0.36070093512535095,0.3614748418331146,0.44732344150543213
1780625771375444500,11.399444580078125,0.41549599170684814,0.2518380880355835,0.35285526514053345
1780625771385439500,11.409439453125,0.3834635019302368,0.08450396358966827,0.26024356484413147
1780625771395434500,11.4194345703125,0.25011637806892395,-0.027475565671920776,0.26216450333595276
1780625771405429500,11.429429443359375,0.10129279643297195,-0.07460658997297287,0.32819145917892456
1780625771415424500,11.439424560546875,0.026449717581272125,-0.055681370198726654,0.3827977180480957
1780625771425420500,11.449420654296874,0.07453921437263489,0.04602741450071335,0.4000432789325714
1780625771435415600,11.45941552734375,0.0909794420003891,0.09327322244644165,0.46283236145973206
1780625771445410600,11.46941064453125,0.09528577327728271,0.07378873974084854,0.518534779548645
1780625771455405600,11.479405517578124,0.024391891434788704,0.004974252078682184,0.4667155146598816
1780625771465400600,11.489400634765625,-0.050886884331703186,-0.11530688405036926,0.3963438868522644
1780625771475396400,11.499396240234375,-0.07457463443279266,-0.25593483448028564,0.4474869668483734
1780625771485391400,11.509391357421874,-0.08608482033014297,-0.38025280833244324,0.6093882322311401
1780625771495386600,11.51938671875,-0.08391354233026505,-0.343696653842926,0.7313240170478821
1780625771505381600,11.529381591796875,-0.042163699865341187,-0.13056626915931702,0.8465781807899475
1780625771515376600,11.539376708984374,-0.021810224279761314,0.10520578175783157,0.9823746085166931
1780625771525372200,11.5493720703125,-0.0704275593161583,0.2202407568693161,1.0074442625045776
1780625771535367200,11.5593671875,-0.0978245660662651,0.15470728278160095,0.8866845369338989
1780625771545362400,11.569362548828124,-0.0754992812871933,0.032697226852178574,0.7383302450180054
1780625771555357400,11.579357421875,-0.09520268440246582,-0.03279097005724907,0.6237663626670837
1780625771565352400,11.5893525390625,-0.11805713176727295,-0.06091608107089996,0.48004329204559326
1780625771575348500,11.599348388671874,-0.054614510387182236,-0.14511671662330627,0.35539510846138
1780625771585343500,11.609343505859375,0.0964282676577568,-0.15326598286628723,0.27942898869514465
1780625771595338200,11.619338134765625,0.2462577074766159,-0.03351534903049469,0.2304830104112625
1780625771605333200,11.629333251953126,0.3012338876724243,0.1468709409236908,0.142730250954628
1780625771615328300,11.639328369140625,0.28060051798820496,0.234651118516922,0.03598356619477272
1780625771625323300,11.6493232421875,0.24640445411205292,0.24009595811367035,-0.06272250413894653
1780625771635319600,11.659319580078124,0.2255242019891739,0.2019006311893463,-0.15092666447162628
1780625771645314600,11.669314453125,0.2692658305168152,0.21224115788936615,-0.13990463316440582
1780625771655309300,11.679309326171875,0.2986548840999603,0.14480511844158173,-0.08811654150485992
1780625771665304300,11.68930419921875,0.39321786165237427,0.004848284646868706,-0.12527109682559967
1780625771675299300,11.69929931640625,0.4866575300693512,-0.05271940305829048,-0.13852564990520477
1780625771685295400,11.70929541015625,0.5153485536575317,0.03840251639485359,-0.05778127536177635
1780625771695290400,11.719290283203126,0.4836476147174835,0.20485088229179382,0.05477483198046684
1780625771705285400,11.729285400390625,0.3702126741409302,0.3205452561378479,0.11935382336378098
1780625771715280400,11.7392802734375,0.25954607129096985,0.39714282751083374,0.08359129726886749
1780625771725275400,11.749275390625,0.23104360699653625,0.32208776473999023,0.018910573795437813
1780625771735271400,11.759271484375,0.2546147108078003,0.14663630723953247,-0.019948141649365425
1780625771745266400,11.769266357421875,0.3001270592212677,0.008821721188724041,-0.06048411503434181
1780625771755261400,11.779261474609376,0.34396588802337646,-0.05937464162707329,-0.06306365132331848
1780625771765256400,11.78925634765625,0.3480871319770813,-0.021832328289747238,-0.09850979596376419
1780625771775251500,11.79925146484375,0.29382097721099854,0.14165593683719635,-0.19524751603603363
1780625771785247200,11.809247314453126,0.16839060187339783,0.32358473539352417,-0.23270487785339355
1780625771795242200,11.8192421875,-0.004600078333169222,0.44979220628738403,-0.2713225781917572
1780625771805237200,11.8292373046875,-0.16240088641643524,0.4196276366710663,-0.3678683042526245
1780625771815232300,11.839232177734376,-0.248191699385643,0.2244376391172409,-0.49588751792907715
1780625771825227300,11.849227294921874,-0.26877713203430176,0.06738249957561493,-0.5904800891876221
1780625771835222500,11.859222412109375,-0.2431090623140335,0.08023065328598022,-0.609022855758667
1780625771845218300,11.86921826171875,-0.1959247589111328,0.2010660022497177,-0.5637224912643433
1780625771855213300,11.87921337890625,-0.18866871297359467,0.2575710713863373,-0.48068833351135254
1780625771865208300,11.889208251953125,-0.19223149120807648,0.16324138641357422,-0.4650300145149231
1780625771875203300,11.899203369140626,-0.18252480030059814,0.08034543693065643,-0.5522061586380005
1780625771885198300,11.9091982421875,-0.19693703949451447,0.09863975644111633,-0.655785858631134
1780625771895194400,11.9191943359375,-0.22515855729579926,0.15920430421829224,-0.7096320390701294
1780625771905189400,11.929189453125,-0.2363792508840561,0.10210958868265152,-0.7649741172790527
1780625771915184400,11.939184326171874,-0.20820459723472595,-0.14466610550880432,-0.8431914448738098
1780625771925179400,11.949179443359375,-0.13845694065093994,-0.35913553833961487,-0.9603369235992432
1780625771935174400,11.95917431640625,-0.06719155609607697,-0.3481704890727997,-1.0696983337402344
1780625771945170400,11.96917041015625,-0.00726377172395587,-0.18168990314006805,-1.0984524488449097
1780625771955165400,11.97916552734375,0.006617422681301832,0.09487830847501755,-1.0589852333068848
1780625771965160400,11.989160400390626,-0.024838238954544067,0.3658885061740875,-0.9862561821937561
1780625771975155500,11.999155517578124,-0.0617523118853569,0.6159856915473938,-0.896757960319519
1780625771985150500,12.009150390625,-0.09120447933673859,0.8052427172660828,-0.8104358911514282
1780625771995146200,12.019146240234376,-0.08678336441516876,0.6644927859306335,-0.7172918319702148
1780625772005141200,12.029141357421874,-0.03927469998598099,0.2220493108034134,-0.7191352248191833
1780625772015136500,12.039136474609375,0.059794358909130096,-0.22551913559436798,-0.8611009120941162
1780625772025131500,12.049131591796876,0.2166348397731781,-0.4309505820274353,-1.02031672000885
1780625772035126500,12.05912646484375,0.307234525680542,-0.42686423659324646,-1.0937222242355347
1780625772045121500,12.06912158203125,0.3163395822048187,-0.24756638705730438,-1.0787959098815918
1780625772055117300,12.079117431640626,0.29767268896102905,0.12421569228172302,-0.9951247572898865
1780625772065112300,12.0891123046875,0.284414142370224,0.5034807324409485,-0.8412284255027771
1780625772075107300,12.099107421875,0.27559641003608704,0.6731704473495483,-0.6514760255813599
1780625772085102300,12.109102294921875,0.243577778339386,0.5640564560890198,-0.4680534899234772
1780625772095097300,12.119097412109374,0.15770281851291656,0.2537497282028198,-0.3078289330005646
1780625772105093400,12.12909326171875,0.02600150741636753,-0.011255850084125996,-0.21519167721271515
1780625772115088400,12.13908837890625,-0.10515518486499786,-0.06844909489154816,-0.14032435417175293
1780625772125083400,12.14908349609375,-0.24639911949634552,0.03127669543027878,-0.06016773357987404
1780625772135078400,12.159078369140625,-0.3986046314239502,0.34334778785705566,-0.21163742244243622
1780625772145073400,12.169073486328125,-0.48263323307037354,0.6793547868728638,-0.5970168113708496
1780625772155068400,12.179068359375,-0.5362058877944946,0.6343841552734375,-0.8623499274253845
1780625772165064400,12.189064453125,-0.6242949962615967,0.20855213701725006,-0.7909582853317261
1780625772175059200,12.19905908203125,-0.7451428771018982,-0.034269556403160095,-0.5626574754714966
1780625772185054200,12.20905419921875,-0.8293895721435547,0.14337606728076935,-0.4389491379261017
1780625772195049200,12.21904931640625,-0.7927106618881226,0.29659971594810486,-0.4258703589439392
1780625772205044200,12.229044189453125,-0.6226561069488525,0.23610813915729523,-0.46840181946754456
1780625772215040500,12.23904052734375,-0.39151182770729065,0.09169849753379822,-0.426670104265213
1780625772225035500,12.249035400390625,-0.23964828252792358,-0.003712446428835392,-0.2511206567287445
1780625772235030500,12.259030517578125,-0.24117107689380646,0.003980094101279974,-0.04066354036331177
1780625772245025300,12.269025390625,-0.299388587474823,0.11909522861242294,0.06313022971153259
1780625772255020300,12.279020263671875,-0.2871236503124237,0.21352453529834747,-0.03863154724240303
1780625772265016300,12.289016357421875,-0.2155277580022812,0.2116485983133316,-0.24711817502975464
1780625772275011300,12.29901123046875,-0.14095045626163483,0.16807103157043457,-0.3644615709781647
1780625772285006300,12.30900634765625,-0.05048314854502678,0.10448858886957169,-0.3805622458457947
1780625772295001300,12.31900146484375,-0.005539108533412218,0.03958123177289963,-0.3977753221988678
1780625772304996400,12.328996337890626,-0.0762561559677124,0.013512613251805305,-0.4073246121406555
1780625772314992400,12.338992431640625,-0.26031094789505005,0.05378307029604912,-0.3631126880645752
1780625772324987400,12.3489873046875,-0.37018656730651855,0.05645634979009628,-0.3114612102508545
1780625772334982400,12.358982421875,-0.356107234954834,-0.006960437633097172,-0.2909758985042572
1780625772344977400,12.368977294921875,-0.2859177589416504,-0.03718678280711174,-0.314820259809494
1780625772354972400,12.378972412109375,-0.22180083394050598,-0.03195367008447647,-0.42305856943130493
1780625772364967400,12.388967529296876,-0.18051864206790924,-0.06969811767339706,-0.6166093945503235
1780625772374963200,12.398963134765625,-0.1017167717218399,-0.25595080852508545,-0.7238200306892395
1780625772384958200,12.408958251953125,-0.021797973662614822,-0.472102552652359,-0.6851005554199219
