time,seconds_elapsed,z,y,x
1780626033326603800,0.069603759765625,-0.7606219684362411,-0.227765676318109,-0.4470661239666864
1780626033336598500,0.0795986328125,-0.8423626785337924,-0.30636575030237434,-0.6243801450833678
1780626033346593500,0.089593505859375,-0.7419207750976086,-0.4526309550195932,-0.6915453634701669
1780626033356589600,0.099589599609375,-0.4792483283102512,-0.5437485652714967,-0.7075381746329367
1780626033366584800,0.109584716796875,-0.16955518715083598,-0.45235096903443334,-0.7044239881351589
1780626033376580600,0.11958056640625,-0.1619300990998745,-0.17019436183720826,-0.5505273752240464
1780626033386575600,0.12957568359375,-0.9956827701985835,0.7056856786340475,-0.20117780311657116
1780626033396570600,0.139570556640625,-1.4960890373498201,1.6614397585481404,0.3158204649332911
1780626033406566700,0.149566650390625,-0.8559884683042764,1.6309993198379873,0.9539905043076723
1780626033416561700,0.159561767578125,0.49476621543765065,0.6339075596243142,1.1801210537046194
1780626033426556700,0.169556640625,1.5789666425228117,-0.1923009797051549,0.9987100090652704
1780626033436552700,0.179552734375,2.056696967485547,-0.28222061234414575,0.7263048344232141
1780626033446547000,0.189546875,1.4261135838478802,0.4903872697010636,1.0456515007212757
1780626033456543000,0.19954296875,0.16942717685699463,0.26415128716826436,0.8581348326832056
1780626033466538000,0.2095380859375,-0.4968400991022586,0.4452238936334848,0.272595016392041
1780626033476533000,0.219532958984375,-1.344721248796582,0.6736655695170164,-0.1493158153263386
1780626033486529000,0.229529052734375,-1.9032804297089576,0.9327893839120864,-0.31518165557309985
1780626033496524000,0.23952392578125,-1.6075906794607637,0.9532374209180474,-0.20083266120702026
1780626033506520000,0.24952001953125,-0.6336743353903294,0.76180825561136,-0.126731104218401
1780626033516515000,0.25951513671875,0.7893325146138668,0.22961977975219486,-0.13829660045821218
1780626033526510000,0.269510009765625,2.0121756887137887,0.24096388832628726,0.004881872023735195
1780626033536505900,0.279505859375,2.4898142437398434,1.3273425362333655,0.661415525079146
1780626033546500900,0.2895009765625,1.9314432788759468,1.5071365010648965,1.1665995280262083
1780626033556496000,0.299495849609375,1.3465356047421693,1.5898396264538168,1.7024496681980787
1780626033566492200,0.3094921875,0.8415513621509074,1.4344462356463075,1.9520731021896003
1780626033576487200,0.319487060546875,-0.6139087276905775,1.0544172832399605,1.527997795046866
1780626033586483000,0.32948291015625,-1.5834937645584344,0.23010493292063472,0.48006205584593115
1780626033596478000,0.33947802734375,-1.2342922043532132,-0.7768430353969336,-0.8499106096953153
1780626033606473000,0.349472900390625,-0.811680540022254,-1.765254061026871,-2.1789804081127047
1780626033616469000,0.359468994140625,-0.7187859832257032,-2.308069729362428,-2.889125696504116
1780626033626464000,0.369464111328125,-0.43384909766018387,-2.2299323044538495,-2.8779797408506274
1780626033636460000,0.3794599609375,-0.10973872409164905,-1.3990227478265762,-2.2500208604976533
1780626033646455000,0.389455078125,0.1273474460184574,-0.5969950022906064,-1.4720280705437063
1780626033656450000,0.399449951171875,0.4113397442102432,-0.13075959254950284,-0.7500134075950831
1780626033666446000,0.409446044921875,0.859820009291172,0.09316372912675142,-0.19312113698162137
1780626033676440800,0.41944091796875,1.1148626918524502,0.13146511047035456,0.08247570984121412
1780626033686435800,0.429435791015625,0.5533008219927549,0.07212269466370344,-0.01859868509551743
1780626033696432000,0.43943212890625,-0.3090530896902084,-0.1383332426741719,-0.4810553411995992
1780626033706427100,0.44942724609375,-0.6728466543495655,-0.5261515337824821,-0.8034560247734188
1780626033716423000,0.4594228515625,-0.43891748696565624,-0.9030231912016868,-1.1132904740996659
1780626033726418000,0.46941796875,0.2600380066305399,-1.059642324411869,-1.3623233948521316
1780626033736413000,0.479412841796875,0.7873913174182177,-0.9282412190884352,-1.3056858540900051
1780626033746409000,0.489408935546875,0.9746966807931661,-0.5846098602309823,-0.968602163310349
1780626033756404000,0.499404052734375,0.7909738520801067,-0.03888093479722738,-0.5751241659399121
1780626033766400000,0.50939990234375,0.681657737314701,0.36394466356784105,-0.33353622743114825
1780626033776395000,0.51939501953125,0.7081786644935607,0.23393325903713702,-0.06490479917414486
1780626033786390000,0.52939013671875,0.6304460209935904,-0.22521043887734413,0.14625789819359777
1780626033796386000,0.539385986328125,0.07042085918188094,-0.09550035538077353,-0.106398108426854
1780626033806381000,0.549381103515625,-1.1373568477332592,0.8609899298533796,0.5456647010911255
1780626033816376000,0.5593759765625,-1.4418302084177732,1.3013871339827776,0.10268098759986459
1780626033826371800,0.569371826171875,0.17555647339224814,1.3973241272151469,-0.300577887615934
1780626033836366800,0.579366943359375,1.3674386920392512,1.340098265171051,0.1752207386318594
1780626033846363100,0.589363037109375,1.3719634759873152,0.11294482665657997,0.8791526324011385
1780626033856358100,0.599358154296875,0.8662380596399307,-0.7091077620372176,1.3455064078249037
1780626033866353200,0.609353271484375,0.47957449152469633,-0.49315410406589505,0.9874606661025435
1780626033876349000,0.619348876953125,0.49877311299145216,0.7133651272207499,0.7281142949979752
1780626033886344000,0.629343994140625,-1.2177975811481474,-0.07344342187345028,-0.3906582637745887
1780626033896339000,0.6393388671875,-1.8332658132404087,-0.34458675988614557,-0.854063126264885
1780626033906335200,0.649335205078125,-1.3509662806659937,0.01579553502500057,-0.6460303244207054
1780626033916330000,0.659330078125,-0.5824643726348877,-0.4851040686011314,-0.15072023876416496
1780626033926326000,0.669325927734375,0.5841682539433241,-0.7893304687872529,0.23380245399801058
1780626033936321000,0.679321044921875,1.3174936346530914,-0.618238281327486,-0.0027884205755544823
1780626033946316000,0.68931591796875,1.371482414472103,-0.6077396836668253,-0.4335693308707326
1780626033956312000,0.69931201171875,1.2109534143418073,-0.4937126147314906,-0.8550047910291702
1780626033966306800,0.709306884765625,0.7457008781582116,-0.2296051667049527,-0.9757267544932663
1780626033976303000,0.71930322265625,0.09750409641861915,0.0047004327759146685,-0.6439955306574702
1780626033986298000,0.729298095703125,-0.3071019556224346,0.07416092249304056,-0.1402586851782631
1780626033996293000,0.739293212890625,-0.3050421004831791,0.271276316742599,0.14449753745757044
1780626034006289000,0.749288818359375,0.6402665732622146,0.6521881894633174,0.22024616753347218
1780626034016284000,0.759283935546875,1.1729478010743857,0.8710223713070153,0.30727296480778604
1780626034026279000,0.76927880859375,0.9980939229935407,1.088833639843762,0.30751020762976256
1780626034036275000,0.77927490234375,1.057521678996086,1.4859326772555708,0.15114457425661385
1780626034046270000,0.78927001953125,1.2905676338046788,2.1492525015860795,-0.4903211091296747
1780626034056266000,0.799265869140625,1.8942858068704604,2.2978221838533877,-1.0183014292418957
1780626034066261000,0.809260986328125,1.417113700312376,1.4629863936930894,0.22934574858378617
1780626034076256000,0.819256103515625,-0.12562076835632324,2.1530025017693637,0.7109761862576007
1780626034086252000,0.829251953125,-0.8456728259950875,3.3373724450901148,0.23330226765722034
1780626034096247000,0.8392470703125,-2.2944185128897425,0.7999874718800186,-1.0912373399846256
1780626034106242800,0.849242919921875,-2.000463623610139,-1.1258549182489515,-1.0098916205540298
1780626034116238000,0.859238037109375,-1.4330734859883785,-1.6625468430072068,-0.9995781702019274
1780626034126233000,0.869233154296875,-0.7272159579187631,-1.4153034360200165,-0.9968312826465815
1780626034136229000,0.87922900390625,0.43144028295278547,-0.6075704645797609,-0.8998129969835281
1780626034146224000,0.88922412109375,0.7676882535606622,-0.3846338158532977,-0.10372574741244316
1780626034156219000,0.899218994140625,0.714709527567029,-0.3494105267807841,0.9113211370129137
1780626034166215000,0.90921484375,0.8870587293505668,-0.150886434777081,1.474335470703244
1780626034176210000,0.9192099609375,0.2814426137089729,-0.2946455018922686,1.1491316028095782
1780626034186206200,0.929206298828125,-0.6337544148892164,-0.2722989377886057,0.9506305994205176
1780626034196201000,0.939200927734375,-0.9669102647006511,-0.4446691823601722,0.22308818602636454
1780626034206196000,0.949196044921875,-0.6225842015773058,-0.953167278291285,-0.49235067872852084
1780626034216192000,0.95919189453125,0.5721440541505813,-0.2647974761173129,-0.031351562205702066
1780626034226187000,0.96918701171875,0.9573737900704145,0.025483693085610864,2.875590507626533
1780626034236183000,0.97918310546875,1.0791618483960628,0.5046671394661069,1.6476004721574484
1780626034246177800,0.989177734375,1.1502736124515534,1.1524345898777246,-0.3158635003574192
1780626034256172800,0.9991728515625,0.8070797682285309,0.7192611995220184,-0.4122666497968137
1780626034266169000,1.009169189453125,-0.018268062618374825,-0.1269815353155136,-0.4144112606100738
1780626034276164000,1.0191640625,-1.5386287869155406,-0.2767424731940031,-0.5477759210914374
1780626034286159000,1.0291591796875,-2.3910966798782347,-0.47760699084401126,-0.7002784127630293
1780626034296155000,1.03915478515625,-2.3101146791934966,-0.3249874486640095,-0.8290941777683793
1780626034306150000,1.04914990234375,-1.9565116691589355,-0.553532000400126,-1.1833604740172623
1780626034316146000,1.05914599609375,-1.2294336584061383,-1.1579089296355842,-1.3460678410999476
1780626034326141200,1.06914111328125,-0.6641425388902426,-1.207621055048704,-1.1847095505386591
1780626034336136200,1.07913623046875,-0.4010375459045171,-0.8536559337034821,-1.2282906258508561
1780626034346132000,1.089132080078125,-0.3860410523027181,-0.4657014489948749,-1.491264101411402
1780626034356127000,1.099126953125,-0.3017173399746418,-0.2321449143156409,-1.4267964515455067
1780626034366122000,1.1091220703125,0.22041677486002445,0.2017550367489457,-0.9363684114426374
1780626034376118000,1.119117919921875,1.1864321365475654,2.0626532455414535,0.47751551316827534
1780626034386113000,1.129113037109375,2.3956682255774737,4.746334987650811,2.114948373185098
1780626034396109000,1.139109130859375,3.2163276063472033,3.1204438046067953,1.5784836813114582
1780626034406104000,1.14910400390625,3.545851821658015,1.7320862431794404,1.6270776163496077
1780626034416099000,1.15909912109375,3.8560079041540622,1.6121797608166932,0.9934630483224988
1780626034426095000,1.16909521484375,3.7137802843898533,1.1501263129353523,0.15706936119571327
1780626034436090000,1.179090087890625,2.6994138565093277,0.5550403591364622,-0.5709029680483043
1780626034446086100,1.189086181640625,0.7160568505227566,-0.46052638444453475,-1.1621525585547088
1780626034456081200,1.1990810546875,-0.6760393129110336,-1.2790347246602176,-1.7767282257214188
1780626034466076400,1.209076416015625,-1.4364327332884073,-1.6521484908506274,-1.863855305032432
1780626034476072200,1.219072265625,-1.8188836521446703,-1.5068170598521828,-1.4558914669960736
1780626034486067200,1.229067138671875,-1.5222352859973907,-1.1704923707462846,-1.166565114299953
1780626034496062200,1.239062255859375,-0.507708699119091,-0.32246582123190165,-0.9672269294343888
1780626034506058200,1.249058349609375,0.2703805369466543,0.6925513256423175,-0.8230554821260273
1780626034516053200,1.25905322265625,1.111310552328825,1.6932335115633903,0.502778695371002
1780626034526049300,1.26904931640625,1.603078754994273,2.1208738177113236,0.8664483413897455
1780626034536044300,1.279044189453125,2.2774638709574937,2.310955952323228,1.0543632149651645
1780626034546039300,1.289039306640625,3.010657149720192,1.7899549331717193,0.9441707557566463
1780626034556035300,1.299035400390625,3.404644777113199,1.0251543638765812,0.21664573188871145
1780626034566030300,1.3090302734375,2.901988685208559,0.5627047562845051,-0.17963555939942596
1780626034576026000,1.319026123046875,1.9508114116907118,0.7323558050252497,-0.13750512128695844
1780626034586021000,1.329021240234375,1.2888853798061608,1.4645767316244542,-0.011478694739192724
1780626034596016000,1.33901611328125,0.9500263499170541,1.7208654687240719,-0.15676000298559664
1780626034606012400,1.349012451171875,0.800773946082592,1.48027845088616,-0.35393034229278564
1780626034616007400,1.35900732421875,1.1276958699405193,1.2447194903433323,0.10195260026007891
1780626034626002400,1.36900244140625,1.8272703722178936,1.3747066372156143,0.4808873276889324
1780626034635998200,1.378998291015625,2.3934932196259497,1.4541298641510307,0.6169950032681226
1780626034645993200,1.3889931640625,2.9778514431834218,1.1833921843297779,0.7809469635844231
1780626034655989200,1.3989892578125,3.1520453960508106,0.4398704037763178,0.5979147474840283
1780626034665984300,1.408984375,2.6134488067150112,-0.7054298041768372,-0.33629911627322434
1780626034675979300,1.418979248046875,2.061355606946349,-1.4006547329425811,-1.2502046437561511
1780626034685975300,1.428975341796875,2.024077138909697,-1.0238412354514002,-1.46263100438416
1780626034695970300,1.43897021484375,1.9819260964006185,0.03931296953894198,-1.4005492267414927
1780626034705966300,1.44896630859375,1.1032879893928766,1.4960156798526645,-0.9362941771626472
1780626034715961300,1.45896142578125,1.18092184869349,3.7106294191434976,-1.3326175540268421
1780626034725956000,1.4689560546875,2.150405763274431,3.434747654432058,1.4408692544311283
1780626034735952400,1.478952392578125,1.264656947478652,1.0323074505016208,5.054535552164912
1780626034745947400,1.488947509765625,1.8629554335832594,1.2680702630534768,2.9151263992011547
1780626034755942400,1.4989423828125,2.3018401873230934,2.130934316215664,0.5474935970187187
1780626034765938200,1.508938232421875,1.9230536361932753,1.5332015011698006,-0.23574703046083448
1780626034775933200,1.51893310546875,1.220282968223095,0.940289018952474,-0.1603004520714283
1780626034785929200,1.52892919921875,1.0761538987517356,1.7677172362700104,0.5032014508277177
1780626034795924200,1.53892431640625,1.502161635261774,2.8857509593740103,1.2503414218783377
1780626034805919200,1.548919189453125,1.9389047007977962,3.456223573181033,1.9839362671792506
1780626034815915300,1.558915283203125,2.069165988436341,3.5348978814452883,2.311111873537302
1780626034825910300,1.56891015625,1.7667139044463633,3.640288931721449,2.164680956864357
1780626034835906300,1.57890625,1.2578051818877458,3.6358652700603007,1.6973685655415056
1780626034845901300,1.5889013671875,0.8551467567831277,3.1426872005969284,0.6811708305805921
1780626034855896300,1.598896240234375,0.011684884835779666,2.5138053601801396,-0.30320027200877664
1780626034865892000,1.60889208984375,-0.8517956927895546,2.414937866453826,-0.8736971434742212
1780626034875887000,1.61888720703125,-1.5154922414779661,2.7429458319827913,-1.3394687350958585
1780626034885882000,1.628882080078125,-1.8979744322553276,2.809151996079087,-1.5272446385920047
1780626034895878400,1.63887841796875,-2.387467237334698,2.835753002756834,-2.33664729681015
1780626034905873400,1.648873291015625,-3.3218881679713723,3.084609690159559,-3.559061431843042
1780626034915869200,1.658869140625,-4.087359914526343,2.976981966872513,-4.086642706167698
1780626034925864200,1.6688642578125,-4.394004189509153,2.529634797474742,-4.577848598775267
1780626034935859200,1.678859130859375,-4.117874295255541,2.150743909187615,-5.244316365742683
1780626034945855200,1.688855224609375,-3.715322837656736,1.417948982092738,-6.71092504158616
1780626034955850200,1.698850341796875,-3.4663825636237857,0.1489306245341897,-8.354694703409075
1780626034965845200,1.70884521484375,-3.6839620692312716,-0.7580921576976776,-9.82466496464014
1780626034975841300,1.71884130859375,-4.334360744929313,-1.036312886750698,-10.767614508038758
1780626034985836300,1.728836181640625,-3.9475481237322088,-0.6179793381303549,-10.667224042528867
1780626034995832300,1.738832275390625,-2.508193950039148,0.25394436593055725,-9.302643662530183
1780626035005827000,1.7488271484375,-1.153776652136445,0.41374563630819317,-8.179995723628997
1780626035015822000,1.758822021484375,-0.9598685294955969,0.17272504935860633,-7.1329200353235
1780626035025818400,1.768818359375,-1.7576725198566912,-0.4643441891670227,-7.51630911181271
1780626035035813400,1.7788134765625,-2.292627537819743,-1.5727590200543402,-8.74441707457304
1780626035045809200,1.78880908203125,-1.6260107177704572,-2.2423475493907925,-8.836143756633996
1780626035055804200,1.79880419921875,0.06636361968033015,-2.4116695123076437,-8.1450208563596
1780626035065799200,1.808799072265625,1.3362227389119565,-2.842498969885707,-6.811855605322122
1780626035075795200,1.818795166015625,1.0853618720799685,-2.7316566684663295,-5.525376117613911
1780626035085790200,1.828790283203125,0.7636644048720598,-2.0350135434657335,-4.634426226043701
1780626035095785200,1.83878515625,0.6697592097282409,-1.4725409885019063,-3.441685344740748
1780626035105781200,1.84878125,0.5982214753456413,-1.2690110510349273,-2.4655039783477783
1780626035115776300,1.8587763671875,0.36434710688889027,-1.185800852906704,-2.003863202920556
1780626035125772300,1.868772216796875,0.36901056865528226,-1.107982869210839,-1.6666589545011519
1780626035135767300,1.878767333984375,0.46909167595505713,-1.0393693517118692,-1.4419400985330342
1780626035145762300,1.88876220703125,0.6491916379958391,-1.06726799698472,-1.5664549514740704
1780626035155758000,1.898758056640625,1.4219611403435468,-1.2744979580134153,-1.7900369123667477
1780626035165753300,1.90875341796875,2.403028232951462,-1.2566402297616004,-1.2792495364546774
1780626035175749400,1.918749267578125,1.777413869898021,-1.0776479367017746,-0.9880015680462121
1780626035185744400,1.928744384765625,-0.4347729345068335,-1.1708201413959265,-1.5229437265276908
1780626035195739400,1.938739501953125,-2.2389336492940783,-0.4852104515850544,-1.8891554582446812
1780626035205735200,1.948735107421875,-1.7343065495774148,0.9207380038514733,-1.0626397526621818
1780626035215730200,1.958730224609375,0.4486161664202809,2.0652488149926067,0.7964040604352951
1780626035225725200,1.96872509765625,1.9039146359592676,1.7502099288910626,1.4907231264024972
1780626035235721500,1.978721435546875,2.19237092782259,0.4650497070878744,0.9614607671231031
1780626035245716200,1.98871630859375,1.4892302574962377,-0.5597960292309522,0.3584229775369167
1780626035255712300,1.998712158203125,0.401580566740036,-0.7189470190063119,-0.011589900028705595
1780626035265707300,2.008707275390625,-0.368409534022212,-0.30356004523187874,0.383171049824357
1780626035275702300,2.018702392578125,-0.7195823943004012,0.7113435582652687,0.7081161206513643
1780626035285698000,2.028697998046875,-0.5755506477236747,1.9980717600375413,0.8798200102686882
1780626035295693000,2.038693115234375,-0.025348376268148422,1.6020552571654318,0.8124345732599496
1780626035305689300,2.048689453125,-0.9547650688767433,0.3086553225442767,-0.03131809832751751
1780626035315684400,2.058684326171875,-1.2004600773781537,-1.052324110352993,-0.6012491526037455
1780626035325679400,2.068679443359375,-0.3032236528843641,-1.6911708799451588,-0.26480127550959587
1780626035335675100,2.078675048828125,2.6632050635308024,-0.5328428481146693,1.5826286721616982
1780626035345670100,2.088670166015625,9.274988178363442,0.7779062807142734,5.358482843148708
1780626035355666200,2.098666259765625,12.884302710628509,0.8604974701613187,6.857455326980352
1780626035365661200,2.1086611328125,7.411759188535809,0.36027766549289225,4.526446912840009
1780626035375656400,2.118656494140625,0.4385246882557869,0.10565729999691248,1.7376584903538226
1780626035385652200,2.12865234375,-0.16248364132940768,-0.370793944940716,1.00975162756145
1780626035395647200,2.138647216796875,1.5539669335618613,-1.2036664722040296,1.270658233720064
1780626035405642200,2.148642333984375,2.6753128499537704,-1.1561071409106254,1.5186527513355015
1780626035415638300,2.15863818359375,2.1929010891765355,-1.1629553993701933,0.9825064777612685
1780626035425633300,2.16863330078125,0.6581149491637944,-1.6083610793113707,0.2516103700250387
1780626035435629300,2.17862939453125,-1.146018293094635,-1.8233591901235282,-0.3910106574088335
1780626035445623800,2.188623779296875,-2.106675634880364,-1.3589455889821052,-0.42249943612813945
1780626035455618800,2.198618896484375,-1.6130916149646042,-0.41374812052622434,0.11198679527938366
1780626035465614800,2.20861474609375,-1.069075338667631,-0.031037235559523105,0.8442489306718111
1780626035475609900,2.21860986328125,-0.2164975555896759,-0.7782965952061116,0.8343640809953212
1780626035485605600,2.228605712890625,0.02966097877025604,-1.351026048029214,1.2058248192816972
1780626035495600600,2.2386005859375,0.39538434244841336,-0.9660206223845481,1.5793740542799233
1780626035505595600,2.248595703125,0.8781549996659159,-0.43053354337140914,1.8733073162496088
1780626035515592000,2.258592041015625,0.9777589909732342,-0.12553703559562562,2.063097482177615
1780626035525587000,2.2685869140625,0.9281833514213561,-0.0026698037311434744,1.857909840631485
1780626035535582000,2.27858203125,0.5081409530565142,-0.31788886870518324,1.5000433279335499
1780626035545577700,2.28857763671875,0.7547989613711833,-0.6781530901946127,0.89617259465456
1780626035555572700,2.29857275390625,1.067962116728723,-3.416198144523799,-0.5996183365315199
1780626035565568800,2.30856884765625,-2.594943720470369,-1.943946202096343,-1.4296628007620573
1780626035575563800,2.318563720703125,-2.396213292239606,-0.5366206130877137,1.0238128861397504
1780626035585558500,2.32855859375,-0.6450391944915056,-0.2234383146382868,0.9664321257948875
1780626035595554800,2.338554931640625,0.8516060154363513,-0.27386107253879305,0.6688765816748142
1780626035605549800,2.3485498046875,1.9142901917621493,0.02867006803676486,0.43691433044970035
1780626035615545900,2.3585458984375,2.0128426281899214,0.3955922861106694,0.4269681059747934
1780626035625540600,2.36854052734375,2.2097712676957246,0.7743183392249048,0.6833440829664469
1780626035635535600,2.37853564453125,2.1421581594109536,0.5750703168608248,1.1638158155918121
1780626035645531600,2.38853173828125,1.9936253020226955,0.22150091683492062,1.1941747134983538
1780626035655527000,2.39852685546875,1.816290128520131,0.1564816244356334,0.8713637320905924
1780626035665522000,2.40852197265625,1.2066621468886731,0.19134893967732786,0.48618309600949283
1780626035675517700,2.418517578125,0.2961737343728542,-0.5197422512620687,0.9595908815979957
1780626035685512700,2.4285126953125,-1.003294998767972,-1.1575550016313791,0.3049894935131073
1780626035695508700,2.4385087890625,-1.9662009962633251,-0.3760506964251399,-0.24383622889220713
1780626035705503700,2.448503662109375,-2.051116829265654,0.9497647763714194,0.7188339140206575
1780626035715498800,2.458498779296875,-2.2278566672235725,1.2698876877389846,1.4596528653562069
1780626035725494800,2.468494873046875,-2.418726152820885,1.085164157550782,1.4187246426403521
1780626035735489800,2.47848974609375,-2.3797248065143823,1.3271578273162246,1.2145622524887323
1780626035745485800,2.48848583984375,-1.3460633110553026,1.4879130374178289,1.5724503924965858
1780626035755480800,2.498480712890625,0.3817432089783251,1.248742754510045,1.4634306303292512
1780626035765475800,2.508475830078125,0.8471044662334024,0.5832853336289525,0.5384358458161354
1780626035775471600,2.5184716796875,1.0450120337739586,0.3625716216489672,-0.6736515409916639
1780626035785466600,2.528466552734375,1.4488622990116475,0.545435787706077,-1.4735446125864982
1780626035795463000,2.538462890625,0.9570242459803819,0.7285542207852006,-2.826761887049675
1780626035805458000,2.5484580078125,-0.5484662414431571,0.9012310470879077,-5.529720868819951
1780626035815453000,2.558452880859375,-1.3367612297028302,0.5453364189848303,-4.925590023300051
1780626035825448700,2.56844873046875,-1.0126339049994946,1.037206328459084,-3.4892537361234424
1780626035835443700,2.578443603515625,-0.8450639003165066,1.781015401521325,-2.6299732405364513
1780626035845438700,2.588438720703125,-0.6006656536273658,1.6414964561939238,-2.2458044118463993
1780626035855434800,2.598434814453125,-0.02436564884111285,1.517432561890781,-1.2637427552431821
1780626035865429800,2.6084296875,0.3455350005216896,1.5548273497834801,-0.7181254734903574
1780626035875425800,2.61842578125,-0.013799392771720886,1.224203064276278,-1.2616209407836199
1780626035885420800,2.6284208984375,-0.677694678902626,0.5280599977523088,-1.9116952068328856
1780626035895415800,2.638415771484375,-0.807741447007656,0.11783318322002886,-1.834554099485278
1780626035905411800,2.648411865234375,0.6223195592917502,-0.31229455582946536,-0.7970622320830821
1780626035915406600,2.658406494140625,0.6389436540953815,-0.8206576272040605,0.9374106139719486
1780626035925402600,2.668402587890625,0.9966519805569201,-1.1458452746152876,1.0653764841496944
1780626035935398000,2.67839794921875,1.0933067666698246,-0.8323761220484972,1.3656032933056355
1780626035945393000,2.688392822265625,-0.10740765079557894,-1.1855322650983928,0.8930909952521323
1780626035955388700,2.698388671875,-0.9847726691275834,-1.3751388911530376,0.372801631501317
1780626035965383700,2.7083837890625,-0.3841454112818464,-1.4857316017255187,0.3291752557426691
1780626035975379700,2.718379638671875,0.5463251377612353,-1.5068831108257175,0.8833294796943664
1780626035985374700,2.728374755859375,0.5001058228999375,-1.5368185226231812,1.471271406957507
1780626035995369700,2.73836962890625,1.315755851075053,-1.201144260250032,1.1228887619197367
1780626036005365800,2.74836572265625,0.9348188439130782,-1.0694959021672605,0.4298936380326748
1780626036015360800,2.75836083984375,0.35796821950674057,-1.7645429901480674,-0.325240254381299
1780626036025355800,2.768355712890625,0.5209434437453746,-1.3457798179388045,-0.41144145101904867
1780626036035351800,2.778351806640625,1.1484978349506854,-1.3503171691074967,-0.3254237942546606
1780626036045346800,2.788346923828125,0.7456839270234108,-1.9410168706461786,-0.2655588158786297
1780626036055342600,2.798342529296875,0.5344739199152216,-1.0616352517947554,0.45027124015092845
1780626036065337600,2.808337646484375,0.9036182344853877,-0.9244505946338176,1.1423019029200077
1780626036075332600,2.81833251953125,0.3687409214010462,-0.50194765137434,1.1113555605143308
1780626036085329000,2.828328857421875,-0.5894564600119367,-0.6841954390987753,0.7636749262660741
1780626036095324000,2.838323974609375,-0.848542243951559,-0.3687269294083118,1.14684831417799
1780626036105319700,2.848319580078125,-1.4511621003866195,0.3654711424827575,1.5312889455467462
1780626036115314700,2.858314697265625,-1.5361293713152409,0.5576631088554859,1.4549088856995105
1780626036125309700,2.868309814453125,-1.4951169774472712,0.13381634977161883,1.4686632702857254
1780626036135305700,2.8783056640625,-1.6962743405640124,-0.30140520528554915,1.6066045910328626
1780626036145301000,2.888301025390625,-0.9938976403474807,-0.48041035782694813,1.7147399715811014
1780626036155296800,2.898296875,-0.6753191088777035,-0.6269505800932645,1.843308483827114
1780626036165291800,2.908291748046875,-0.790620800858736,-0.6674158614724874,2.0147557683348656
1780626036175286800,2.918286865234375,-0.9985165323197841,-0.599476297712326,2.134848128658533
1780626036185282800,2.92828271484375,-0.9655506667852402,-0.7108031677782535,2.063207956814766
1780626036195277600,2.938277587890625,-0.11151393533693627,-0.5798480526566505,1.6865940735489129
1780626036205272600,2.9482724609375,1.592328812921047,-0.29789222872853277,1.096243331578374
1780626036215268900,2.958268798828125,2.806605818727612,-0.6402537137806416,0.23962533319890497
1780626036225263900,2.968263916015625,3.810421626499295,-0.5708341405957937,-0.5111988793224096
1780626036235259600,2.978259765625,3.608308570092916,1.6918243754178284,-0.2458247723609209
1780626036245254700,2.988254638671875,1.1243956593513489,3.4922990951687094,-0.0014174655824899672
1780626036255249700,2.998249755859375,0.9049147040367126,3.8531180279314516,-0.5281552748203278
1780626036265245700,3.00824560546875,0.22982699276208876,2.503382750365138,-1.4501058693319557
1780626036275240700,3.01824072265625,-1.6206161652505398,1.3109224395692347,-1.8841566270440815
1780626036285236700,3.02823681640625,-1.7257026796221733,0.47264498452246184,-1.6747352934509514
1780626036295231700,3.038231689453125,-1.1213538074374199,0.6752613142758608,-0.5896604216188192
1780626036305226800,3.048226806640625,-0.6138625504612922,1.4473165308743714,0.28966800574064255
1780626036315222800,3.058222900390625,0.11392682343125343,1.0434954917311667,0.385772756755352
1780626036325217800,3.0682177734375,0.5839186630964279,0.4260743720054626,0.26233225504755975
1780626036335213600,3.078213623046875,1.1701228067815304,-0.4206383184313774,-0.07358253808319568
1780626036345208600,3.08820849609375,2.1411060200095173,-1.0181985533893108,0.03129121032059193
1780626036355203800,3.098203857421875,3.119163117146492,-1.7592828776627778,0.44441608438193797
1780626036365200000,3.108199951171875,1.9367688578128814,-2.447442251956463,0.1907815150529146
1780626036375195000,3.11819482421875,0.7952526253778487,-1.5463310318559407,0.7793944734454155
1780626036385190000,3.12818994140625,-0.5864391214847564,-0.3335100700765848,0.8367688040494918
1780626036395185700,3.138185546875,-4.422394417691231,0.20979133594930172,0.2586953598499298
1780626036405180700,3.1481806640625,-3.162369806188345,1.0479846198439597,0.18019640815258026
1780626036415177000,3.158177001953125,-0.3147405607420951,1.0032710333704948,-0.4967003983706236
1780626036425172000,3.168171875,-1.4064695567011833,-0.034924013864994045,-1.838778439182043
1780626036435166700,3.178166748046875,-2.2680758648872374,-0.044268180793523786,-2.454305123463273
1780626036445162800,3.188162841796875,-2.1105589060544965,0.5900754321604966,-2.0060756182730195
1780626036455158800,3.19815869140625,-1.274144322270155,0.7100754380255937,-1.1400886107847095
1780626036465154600,3.208154541015625,0.42432193884756414,0.13094693181514738,-0.3978182915970683
1780626036475149600,3.218149658203125,1.4358335983514785,-1.3762410071760416,-0.40655367897748945
1780626036485144600,3.22814453125,3.578393908822536,-3.2529081552475687,-1.1166554204881192
1780626036495140900,3.238140869140625,3.7718577948272225,-3.430260864406824,-0.943003027151525
1780626036505135900,3.248135986328125,1.2182242821276188,-2.6952847938805817,-0.039030280140042305
1780626036515131600,3.258131591796875,-0.6031669689238071,-2.3588696500122546,0.4685124147623777
1780626036525126700,3.268126708984375,-1.2549088759243487,-2.5801357351779934,0.4068558767944574
1780626036535121700,3.27812158203125,-0.7062381248850375,-2.8830706342488526,0.1659239910416305
1780626036545117700,3.28811767578125,0.054703102100826795,-2.9628029271334406,-0.191112281377241
1780626036555112700,3.29811279296875,0.2956698399713263,-2.9431156453669067,-0.37600846471861005
1780626036565108700,3.308108642578125,0.044728784042596816,-2.802982952055335,-0.5033703776538372
1780626036575103700,3.318103759765625,-0.22500121657345443,-2.702391995537281,-0.7880283001475036
1780626036585098800,3.3280986328125,-0.28560093896482136,-2.765227514156699,-0.962786389703676
1780626036595094800,3.3380947265625,0.05013798614237457,-3.0421593724429608,-0.9459320663407444
1780626036605089800,3.34808984375,0.11852001470671966,-3.696475513845682,-0.9664838559821247
1780626036615084500,3.35808447265625,-0.17788287051320076,-4.653609649941325,-1.1457602266803384
1780626036625080600,3.36808056640625,-1.123655070117116,-5.2645718027859925,-0.8739135627038777
1780626036635075600,3.37807568359375,-1.3295464760184288,-5.539558372223377,-1.2391294152513146
1780626036645072000,3.38807177734375,-2.3923393734157083,-5.760234090280533,-1.7569293002739548
1780626036655066600,3.398066650390625,-2.9312773235350846,-6.057879066249728,-2.168580594651401
1780626036665061600,3.4080615234375,-2.1778052268534895,-5.404210575100779,-2.1349819841712714
1780626036675057700,3.4180576171875,-0.11194463663809001,-1.6006296082764864,-1.1912430439606307
1780626036685052700,3.428052734375,1.4434027184315026,5.647583278134465,1.8418465945810079
1780626036695048400,3.43804833984375,1.3719186139322816,15.50441155975461,6.731523008456826
1780626036705043700,3.448043701171875,0.33708982825949785,23.298951337492465,11.182118853759764
1780626036715038700,3.458038818359375,-0.23670739992558953,24.84427056195736,11.949698970770836
1780626036725034800,3.46803466796875,0.3916705095570534,16.923856333363055,6.455711094111204
1780626036735029800,3.47802978515625,2.698499079751968,5.008873286664485,-1.9323221075370907
1780626036745025500,3.488025634765625,3.376156933775544,-0.38408348849415774,-7.034644370010494
1780626036755020500,3.4980205078125,2.4828309607237578,-2.644060218077898,-7.522484585577249
1780626036765015600,3.508015625,1.387413558575511,-4.2031273973882195,-5.848298742702603
1780626036775011800,3.51801171875,-0.12902385479807854,-3.5868332358658312,-3.025103023701906
1780626036785006800,3.5280068359375,-1.7382020957112312,-1.7264315784186124,0.26842487283423544
1780626036795002600,3.538002685546875,-2.245442446666211,-0.28528993678689,2.9444255589216946
1780626036804997600,3.54799755859375,-1.325305185186863,0.012875263664126396,4.307276338648796
1780626036814992600,3.55799267578125,0.373437591317296,-0.4029389956116676,4.182477992591261
1780626036824988700,3.56798876953125,1.4142366835713385,-0.7904863608241081,3.0780706437796352
1780626036834983700,3.577983642578125,1.2844932823270558,-0.818265763631463,1.84776400193125
1780626036844979700,3.587979736328125,0.7454097862571477,-0.7325228321552276,0.9084199356786906
1780626036854974700,3.597974609375,0.23018479322381316,-0.6474345651954412,0.29038974414393304
1780626036864969700,3.6079697265625,-0.10883490711972117,-0.4770084404289722,-0.0018450433447957037
1780626036874965800,3.6179658203125,-0.2112906345963478,-0.23161913687586783,-0.08095131328552961
1780626036884960800,3.627960693359375,-0.2289402730554342,-0.05244096585512161,-0.12529884292557836
1780626036894955500,3.63795556640625,-0.07640811689794064,0.059982467275857924,-0.17788944638445972
1780626036904951600,3.64795166015625,0.23534765587970613,0.025296353819966314,-0.28749285365864635
1780626036914946600,3.657946533203125,0.5558721337854862,-0.17808745317459104,-0.39211671895459294
1780626036924942800,3.66794287109375,0.6080630704022943,-0.39371874732375145,-0.35678690076768393
1780626036934937600,3.6779375,0.3241613000381738,-0.4395318194717169,-0.25983663883954283
1780626036944932600,3.6879326171875,-0.06146349961385131,-0.24593057082295416,-0.15011238166466354
1780626036954928600,3.6979287109375,-0.399948581624031,0.18643033410608767,-0.0125755500651896
1780626036964923600,3.707923583984375,-0.6940421487219631,0.6286807648867369,0.11157353830337524
1780626036974919700,3.717919677734375,-0.898605520889908,0.7243570613563061,0.14794541288912297
1780626036984914700,3.727914794921875,-0.7889997755281627,0.3671586571782827,-0.006294277838617563
1780626036994909700,3.73790966796875,-0.2504499479435384,0.11753741514384745,0.18206103298068047
1780626037004905700,3.74790576171875,0.38064766882658,0.009305588483810424,0.4313922060273587
1780626037014900700,3.757900634765625,0.7096576510049403,0.23250234945118425,0.669655603223294
1780626037024896500,3.767896484375,0.9218857125818729,0.43903497586548323,0.7378639009222387
1780626037034891500,3.7778916015625,1.1529371325723827,0.5372510199457406,0.547087500435859
1780626037044886500,3.787886474609375,1.630660589402914,0.797616358834505,0.2890701859779656
1780626037054882800,3.7978828125,2.0439473760277034,1.0740613103866576,-0.01628098045438528
1780626037064877800,3.8078779296875,1.6926783618986605,1.037282608565688,-0.5210346291601657
1780626037074873600,3.81787353515625,0.9943079747140406,0.8526829970180988,-0.9587757658228278
1780626037084868600,3.82786865234375,-0.042031800043582916,1.1326344953864813,-0.7910670833215117
1780626037094863600,3.837863525390625,-0.2806464948952198,0.7367167767137288,-1.196558101503551
1780626037104859600,3.847859619140625,-0.10710589137002825,0.24218787716329096,-2.16260473511219
1780626037114854700,3.857854736328125,0.12858122559711335,-0.2957178072988987,-2.390032850039005
1780626037124850700,3.8678505859375,0.1314322311140597,-0.49217853703200815,-2.180639865757525
1780626037134845700,3.877845703125,0.037422991073876616,-0.4984983877032995,-2.003652190518379
1780626037144840700,3.8878408203125,-0.16039149135574698,-0.4063596177101135,-1.8904796925857663
1780626037154836700,3.897836669921875,-0.3681383158653974,-0.2013859111756086,-1.9487907195180654
1780626037164831700,3.907831787109375,-0.2503035252101719,0.1495639540016651,-2.1639716395512223
1780626037174826500,3.917826416015625,-0.03324102921411395,0.771927790826559,-2.341658110709488
1780626037184822500,3.927822509765625,0.12140972653254865,1.560355465555191,-2.468441493104398
1780626037194817800,3.93781787109375,0.09772563021481037,2.1376766300827263,-2.5678306726172564
1780626037204813800,3.947813720703125,-0.017704583516716957,2.2146225071191785,-2.4407953612878917
1780626037214808600,3.95780859375,-0.016028320867568252,1.9686855065554378,-1.8590952510237693
1780626037224804600,3.9678046875,0.35281726648434997,1.6315204211026428,-0.8786988972842693
1780626037234799600,3.977799560546875,1.097871225041151,1.3454144917577504,0.1669900128379464
1780626037244794600,3.987794677734375,1.6909136903136968,1.2638479691833258,1.2246616216987372
1780626037254790700,3.997790771484375,1.8442343665003775,1.2803864315301179,2.1970304440662263
1780626037264785700,4.00778564453125,0.9450819523174315,1.1600514946222305,2.4365192914038896
1780626037274780700,4.01778076171875,-0.5653051480412483,0.8163871102780104,1.792356587485969
1780626037284776700,4.027776611328125,-1.9297563487023115,0.41875323533713815,0.6508841211274266
1780626037294771700,4.037771728515625,-2.9139637851625677,0.1602700569331646,-0.12201719090640545
1780626037304767500,4.047767578125,-3.4501036289960143,-0.07868716774582862,-0.32444822722077366
1780626037314762500,4.057762451171875,-3.5217426317960023,-0.4679565344452858,-0.44159021330624815
1780626037324757500,4.067757568359375,-3.0806255889594554,-0.9708359137117862,-0.6065361530959605
1780626037334753800,4.07775390625,-2.2041379379838704,-1.5563678572237492,-0.7086465742662549
1780626037344748800,4.087748779296875,-1.0185638795703649,-2.021136993804574,-0.6863572933077812
1780626037354744600,4.09774462890625,0.24379355879426,-2.098596081060171,-0.5077665667861699
1780626037364739600,4.107739501953125,1.2262427534103393,-1.8673896166384218,-0.2452943187460303
1780626037374734600,4.117734619140625,1.563119085049629,-1.5262503668576477,0.10392302355021238
1780626037384730600,4.127730712890625,1.256924307399988,-1.2114905899584292,0.49801118870824573
1780626037394725600,4.1377255859375,0.6289712722659111,-0.9855161809712648,0.875049727126956
1780626037404721700,4.1477216796875,-0.10294478963520377,-0.8556734110057354,1.2422481317937373
1780626037414716700,4.157716552734375,-0.6799111859083176,-0.7030436396926641,1.514089973464608
1780626037424711700,4.167711669921875,-0.9536708438992499,-0.6292378142476082,1.6474533187717197
1780626037434707700,4.177707763671875,-0.9802151519536971,-0.6689747813522815,1.751149255567789
1780626037444702700,4.18770263671875,-0.697393066585064,-0.6599895108640194,1.7661188611626624
1780626037454698000,4.197697998046875,-0.17361702976226806,-0.6003484043717384,1.623456357112527
1780626037464693000,4.20769287109375,0.38997192547824233,-0.44004912134408947,1.2882912133052944
1780626037474688000,4.21768798828125,0.9660638770043849,-0.15197686036229133,0.7859878803610801
1780626037484684000,4.22768408203125,1.4075789792478084,0.17564473619759083,0.2888900071054697
1780626037494679000,4.237678955078125,1.6110264991283416,0.41905426411032676,-0.0788558023110032
1780626037504675000,4.247675048828125,1.6615514022290705,0.45477439678907394,-0.4168590921536088
1780626037514670000,4.257670166015625,1.6805378422498702,0.20412848788201807,-0.6506731087252497
1780626037524665000,4.2676650390625,1.5665163262724875,-0.1507715762257576,-0.8151125602975487
1780626037534661000,4.2776611328125,1.3034241927683352,-0.40051498333513735,-0.9328358534023166
1780626037544656100,4.28765625,0.8167324896495789,-0.5088379954099654,-0.9733139942631125
1780626037554652000,4.29765185546875,0.5177507851839065,-0.3603618366450071,-0.8198416346460581
1780626037564647000,4.30764697265625,0.016450784063339233,-0.10750818856060504,-0.6032227907642722
1780626037574642000,4.317641845703125,-1.2611806496702134,-0.13805530251562595,-0.5107525968596339
1780626037584638200,4.32763818359375,-2.0491221483170987,-0.19353578219711778,-0.2648226105585694
1780626037594633200,4.33763330078125,-2.048576497133076,-0.07833236295878887,0.09447335042059421
1780626037604629000,4.34762890625,-0.9892764833528548,0.15608078854978083,0.33585224928855895
1780626037614624000,4.3576240234375,0.7880138332307338,0.26967326546013354,0.40089433804154395
1780626037624619000,4.367618896484375,2.1421391624495385,0.14635200621783734,0.30509383067041634
1780626037634615000,4.377614990234375,2.318214837410301,-0.01107610528767109,0.18698650668412445
1780626037644610000,4.387610107421875,1.5834182151041925,-0.21888825011849403,0.03634761692732572
1780626037654605000,4.39760498046875,0.6801037858709692,-0.4268997169137001,0.045047640733420845
1780626037664601000,4.40760107421875,0.026723317883163688,-0.5491992318928242,0.20221300964951514
1780626037674596000,4.41759619140625,-0.18101356975436209,-0.5098831205487251,0.4913505617752671
1780626037684592000,4.427592041015625,0.1609763055063784,-0.3673503803580999,0.7917372376680374
1780626037694587000,4.4375869140625,0.45906566424220796,-0.1949205145537853,0.8600535257861017
1780626037704582000,4.447581787109375,0.4331248750388622,-0.12870938202142715,0.7811193975418805
1780626037714578200,4.457578125,0.26937574381828305,-0.16053776795864105,0.6676674981459975
1780626037724573200,4.4675732421875,0.23133739732503888,-0.2831412343204021,0.6033505087971687
1780626037734569000,4.47756884765625,0.3007832739949226,-0.44978842507004735,0.5487880207434296
1780626037744564000,4.48756396484375,0.520083027523756,-0.6160743812918663,0.48246407548636194
1780626037754559000,4.49755908203125,0.8445042206071317,-0.5958569381713866,0.4269420947507024
1780626037764555000,4.507554931640625,1.0133927605427802,-0.5019488204181194,0.3450561309635639
1780626037774550000,4.517550048828125,0.9219476719021796,-0.40512919913232326,0.15436960071772335
1780626037784546000,4.527546142578125,0.7062054647244512,-0.36784956205189223,-0.062090837731957435
1780626037794541000,4.537541015625,0.5928687161408365,-0.3776695297986269,-0.20833178479075432
1780626037804536000,4.5475361328125,0.5746900853715836,-0.3521715159267187,-0.3245326906338334
1780626037814532000,4.557531982421875,0.5731482627570629,-0.35126316891014575,-0.43289369663149113
1780626037824527000,4.567527099609375,0.7120356321826576,-0.34736616147160526,-0.36238808177560566
1780626037834523000,4.57752294921875,0.813812291353941,-0.29601532894074917,-0.3326744960352778
1780626037844518000,4.587517822265625,0.7914148738458752,-0.34975860956609245,-0.3040925446733832
1780626037854513200,4.59751318359375,0.8132496890351176,-0.35349428896307944,-0.19625322446227073
1780626037864509200,4.60750927734375,0.8568376324795186,-0.24207506443858146,0.12420593312233685
1780626037874504200,4.617504150390625,0.7010264546513557,-0.2446621583223343,0.3305877528890967
1780626037884500000,4.6275,0.5082651639580726,-0.5095768310785294,0.38360067341327664
1780626037894495000,4.637494873046875,0.32825551054924723,-0.9424041844755411,0.18133330322802066
1780626037904490000,4.647489990234375,0.06821005126461387,-1.2839181127876043,-0.13062749060243367
1780626037914486000,4.657486083984375,-0.04396218358427286,-1.4822095650792122,-0.2925201803013682
1780626037924481300,4.667481201171875,0.06551745117977262,-1.5830734933197497,-0.37313334767371414
1780626037934477000,4.67747705078125,0.32475042503774165,-1.6879302905887363,-0.5699328078418969
1780626037944472000,4.68747216796875,0.7055822182595729,-1.8837205737143754,-0.9298872327297926
1780626037954467000,4.697467041015625,0.9258674756944179,-1.9104408228576182,-1.1646630800709128
1780626037964463000,4.707463134765625,1.0577461354017257,-1.6701789453208447,-1.291531510400772
1780626037974457900,4.717457763671875,1.1424455491743981,-1.2820944044917821,-1.5517095100238918
1780626037984454100,4.7274541015625,1.3751871142089367,-0.9308703985482454,-1.8141688985824584
1780626037994449200,4.73744921875,1.8652140261650085,-0.6412088225483894,-1.9889570179507134
1780626038004444200,4.747444091796875,2.4509213262438774,-0.4084703262537718,-1.927093559233844
1780626038014440000,4.75743994140625,2.843147496922314,-0.05645546219348907,-1.6356968300044537
1780626038024435000,4.76743505859375,2.988711567632854,0.31847616707384585,-1.2761335963912308
1780626038034431000,4.777430908203125,3.1831095196172594,0.5256640425264835,-0.7938771723061799
1780626038044426000,4.787426025390625,3.4604335920915004,0.5328063154965639,-0.06468582266122103
1780626038054421000,4.7974208984375,3.3707775788247583,0.41353637747168537,0.6220064016893506
1780626038064417000,4.8074169921875,2.447191199804842,0.26463117963969707,1.0151382890358567
1780626038074412000,4.817412109375,0.7958638160787522,0.30729543236792084,1.1054835997410117
1780626038084408000,4.827407958984375,-0.8702724297225475,0.7955746238738298,1.3842482264123857
1780626038094403000,4.837403076171875,-2.1446105209991333,1.9436025032252071,2.3760537167862057
1780626038104398000,4.847398193359375,-2.7143679722741245,3.3564228902578352,3.7566514578670263
1780626038114393900,4.857393798828125,-2.5468378612101077,4.218464082729816,4.802777005840838
1780626038124388900,4.867388916015625,-3.174568778026104,3.7242742058753966,4.790350947248935
1780626038134385200,4.87738525390625,-4.567751275391877,1.825786855661869,3.8076197208210822
1780626038144380200,4.887380126953125,-4.839351125000417,-0.09630115036964416,2.93561272239089
1780626038154375200,4.897375244140625,-3.467404015626013,-1.3313316058695315,2.3223636276528237
1780626038164371000,4.907370849609375,-2.6338018589138983,-1.856415802681446,1.77847886878103
1780626038174366000,4.917365966796875,-4.023709572392701,-1.5335931308358908,1.5108846015520392
1780626038184362000,4.927362060546875,-5.277849217510223,-0.9336866250127553,1.1309266685552894
1780626038194357200,4.937357177734375,-5.19092730538249,-0.28751404257714747,0.5832651676237582
1780626038204352300,4.947352294921875,-4.31916785197258,0.4753197566896677,0.3177110279202461
1780626038214348000,4.95734814453125,-3.4019138908445834,0.9827356103420257,0.17036796483844519
1780626038224343000,4.967343017578125,-2.6805603952184316,0.87862290943861,-0.1913107996240258
1780626038234339000,4.977339111328125,-2.132838250140846,0.35169396154284477,-0.473974479560554
1780626038244334000,4.987333984375,-1.382758133985102,0.018618191230297086,-0.2694369724862277
1780626038254329000,4.9973291015625,-0.4149617340996861,0.025832360392808913,0.3556001752011478
1780626038264325000,5.0073251953125,0.4801413316272199,0.0013631050467491149,0.8902683390468359
1780626038274320100,5.017320068359375,0.9973390129730105,-0.07233049219548701,1.1963253156609832
1780626038284315100,5.027315185546875,0.9935761533081531,-0.05884148054718971,1.3227293433494864
1780626038294311200,5.037311279296875,0.4185233721040189,-0.11544950295388698,1.1439213208153842
1780626038304306000,5.047305908203125,-0.6167838447354733,-0.29530513484477994,0.7739286092549562
1780626038314302000,5.057302001953125,-1.584683412734419,-0.403850265237689,0.49534752245694397
1780626038324297000,5.067296875,-2.100445654449612,-0.3989455420613289,0.25988515415638686
1780626038334292000,5.0772919921875,-2.062570681824535,-0.26916239332854747,0.13661723253652452
1780626038344288000,5.0872880859375,-1.6647672955356538,-0.07286825233399867,-0.03732625270113349
1780626038354283000,5.097282958984375,-1.3852457130171358,0.15305062707364558,-0.374454074883461
1780626038364279000,5.107279052734375,-1.0589677861511706,0.4126987576037645,-0.7654857750803232
1780626038374274000,5.117274169921875,-0.577141862437874,0.563280364215374,-1.1590398333616554
1780626038384269000,5.12726904296875,-0.3828010474681854,0.6202770936787128,-1.3199137014068663
1780626038394264800,5.137264892578125,-0.7607096467196941,0.6339911462545395,-1.1441004767745733
1780626038404260000,5.147260009765625,-1.229928748446703,0.4366922121316194,-0.6447245755843818
1780626038414256000,5.157256103515625,-1.4499100544989107,0.07379705761671065,-0.13220891457498074
1780626038424251100,5.167251220703125,-1.5496611991919576,-0.24332652580440042,0.28340777630209923
1780626038434246100,5.17724609375,-1.6388921189144252,-0.32623920229077336,0.7138957269661128
1780626038444242000,5.187241943359375,-1.598150797072798,-0.2606125916481018,1.0422772019825874
1780626038454237400,5.197237548828125,-1.318184539526701,-0.24006255557239053,1.1212046082250773
1780626038464233500,5.2072333984375,-0.8143991513311862,-0.2686415843248367,0.9172862559624015
1780626038474228500,5.217228515625,-0.3540240119256079,-0.24093758484125136,0.5729759749300778
1780626038484223500,5.227223388671875,-0.2920272091526538,-0.0962690016657114,0.2355148291401565
1780626038494219300,5.23721923828125,-0.5503368576206267,0.14434125091731548,0.058444882445037365
1780626038504214300,5.24721435546875,-0.7233645431876182,0.2885837176352739,-0.07241130234673619
1780626038514210600,5.25721044921875,-0.7251920508757234,0.35489188080132006,-0.1732474657975137
1780626038524205600,5.26720556640625,-0.5433821431118995,0.4164981498867273,-0.15643179394453763
1780626038534200300,5.277200439453125,-0.36620303695388134,0.40738545362651346,-0.09889584303796291
1780626038544196400,5.2871962890625,-0.3459444581054151,0.3393114498317241,0.0277292800553143
1780626038554191400,5.29719140625,-0.44532618496417997,0.23604922827780245,0.11529665047973393
1780626038564187400,5.3071875,-0.6506980239707976,0.016947043147683142,0.2454724517919123
1780626038574182100,5.31718212890625,-0.9101239631175995,-0.3206272076278925,0.6082045246995985
1780626038584177400,5.327177490234375,-1.055577413060516,-0.4863169515222311,0.8915766451664269
1780626038594173400,5.33717333984375,-1.0058126076120883,-0.5591606539368629,0.6884907982051373
1780626038604168400,5.34716845703125,-0.7527812648732215,-0.6757634185791015,0.20419044720232485
1780626038614164500,5.35716455078125,-0.5123065483033656,-0.612771832615137,-0.3760195706345141
1780626038624159200,5.3671591796875,-0.5231611197948456,-0.4467009804487228,-0.9513381631679833
1780626038634154200,5.377154296875,-0.6931072059594094,-0.12815057909488678,-1.3527813672639428
1780626038644150500,5.387150634765625,-0.972789458932355,0.34732699850499626,-1.4458853290274738
1780626038654145500,5.3971455078125,-1.1127918769277632,0.7174538578391074,-1.2985910735234618
1780626038664141300,5.407141357421875,-1.3099299214005469,0.8306465217769146,-0.888698751642555
1780626038674136300,5.41713623046875,-1.4560348209895193,0.7173118190199136,-0.33455607199817894
1780626038684131300,5.42713134765625,-1.3525181862831115,0.5008429050028324,0.15318565163016318
1780626038694127400,5.43712744140625,-1.119326393263042,0.3053600803911686,0.5943425880856812
1780626038704122400,5.447122314453125,-0.7604686775706708,0.22286182992458342,0.9979559758275747
1780626038714118400,5.457118408203125,-0.30636531191095706,0.2418804186493158,1.3020309848442673
1780626038724113400,5.467113525390625,0.05063362417221069,0.25385727216899395,1.4234863040842114
1780626038734108400,5.4771083984375,0.23642639102712273,0.17262509611546992,1.41373530992046
1780626038744104400,5.4871044921875,0.2179800492323935,-0.04663257183730602,1.1984360242046415
1780626038754099500,5.497099365234375,0.6193490190483629,-0.5789642555594444,0.8299250756345689
1780626038764095200,5.50709521484375,2.072663182902336,-1.5641086806088684,1.0670423715353012
1780626038774090200,5.51709033203125,-0.5043393688164651,-0.3119686848759651,1.5983664856500923
1780626038784085200,5.527085205078125,-3.0064018303632736,0.7045037753731012,0.9312826326109468
1780626038794081500,5.53708154296875,-2.1892156786620616,0.2755558937579393,-0.20578823778778313
1780626038804076500,5.54707666015625,-1.222584961555153,-0.04118307425975799,-1.092613742904365
1780626038814072300,5.557072265625,-0.6714483318589627,-0.05435527504384517,-1.6047234534613788
1780626038824067300,5.5670673828125,-0.3711784142136574,0.2193897698998451,-1.585783775191754
1780626038834062300,5.577062255859375,-0.23194749204739926,0.6147498546898365,-1.2983501043744385
1780626038844058400,5.587058349609375,-0.23516148565784095,0.8491068920969963,-1.0212504883058369
1780626038854053400,5.597053466796875,-0.1162874150827527,0.8799667252629995,-0.6954612217396497
1780626038864049400,5.60704931640625,0.1439396843791008,0.6143529643267392,-0.5109256153389812
1780626038874044400,5.61704443359375,0.3607774317085743,0.13530863415598868,-0.47068332906067367
1780626038884039400,5.627039306640625,0.32583471314311024,-0.22598142324984072,-0.4543078021906316
1780626038894035500,5.637035400390625,-0.08416179976463317,-0.542328761601448,-0.17804083755388855
1780626038904030200,5.6470302734375,-0.9514787406824529,-0.8698375454366206,0.025602351029217242
1780626038914026500,5.657026611328125,-2.24805043720752,-0.8030494897991418,0.22011969160959124
1780626038924021500,5.667021484375,-3.1500422395348546,-0.40037060642838473,0.9837499019511043
1780626038934016500,5.6770166015625,-3.1218378893136975,-0.339307942700386,1.9455128668911754
1780626038944012300,5.68701220703125,-2.25142663564235,-0.6822714852988719,2.5323826348781586
1780626038954007300,5.69700732421875,-1.387497145205736,-1.17620358799994,2.60824773094058
1780626038964003300,5.70700341796875,-0.6140026895843446,-1.7321791821599006,2.174507062090933
1780626038973998300,5.716998291015625,-0.11428455082774161,-1.910986181780696,1.4388488545194267
1780626038983993300,5.726993408203125,-0.33085458713173865,-1.5920406436294317,0.7991790781065821
1780626038993989400,5.7369892578125,-0.6061397011242806,-1.1311544859617948,0.30110972947031256
1780626039003984400,5.746984375,-0.34081031008735296,-0.912185571822524,0.38795638440474867
1780626039013980400,5.75698046875,-0.23175474595427512,-1.1580594440221785,1.123256864579767
1780626039023975400,5.766975341796875,-0.5958242049455642,-0.3194195854038,1.227480916903168
1780626039033970400,5.776970458984375,-1.880325086057186,2.3076012350678443,-0.03795739021152258
1780626039043966200,5.78696630859375,-2.157019043934345,4.37847344290018,-1.3914162183456122
1780626039053961200,5.796961181640625,-0.16243052290268242,3.4382553702920675,-2.125821357116103
1780626039063957500,5.80695751953125,1.8473650657415388,1.7042811214089393,-2.295656530252099
1780626039073952500,5.816952392578125,2.85472658329606,0.2687514744400978,-1.6908318572491405
1780626039083947500,5.826947509765625,3.4015830514550207,-0.7285790629655122,-1.1886848839104174
1780626039093943300,5.836943359375,3.136725661844015,-1.3694874412626028,-0.9025036973722279
1780626039103938300,5.846938232421875,2.0701298650324342,-1.4538707748234272,-0.6937002034164965
1780626039113934300,5.856934326171875,1.1309983455520123,-0.9570295066773891,-0.4750906241089105
1780626039123929600,5.8669296875,0.8829775244515389,-0.29986148297488685,-0.38349326751604673
1780626039133924600,5.876924560546875,0.8362322129547596,0.18087445354461668,-0.2047660551331937
1780626039143920400,5.88692041015625,0.6484756717462092,0.6450128910064696,0.1764750495418906
1780626039153915400,5.896915283203125,0.484679705709219,0.9625105684369802,0.5702959420658648
1780626039163911400,5.906911376953125,0.47576574689149853,0.936179026350379,0.6700486941941082
1780626039173906400,5.916906494140625,0.8306873652439564,0.5120014278769492,0.4377404060102999
1780626039183901200,5.926901123046875,1.236116497170925,-0.11949088729918002,0.09811433727145194
1780626039193897500,5.9368974609375,1.3225555942177771,-0.5753121627926826,-0.29007395619302984
1780626039203892500,5.946892578125,1.1242705716669559,-0.7526806540429591,-0.5268856932759285
1780626039213888500,5.956888427734375,0.6991292427279054,-0.6471043103277683,-0.6166754159249365
1780626039223883300,5.96688330078125,0.07831994186863303,-0.4061246399104595,-0.5464651307538151
1780626039233878300,5.976878173828125,-0.5218974565345794,-0.09259820419847965,-0.19376900643110273
1780626039243874300,5.986874267578125,-0.8625847978293896,0.19503566536605357,0.25689503242969514
1780626039253869300,5.996869384765625,-1.0456243935186416,0.09560381575524807,0.2558306180685758
1780626039263865300,6.006865234375,-0.9970562505088746,-0.08195406058728695,0.2363669159248471
1780626039273860400,6.0168603515625,-0.8834533983349799,-0.22737843056619167,0.23556334445700047
1780626039283855400,6.02685546875,-0.8383248013198376,-0.27220775237381456,0.25018428274467586
1780626039293851400,6.036851318359375,-0.8805752125501632,-0.22668518760502337,0.2811066597528756
1780626039303846400,6.046846435546875,-0.8230617657363414,-0.18367255983054637,0.29242592614665625
1780626039313842200,6.05684228515625,-0.6271265211820602,-0.18389818527996538,0.22227453155592083
1780626039323837200,6.066837158203125,-0.30561259384751316,-0.13214111003577708,0.08649418823495507
1780626039333832400,6.07683251953125,-0.017784663015604017,-0.030097616621851918,-0.005092354702949524
1780626039343828500,6.086828369140625,0.0986845383748412,0.036004210317134855,-0.07998436794951558
1780626039353823500,6.096823486328125,0.05634791016578674,0.11585399210155009,-0.1528469211950898
1780626039363818500,6.106818603515625,-0.11983414777889848,0.16116554446816445,-0.23142288365140556
1780626039373814300,6.116814208984375,-0.3631026597857475,0.21394728658497333,-0.3628516076341271
1780626039383809300,6.126809326171875,-0.5874586737908423,0.1430196469247341,-0.4991802324876189
1780626039393805300,6.136805419921875,-0.5938546584382652,0.07675649194419383,-0.4642766768887639
1780626039403800600,6.146800537109375,-0.45791912455558775,0.09309329423904418,-0.3123541770622134
1780626039413795600,6.156795654296875,-0.40864860543012616,0.153219553899765,-0.17106033101677895
1780626039423791400,6.166791259765625,-0.5015865629769861,0.20200433533489703,-0.02881999790146947
1780626039433786400,6.176786376953125,-0.5107482129454612,0.23316987344920634,0.13674378152564168
1780626039443782400,6.186782470703125,-0.3427157053172588,0.2272550964474678,0.1403079037480056
1780626039453777200,6.196777099609375,-0.0667993076838553,0.2642640998929739,-0.024601357293128966
1780626039463772200,6.206772216796875,-0.025347207224369048,0.3825473649680614,-0.2172767232686281
1780626039473768200,6.216768310546875,-0.1930057669736445,0.41633448375761506,-0.5703362740762531
1780626039483763200,6.22676318359375,-0.16677359360828994,0.372850146818161,-0.781421741489321
1780626039493759200,6.23675927734375,0.23068711672276257,0.29840719251334663,-0.9365037282600999
1780626039503754200,6.246754150390625,0.7628492890968919,0.16397943284511565,-1.1978212533071637
1780626039513749200,6.256749267578125,1.0237466890357434,0.10841010583639145,-1.5706347213767469
1780626039523745000,6.2667451171875,0.7071227256998419,0.26177286759912965,-1.7999195700861512
1780626039533740000,6.276739990234375,0.06828136293515563,0.5114776962637901,-1.7511413645222782
1780626039543736300,6.286736328125,-0.2719838804900646,0.7440998727023601,-1.5931735931821167
1780626039553731300,6.2967314453125,-0.4662202121719718,0.8999094430953264,-1.340315268922597
1780626039563726000,6.30672607421875,-0.599899783821404,0.9105699533194302,-1.126729509126395
1780626039573722000,6.31672216796875,-0.5591428260192275,0.6610434038311243,-1.0199451047956942
1780626039583717000,6.326717041015625,-0.2325309910237789,0.2165922481358051,-1.0174790069431066
1780626039593713200,6.336713134765625,0.06357245459184051,-0.1913566845923662,-0.775628837301582
1780626039603708000,6.3467080078125,0.14673603709936142,-0.4277086952090263,-0.19641732898280023
1780626039613703200,6.356703125,0.23503157566785812,-0.47286885640621185,0.37801995067149397
1780626039623699200,6.36669921875,0.295623991535604,-0.39205870515704155,0.6169517486482858
1780626039633694200,6.376694091796875,0.0724661012738943,-0.2544119834423065,0.5171544267259538
1780626039643690000,6.38668994140625,-0.22748481355011463,-0.15375322238504885,0.3125906161665916
1780626039653685000,6.39668505859375,-0.3676391341716051,0.008491349491477012,0.2199399511285126
1780626039663680000,6.406679931640625,-0.09606938744038343,0.1581605174332857,0.20442250239253043
1780626039673676300,6.41667626953125,0.35340281128734347,0.1297346334159374,0.06561345890015363
1780626039683671300,6.42667138671875,0.746500211842358,-0.07970189774632454,-0.23809987719729542
1780626039693667000,6.4366669921875,0.8325938564524054,-0.1839677433848381,-0.4948083010137081
1780626039703662000,6.446662109375,0.5545107823044061,-0.022947160345315933,-0.5634916688784957
1780626039713657000,6.456656982421875,0.21183453221470117,0.19382512053251266,-0.3593681494325399
1780626039723653000,6.466653076171875,0.07541735229492187,0.2531032389312982,-0.15935528017580508
1780626039733648100,6.476648193359375,0.03401683589220047,0.16520809785723686,-0.11027005448937416
1780626039743644200,6.48664404296875,-0.07426438286751508,0.027149872732162475,-0.1441828454852104
1780626039753639200,6.49663916015625,-0.15271306568235157,-0.11609013894498348,-0.2154012847855687
1780626039763634200,6.50663427734375,-0.002975216418504715,-0.21554536943137645,-0.2740609790250659
1780626039773630200,6.516630126953125,0.25101123508810996,-0.28150691111683845,-0.24140724817961454
1780626039783625200,6.526625244140625,0.39325726729184385,-0.3222989402323961,-0.1798977174669504
1780626039793621000,6.53662109375,0.4661866021633148,-0.3608645254701376,-0.06589899784326553
1780626039803616000,6.546615966796875,0.4857926353871822,-0.42278877446353436,0.0011713818669319151
1780626039813611000,6.556611083984375,0.523585482686758,-0.5007265851467848,-0.0035939328387379643
1780626039823607300,6.566607177734375,0.634098406021297,-0.558477932369709,-0.05088935249894857
1780626039833602300,6.576602294921875,0.8187716673269867,-0.5294312861055135,-0.07879618107825517
1780626039843598000,6.58659814453125,0.9248103678569197,-0.43128421560823915,-0.04481558554321527
1780626039853593000,6.596593017578125,0.9308683527216315,-0.2841156323105097,0.0303358092918992
1780626039863588000,6.606588134765625,0.7558829572156072,-0.12780804926753042,0.09062515055984258
1780626039873584000,6.616584228515625,0.5632534762084483,0.1054056633234024,0.2025353734716773
1780626039883579100,6.6265791015625,0.417466702657938,0.3295709770619869,0.3236977011144161
1780626039893575200,6.6365751953125,0.2968742838576436,0.36195465879440303,0.3432815225064754
1780626039903570200,6.646570068359375,0.19551848044693468,0.22732231646478174,0.2331236962199211
1780626039913565200,6.656565185546875,0.10004647437781095,0.003751461488008499,0.06420125401467085
1780626039923561200,6.666561279296875,0.07163198853731155,-0.32121523664891716,-0.13587328230142592
1780626039933556000,6.676555908203125,0.025608780770003794,-0.582844311863184,-0.2362406591966748
1780626039943552000,6.686552001953125,-0.06971446447819471,-0.6726712977826594,-0.17727847487926482
1780626039953547300,6.69654736328125,-0.2403875497430563,-0.5550473733991385,-0.004825520460307597
1780626039963542300,6.706542236328125,-0.39661476102620363,-0.3241109580904245,0.17728344331532717
1780626039973538000,6.7165380859375,-0.4032704195231199,-0.14446809216737747,0.3305433292254805
1780626039983533000,6.726532958984375,-0.29614626184403897,-0.03111234662234783,0.46205520144701
1780626039993529000,6.736529052734375,-0.08283756542354821,0.11247194844782352,0.6195116622641682
1780626040003524000,6.746524169921875,0.14202595971226692,0.2996376110911369,0.7816957361251116
1780626040013519000,6.75651904296875,0.40950200738906856,0.3314309257149696,0.8962149724915623
1780626040023515100,6.76651513671875,0.5754021791636943,0.18707213914096354,0.9778297181218862
1780626040033510100,6.77651025390625,0.6767050833433866,0.13190320962667465,1.164897473348677
1780626040043506200,6.786506103515625,0.8169950130432844,0.1246329263627529,1.3204644671574235
1780626040053501200,6.796501220703125,0.8899193794786929,-0.019825228932499883,1.4483610714912414
1780626040063496200,6.80649609375,0.6984937213033438,-0.16356559134721754,1.6243164810732007
1780626040073492000,6.816491943359375,0.3910527429848909,-0.1938847417652607,1.702408897796273
1780626040083487000,6.826487060546875,0.23999592007696627,-0.22897768245637415,1.5404422660782933
1780626040093483300,6.836483154296875,0.39937575017213817,-0.392697587582469,1.0684390865907072
1780626040103478300,6.846478271484375,0.5599433287471532,-0.6095177992552518,0.5347372835591435
1780626040113473300,6.856473388671875,0.4529226314425468,-0.663099167317152,0.05637333686798811
1780626040123469000,6.866468994140625,0.25837211924493314,-0.4635147526055574,-0.19534516970664262
1780626040133464000,6.876464111328125,0.2079875013977289,-0.19488836584985256,-0.21415245376825331
1780626040143460000,6.886460205078125,0.431495228010416,0.02954641247987747,-0.1715063212186098
1780626040153455000,6.896455078125,0.5827987191557884,0.09026537733674049,-0.24850538974702358
1780626040163450400,6.906450439453125,0.4469809664338827,-0.18218319805562494,-0.4603165410861373
1780626040173446100,6.916446044921875,0.2758750427097082,-0.44628187825381754,-0.5371224251300096
1780626040183441200,6.926441162109375,0.37053280978649855,-0.45474166356325146,-0.44378567752391096
1780626040193437200,6.936437255859375,0.44024318261146544,-0.29639000747203825,-0.506440578879416
1780626040203432200,6.94643212890625,-0.1751093141466379,-0.29619828429222106,-0.7783189531683922
1780626040213427000,6.956427001953125,-1.044772672060132,-0.4613292252600193,-0.9077461280703544
1780626040223423200,6.96642333984375,-1.5109277100414036,-0.771301183360815,-0.7177560556560755
1780626040233418200,6.976418212890625,-1.7607564573466776,-1.1492740800201893,-0.009407003031671047
1780626040243414300,6.986414306640625,-1.4920102436035871,-1.4518430683881043,0.999492099353671
1780626040253409000,6.996408935546875,-0.45951253122687336,-1.6992086404502391,1.9323618550255894
1780626040263404000,7.006404052734375,0.8140554524600505,-1.7192489734381435,2.791876743890345
1780626040273400000,7.016400146484375,1.5996595942005514,-1.5271797566622494,3.4503634489759802
1780626040283395000,7.02639501953125,1.548344417504966,-1.2993249407559633,3.775811208628118
1780626040293391000,7.03639111328125,0.9147682817921042,-1.2049164722651242,3.4824832190752026
1780626040303386000,7.04638623046875,0.2566255678385496,-1.2172627436190844,2.87123289693892
1780626040313381000,7.056381103515625,-0.41733167810142036,-1.2661398795127867,2.0485288585990666
1780626040323377200,7.066377197265625,-1.1784817620649932,-1.440929460185766,1.086101000009477
1780626040333372200,7.0763720703125,-1.8014906187951563,-1.7342273468613623,0.25674744065254923
1780626040343368000,7.086367919921875,-1.8915771324336528,-2.051931360518932,-0.23303514115363358
1780626040353363000,7.096363037109375,-1.3829121555030346,-2.2335873198300598,-0.36012364397495983
1780626040363358000,7.10635791015625,-0.670527563752234,-2.1872551922440526,-0.204820561799407
1780626040373354200,7.116354248046875,-0.12656798607856035,-1.9129577741146087,0.07213438510149717
1780626040383349200,7.126349365234375,0.16869097153693435,-1.5657523561626672,0.21839316007792947
1780626040393345000,7.136344970703125,0.40232963154166934,-1.2708137165427207,0.24458441691100596
1780626040403340000,7.146340087890625,0.7889043523296714,-0.9695300918102264,0.22090631194263696
1780626040413335000,7.1563349609375,1.5396251044765115,-0.39655250944495196,0.3249360107377171
1780626040423331000,7.1663310546875,2.5192311846211553,0.59316521486938,0.7112558799818157
1780626040433326300,7.176326416015625,3.4418449192166327,1.8530413578122853,1.0230614832505582
1780626040443322000,7.186322021484375,4.198471388275921,2.952252307024598,0.9847820214778185
1780626040453316900,7.19631689453125,4.535084100542962,3.4733787061214443,0.5827466967076063
1780626040463312000,7.206311767578125,4.145148671150207,2.942044801265001,-0.011710311537981032
1780626040473308200,7.21630810546875,3.1742335547223686,1.5969944666445255,-0.1249468146175146
1780626040483303200,7.22630322265625,2.290837731793523,0.08451543550789356,0.1476931916937232
1780626040493298200,7.236298095703125,1.814481033271551,-1.3061170851141213,0.11792144602537155
1780626040503294000,7.2462939453125,1.1965674538537858,-2.3698954864174127,-0.1984390440687537
1780626040513289000,7.2562890625,0.003786532801389694,-3.066135291314125,-0.7758534398376942
1780626040523285000,7.266284912109375,-1.5748562845945357,-3.4343864199042318,-1.563844768975675
1780626040533280000,7.276280029296875,-3.0250892874374986,-3.4818519354343413,-2.4649770318642257
1780626040543275000,7.28627490234375,-3.559977085383236,-3.0121640471518036,-2.846952734424174
1780626040553271000,7.29627099609375,-2.214538043706119,-1.570344360128045,-1.846804070857912
1780626040563266000,7.30626611328125,0.5717372269153594,0.6468231552988291,-0.030872838778048754
1780626040573262000,7.316261962890625,3.2288077332139014,2.8383868583917615,0.6209716518141329
1780626040583256800,7.3262568359375,2.4275854588419197,4.199943506655097,-0.45354646242931485
1780626040593251800,7.336251953125,-1.1577648449897766,3.962915204212069,-2.552448686829209
1780626040603248000,7.346248046875,-2.960884234030545,2.571464937466383,-3.3708594118893145
1780626040613243100,7.3562431640625,-2.0250337089821695,0.8725883054494857,-2.0080894423134623
1780626040623239200,7.3662392578125,0.1232104923442006,-0.5536112031161785,0.03162336488440633
1780626040633234000,7.37623388671875,1.1849319611176847,-0.9456734154045581,1.8398941453389823
1780626040643229000,7.38622900390625,0.5867880810528994,-0.560963903966546,2.7057161715239286
1780626040653225000,7.396224853515625,-0.46954088102728125,-0.29419337421059605,2.465494625997543
1780626040663220000,7.406219970703125,-1.3486799232944846,-0.20619477276206016,1.6672154193401336
1780626040673216000,7.416216064453125,-1.6557731110885738,-0.17240999206006527,0.8126713046252727
1780626040683211000,7.4262109375,-1.6255866471394895,-0.06350012000799178,0.07004413482397795
1780626040693206000,7.4362060546875,-1.6683926464259624,0.12572422873079775,-0.40377763839289543
1780626040703202000,7.4462021484375,-1.4168269923254846,0.32962124594449993,-0.6979230818085372
1780626040713197000,7.456197021484375,-0.6664698127940297,0.5601163472265005,-0.6424871719211339
1780626040723192800,7.46619287109375,0.10276391664296387,0.7434037071317434,-0.4061059352099895
1780626040733187800,7.476187744140625,0.6489595828056335,0.6969628584742545,-0.3081928195990622
1780626040743182800,7.486182861328125,0.4486816328719258,0.6115630413472652,-0.37304157773703334
1780626040753179100,7.49617919921875,-0.2944435495793819,0.6128659406393766,-0.45381607315093275
1780626040763174100,7.506174072265625,-0.9016083559677004,0.5959919627279043,-0.46480113915428517
1780626040773170000,7.516169921875,-0.9168135238841175,0.3812111479282379,-0.534366258289665
1780626040783165000,7.5261650390625,-0.5101803499296307,0.008164017233252524,-0.697378891929239
1780626040793160000,7.536159912109375,-0.3824143862381577,-0.26204408575594423,-0.9209627525180578
1780626040803156000,7.546156005859375,-0.4555006652370095,-0.46749476215243335,-1.2099408762983976
1780626040813151200,7.556151123046875,-0.639145168016851,-0.5925514668852091,-1.538845498406142
1780626040823147000,7.56614697265625,-0.7997469411224126,-0.46269408387243743,-1.6986004454240202
1780626040833142000,7.57614208984375,-0.5368094136580824,-0.12271335647702217,-1.6712497894227503
1780626040843137000,7.586136962890625,0.36568712332099673,0.5166127210646867,-1.3838713559240101
1780626040853133000,7.596133056640625,0.7691495582848786,1.2801204740703105,-0.9283113617151975
1780626040863128000,7.606128173828125,0.8330436460465193,1.6256868926435708,-0.48593584325015543
1780626040873124000,7.6161240234375,0.37002135313302276,1.3574796080827711,-0.1797463993627578
1780626040883119000,7.626119140625,-0.8559598267316818,0.6086562139898538,0.16769735738970337
1780626040893114000,7.636114013671875,-1.3929928200125694,-0.22828502401709555,0.5725098917882889
1780626040903110100,7.646110107421875,-1.1481211105927824,-0.8825140716582536,1.1065372004471719
1780626040913105000,7.65610498046875,-0.38430823716074225,-1.2108692431896924,1.6545499990344046
1780626040923101000,7.666100830078125,0.27994273054003715,-1.018694227951765,1.987128341218829
1780626040933096000,7.676095947265625,0.7062249000772833,-0.37541035269498824,2.0215777233093974
1780626040943091000,7.686091064453125,0.7720619386002421,0.3017413053721189,1.6141919774219393
1780626040953087000,7.6960869140625,0.31990736892074345,0.6241968974709511,0.7757545095078646
1780626040963082000,7.70608203125,-0.24340514399856328,0.6467682102411985,0.014361118307709694
1780626040973078000,7.716078125,-0.3334548327580094,0.5090297185897826,-0.2787057360909879
1780626040983073000,7.726072998046875,-0.10992986274957656,0.2495499303638935,-0.1794041617963463
1780626040993068000,7.736068115234375,0.14453501992374657,0.003203764477372169,0.06950768985971809
1780626041003063800,7.746063720703125,0.2682844414502382,-0.23631167860627172,0.2518951783157885
1780626041013058800,7.756058837890625,0.1042006714478135,-0.4177794218689203,0.1948921652421355
1780626041023055000,7.76605517578125,-0.4045744878590107,-0.4666875374227762,-0.15265147168822585
1780626041033050000,7.776050048828125,-0.904421659822762,-0.2638268775194883,-0.7238670858822762
1780626041043045000,7.786045166015625,-0.6060229428768158,0.17353461217582225,-1.1606196498990058
1780626041053041000,7.796041015625,0.14819880312830208,0.7501759777456521,-1.2329745458833872
1780626041063036000,7.806035888671875,0.7215472646325827,1.1872270863175391,-0.8761417601473629
1780626041073032000,7.816031982421875,1.1738390508256853,1.2715589819520712,-0.20188845387026666
1780626041083027200,7.826027099609375,1.264004036527872,0.968816390582919,0.43017493919208644
1780626041093022200,7.836022216796875,0.9069874186575412,0.4520435105204582,1.0061432278059423
1780626041103018000,7.84601806640625,0.4234826019465923,0.12604162411689757,1.561311304975301
1780626041113013000,7.856012939453125,0.5432794864550232,-0.033057050949335094,2.2167764702826736
1780626041123009000,7.866009033203125,1.1270749615631996,-0.09239245249330998,2.9004221665441987
1780626041133004000,7.876004150390625,1.874154726859182,-0.1260404550731182,3.5721921315729617
1780626041142999000,7.8859990234375,2.2499220762982963,-0.14450257895886898,4.147274869523942
1780626041152995000,7.8959951171875,1.1994061844110488,-0.1292903967797756,4.2163092427834865
1780626041162990000,7.905989990234375,-0.5514294751629233,-0.14864859272241593,3.865855052168667
1780626041172985000,7.915985107421875,-1.180854336415231,-0.09021335488855839,3.388253029760718
1780626041182981000,7.925981201171875,-0.43156186350584025,-0.12734569245278834,2.47696089964658
1780626041192976000,7.935975830078125,0.32537498667687176,-0.2129945159047842,1.179713349686563
1780626041202972000,7.945971923828125,0.4573842870265245,-0.31386545840799807,-0.43932665228843687
1780626041212967000,7.955966796875,0.6761249453678727,-0.38264381107985973,-2.470997022806108
1780626041222962000,7.9659619140625,0.18446897090524433,-0.3562415418446064,-4.65399134273529
1780626041232958000,7.9759580078125,-0.2166319956243038,-0.22617606903910636,-6.371721143782138
1780626041242953000,7.985952880859375,0.054684068606793874,-0.1475380011320114,-7.09651542751193
1780626041252949000,7.995948974609375,0.648292935590446,0.04728080661296844,-6.614925504511595
1780626041262944000,8.005944091796875,0.20146452936977147,0.11867255665361881,-5.289104771018028
1780626041272939000,8.01593896484375,-0.6814210059493779,-0.29894378360807894,-3.182157625719905
1780626041282934800,8.025934814453125,-0.8002680423870683,-1.0257184275001288,-0.861498463897407
1780626041292930000,8.035929931640625,-0.011193594187498093,-1.8175760766774416,0.9777369252718985
1780626041302926000,8.045926025390624,0.1890288261666894,-2.4234271701186896,1.8702583039425313
1780626041312921000,8.055921142578125,-0.8055003900825977,-2.4631904407083987,1.8004519233971834
1780626041322916000,8.065916015625,-0.8122992564424872,-1.949347184357047,1.249042906500399
1780626041332911900,8.075911865234374,-0.7550523516103624,-1.1262521008729933,0.42142998026572165
1780626041342907000,8.085906982421875,-1.3084312072753905,-0.448584309977293,-0.5839614062596112
1780626041352903000,8.09590283203125,-1.5528212706580757,-0.23312661882936953,-1.2989575687482953
1780626041362898200,8.105898193359375,-0.9787903798475861,-0.4542395592600107,-1.2537395398840308
1780626041372893200,8.11589306640625,0.21501666938215494,-0.5628466489732266,-0.5062990880494938
1780626041382889000,8.125888916015626,0.2551844291195273,-0.6563111146122217,0.02617799549270421
1780626041392884000,8.135884033203125,-0.9086761023968458,-1.0498860695511103,0.21926345837274566
1780626041402880000,8.1458798828125,-2.2622104799851774,-1.612644455718994,-0.0798606502383016
1780626041412875000,8.155875,-2.9675466145291924,-1.9252830026805399,-0.722272071775794
1780626041422870000,8.1658701171875,-2.779711089800298,-1.5583920565277336,-0.8821811864420771
1780626041432866000,8.175865966796875,-2.3668030733600256,-0.48477498277723785,-0.3780316411092877
1780626041442861000,8.185861083984374,-0.7926888393044471,0.5222960273981094,0.3661780851757154
1780626041452857900,8.19585791015625,0.5701327143281698,1.459676830753684,1.1278275334961712
1780626041462852600,8.2058525390625,1.7071487857997416,2.2717162672162057,1.8420096761882303
1780626041472847600,8.21584765625,1.7621999341532586,2.644813666793704,1.9158501345552503
1780626041482843600,8.22584375,0.253620248542726,2.320988539907336,1.3489794907629489
1780626041492838700,8.235838623046876,-0.5980959492698311,1.2294283977091311,0.34130353696439414
1780626041502834400,8.24583447265625,-1.322403034004569,0.06459434498548507,-0.32721473279204216
1780626041512829400,8.255829345703125,-1.0845382807374,-0.41294542584121224,0.08409965778123586
1780626041522824400,8.265824462890626,-0.5473351915866136,-0.35282384235560893,0.9541124501869082
1780626041532820700,8.27582080078125,-0.7350508893281221,0.1767255171716213,1.300414489558339
1780626041542815700,8.285815673828125,-0.9612854105561971,0.8144190250754356,1.074325806541741
1780626041552811500,8.2958115234375,-0.45868192562162874,1.1589870802611113,0.6731241561166942
1780626041562806500,8.305806640625,0.4422980693146586,1.3111030568331479,0.1523838337279856
1780626041572801500,8.315801513671875,0.5811760863900184,1.4703414326310158,-0.4107104698633775
1780626041582797600,8.325797607421874,0.5844324578374623,1.5095406395971773,-0.6875739025559275
1780626041592792800,8.335792724609375,0.8885895921796559,1.3590730147540568,-0.6083019571920857
1780626041602787800,8.345787841796875,0.17000468448400496,0.8656436008781194,-0.38193193648345763
1780626041612783600,8.35578369140625,-0.13994447726309298,-0.09023322863280772,-0.11218717668969183
1780626041622778600,8.365778564453125,-0.9618988662794232,-1.024742275944352,-0.17221392149869352
1780626041632774700,8.375774658203126,-0.7638231025651097,-1.237209553104639,-0.29934264673255384
1780626041642769700,8.385769775390624,0.27739509188383815,-0.5056470904141664,-0.05375573824811727
1780626041652764700,8.3957646484375,-0.257449159181118,0.32081425463259217,0.3202414597133174
1780626041662760700,8.4057607421875,0.050616965298354626,0.7647808416813612,0.6468370376937091
1780626041672755700,8.415755615234374,0.2655225755214691,0.8106085268765687,0.7432195827364921
1780626041682751700,8.425751708984375,0.2999818944841623,0.5203548302024602,0.6180344293184578
1780626041692746800,8.435746826171876,0.5267798948138952,0.21414660854935644,0.3436526939064264
1780626041702741500,8.445741455078124,-0.4378147864207625,-0.2664800223767757,-0.28587613917700944
1780626041712737500,8.455737548828125,-0.6722671008959412,-1.1344131954967975,-0.7154528202150017
1780626041722732500,8.465732666015626,0.5410752544090152,-1.4089362390756606,-0.26978710109815
1780626041732728800,8.475728759765625,0.2307575516104698,-0.9176134420901536,0.24918328900858758
1780626041742723600,8.4857236328125,0.4555106021091342,-0.22485563409030437,0.5684997793640941
1780626041752718600,8.495718505859376,1.886736998926103,0.5268892004072666,0.8721768020391464
1780626041762714600,8.505714599609375,1.2699755121529102,0.7356003399044275,0.361686728573218
1780626041772709600,8.515709716796875,0.5888447213217616,0.24632687666416167,-0.5323339487444609
1780626041782705700,8.52570556640625,-0.18407091149836777,-0.3570774081468582,-0.8222498648315668
1780626041792700400,8.535700439453125,-0.7853805621176958,-0.936874607399106,-0.3434466499403119
1780626041802695700,8.54569580078125,-0.7122706099823117,-1.1357920826345682,0.22218422292396425
1780626041812691700,8.555691650390624,-0.9505883677139878,-0.7879688250452279,0.8798101464617997
1780626041822686700,8.565686767578125,-0.7467527252987026,0.01224982524216175,1.6767527707532046
1780626041832682500,8.5756826171875,-0.5292994764193892,1.1541150903105735,2.2798028352990745
1780626041842677500,8.585677490234374,-0.29900252805799243,2.1784084534436463,2.805633174303174
1780626041852672500,8.595672607421875,-0.5010577167972922,2.716808058902621,2.8905001997277138
1780626041862668500,8.60566845703125,-1.0651818383604288,2.376258591708541,2.201296869339049
1780626041872663800,8.615663818359375,-0.9224927385643124,1.4638245980828999,0.8670600435473025
1780626041882659600,8.62565966796875,-0.7109285477235913,0.6072422555387019,-0.44766441865339873
1780626041892654600,8.635654541015626,-0.6767667504027486,-0.11493512369096279,-1.1321207006454468
1780626041902649600,8.645649658203125,-0.3908513751938939,-0.7055868944346905,-1.6525896587468683
1780626041912645600,8.655645751953125,0.05055062206387519,-1.1415373482882976,-2.109460004901886
1780626041922640600,8.665640625,0.4047597812980413,-1.355678111618757,-2.173848452051729
1780626041932636700,8.67563671875,0.6112003455147147,-1.171016540750861,-1.7159405795425176
1780626041942631700,8.685631591796875,0.5341238278359174,-0.70310735257864,-1.182756955166161
1780626041952626700,8.695626708984374,0.1315457744911313,-0.37846564861238,-0.950096638674289
1780626041962622700,8.705622802734375,0.09124620506763458,-0.19518062679469583,-0.8327133911788464
1780626041972617700,8.71561767578125,0.022979601310193536,-0.02986614595353603,-0.4941726334586739
1780626041982613500,8.725613525390624,-0.5246992891475558,0.22409809372127054,0.23257775277495382
1780626041992608500,8.7356083984375,-1.0152148614034056,0.574619504353404,1.261417234905064
1780626042002603500,8.745603515625,-1.31747726804018,0.7997749981731176,2.2109376811265946
1780626042012599800,8.755599853515625,-1.1645967368364334,0.6186322490811348,2.5933248870968817
1780626042022594800,8.7655947265625,-0.6864096080169081,0.105188221180439,2.358738132587075
1780626042032590600,8.775590576171876,-0.5625514654189347,-0.2809644748032093,1.5612344403468073
1780626042042585600,8.785585693359375,-0.5651072873815893,-0.2661895149976015,0.5258594189681113
1780626042052580600,8.79558056640625,-0.5819628528535365,-0.002295417460799217,-0.42908422134593127
1780626042062576600,8.80557666015625,-0.3840156839549541,0.24651801532208917,-0.9975924032121897
1780626042072571400,8.8155712890625,-0.09292699776142835,0.2875824316382408,-1.1037731425613164
1780626042082566700,8.825566650390625,0.12285773338377474,0.07017126833498477,-0.8010568546772002
1780626042092562700,8.835562744140624,0.05461743311136961,-0.17862638235688208,-0.2995325432814657
1780626042102557700,8.8455576171875,-0.23255875581353902,-0.292138195246458,0.14020079011172054
1780626042112553500,8.855553466796875,-0.4581190310418606,-0.2897562685459852,0.5699762085922062
1780626042122548500,8.865548583984374,-0.8527621997341513,-0.3473252449393272,0.9619434360735117
1780626042132543500,8.87554345703125,-1.1346297608569265,-0.42524142831265926,1.1731176046833396
1780626042142539800,8.885539794921876,-1.1834463987350463,-0.42333764051795003,1.3760621434777973
1780626042152534800,8.89553466796875,-0.569563390007615,-0.35181904922723767,1.6037069698952138
1780626042162530600,8.905530517578125,-0.3240507523357868,-0.2679711377173662,1.4992553924262524
1780626042172525600,8.915525634765626,-0.5754679378762841,-0.19372224467992782,0.973218863325566
1780626042182520600,8.9255205078125,-0.41507863847762344,-0.024496727874875068,0.25970702111050487
1780626042192516600,8.9355166015625,-0.4465443285822868,0.26118659214377404,-0.24619711280465126
1780626042202511600,8.94551171875,-0.5630091460585593,0.373944956317544,-0.639870559681952
1780626042212507600,8.955507568359375,-0.05105126506239176,0.25914602622687816,-0.8882961621910334
1780626042222502700,8.965502685546875,0.3545359069705009,0.2682797652751207,-0.9328063350468874
1780626042232497700,8.97549755859375,0.3586594166412949,0.37904374076128006,-0.869528187226504
1780626042242493700,8.98549365234375,0.3706695879086852,0.5696212576746941,-0.40166108463034034
1780626042252488700,8.99548876953125,0.4737213815823197,0.639434214091301,0.17418182403817772
1780626042262484500,9.005484375,0.645310704909265,0.5044137492269277,0.5061098856203258
1780626042272479500,9.0154794921875,0.33601153150349855,0.2640899123698473,0.5373176554411649
1780626042282474500,9.025474609375,0.41835839080065484,-0.014729951620101928,0.4323329940088093
1780626042292470800,9.035470703125,0.7782979103803634,-0.07012509110569953,0.3207528798341751
1780626042302465800,9.0454658203125,0.4932029116436839,0.032227029865980146,0.1325970371097326
1780626042312461600,9.055461669921876,0.48565994891822334,0.04532733445763588,-0.10724135431796311
1780626042322456600,9.06545654296875,0.8091060133591294,-0.07089081478118896,-0.40523192885443565
1780626042332451600,9.07545166015625,1.183706218715012,-0.09564180967807769,-0.6922130335986614
1780626042342447600,9.085447509765626,0.7980372145950794,-0.08599602945446967,-0.9971122915450483
1780626042352442600,9.095442626953124,-0.36944121515750883,-0.09663900402188301,-0.9177133222680538
1780626042362438700,9.105438720703125,-0.24955782140940427,-0.30219314079284665,0.11136581383682786
1780626042372433700,9.11543359375,0.4449839473977685,-0.530443093496561,1.3323559804812073
1780626042382428700,9.1254287109375,0.022447686390578744,-0.7804980507731437,1.6783685353867708
1780626042392424700,9.1354248046875,0.024034078799188136,-0.9146978469043969,1.1791608303703367
1780626042402419500,9.14541943359375,0.06380407139062881,-0.5768932945042848,-0.031766207421198484
1780626042412414500,9.15541455078125,0.265476106031239,0.10340893654823302,-1.30309802955389
1780626042422410800,9.16541064453125,1.1150821798220276,1.0024503646373748,-2.1185265239328146
1780626042432405800,9.17540576171875,1.0472890387952327,1.6785633273065088,-2.258153313548863
1780626042442401500,9.185401611328125,0.9664733345881104,1.587200217860937,-1.8481673220351338
1780626042452396500,9.195396484375,0.5193973833471537,0.8268675877600907,-1.2980600353866816
1780626042462391600,9.2053916015625,-0.01953355250954628,-0.05807575687170028,-0.5721873087704181
1780626042472387600,9.2153876953125,0.2972963086619973,-0.7754659018248319,0.17924524490758775
1780626042482382600,9.225382568359375,0.048450434914231295,-1.057771854364872,0.46744683135747905
1780626042492378600,9.235378662109374,-0.7014975792944431,-0.925244375360012,0.7257518036503344
1780626042502373600,9.24537353515625,-0.24678251147717237,-0.6056009180724621,1.403411338174343
1780626042512368600,9.25536865234375,-0.6826148919090628,-0.4803869769513607,1.7767472226828336
1780626042522364700,9.26536474609375,-0.8956365880817174,-0.7056020920038223,1.8655998106122016
1780626042532359700,9.275359619140625,-0.48735710822492834,-0.9880372238814831,1.6559902609705923
1780626042542355500,9.28535546875,-0.5384978051364422,-1.1613643307864665,0.8188439288455992
1780626042552350500,9.2953505859375,-0.05883680437207222,-1.0517302361130714,-0.522203015352413
1780626042562345700,9.305345703125,0.06686024409085511,-0.560777441483736,-1.902238811701536
1780626042572341800,9.315341796875,-0.2419511457979679,0.048050037419795986,-2.715456059771776
1780626042582336800,9.325336669921874,-0.1902817488372326,0.46882513397336,-2.645198282197118
1780626042592332500,9.33533251953125,-0.3797065885841846,0.74775547260046,-1.498688990715146
1780626042602327600,9.34532763671875,-0.46158261549919843,0.9304080417335033,0.1857102031379938
1780626042612322600,9.355322509765625,-0.37420419177562,0.9652771105408668,1.529852044611424
1780626042622318800,9.36531884765625,-0.3322013255655765,0.6541530597954988,2.216249816060066
1780626042632313900,9.37531396484375,-0.9334425871238112,0.10715630638301372,1.7698714916944502
1780626042642309600,9.3853095703125,-0.6652269731260836,-0.1526969913303852,0.4838710196748376
1780626042652304600,9.3953046875,-0.2633908241897821,0.023267478340864182,-1.2825501854352652
1780626042662299600,9.405299560546876,0.28902883105427024,0.5740484264671802,-3.024278263315558
1780626042672295700,9.415295654296875,0.5723388460703194,1.211125263777375,-3.9920162110120057
1780626042682290400,9.42529052734375,0.3631590661481023,1.5540461362779139,-3.6186958163335916
1780626042692286700,9.43528662109375,0.1677487222507596,1.2554729395478963,-1.777537204016745
1780626042702281700,9.44528173828125,-0.453492101893574,0.6203378839552403,0.13838161186054349
1780626042712276700,9.45527685546875,-0.5321852609887718,0.20037293474078177,1.2861828428491948
1780626042722272500,9.4652724609375,-0.8857070224806666,0.47888534021675583,1.4524140001438557
1780626042732267500,9.475267578125,-0.9950362889885902,0.7441215000122785,0.6730921535432338
1780626042742262500,9.485262451171875,0.4938356565892696,0.9372399335801601,0.03462693061456084
1780626042752258600,9.495258544921874,1.466273160278797,1.2478034278333185,-0.4633190839029848
1780626042762253600,9.505253662109375,2.651182325042784,1.3458821092694997,-0.6803218125358224
1780626042772249600,9.51524951171875,3.3104762548580764,1.4052303702950477,-0.5933810495771468
1780626042782244600,9.52524462890625,3.3380501982212065,1.5839397547602652,-0.2034751385398209
1780626042792239600,9.535239501953125,2.4397426373645663,2.095862272182107,0.5312938651069998
1780626042802235600,9.545235595703126,1.0553821827493608,2.347470304119587,0.9687471247389912
1780626042812230700,9.555230712890625,0.7666939818263053,2.407044190594554,2.0531296303927897
1780626042822226400,9.565226318359375,1.7882520747765898,2.622892342364788,3.1552514986157414
1780626042832221700,9.5752216796875,2.285119354146719,2.7235119404554364,3.812120247110724
1780626042842216700,9.585216796875,1.7114426836013792,2.261716851249337,3.1106127309441565
1780626042852212700,9.595212646484375,1.0443849879167972,1.627159887805581,1.4321414658352731
1780626042862207700,9.605207763671874,1.2969129111781716,1.5294091231495142,0.09305033188015222
1780626042872203500,9.61520361328125,2.522476450152695,1.3193027299016713,-1.1870733570605516
1780626042882198500,9.625198486328125,4.37633058565259,0.30265140595436096,-2.651421102234721
1780626042892193500,9.635193603515624,5.049683435958624,-0.748936206817627,-4.479663826616108
1780626042902189800,9.64518994140625,3.443950367063284,-1.5439105267107487,-6.076354049617052
1780626042912184800,9.655184814453126,1.5772842423938214,-2.093146583482623,-5.853039799749851
1780626042922180600,9.6651806640625,2.4495007919214666,-2.6801485995471475,-4.569334745191037
1780626042932175600,9.675175537109375,5.211177481728792,-3.0703865190178155,-3.542789511477947
1780626042942170600,9.685170654296876,6.567374648785591,-2.933171758979559,-3.046489510601759
1780626042952166700,9.695166748046875,5.052821149462461,-2.450886839452386,-2.7581957158237693
1780626042962161700,9.70516162109375,2.4703096250638366,-1.842148207876086,-2.094512465008348
1780626042972157700,9.71515771484375,0.5241811104923486,-1.178556873127818,-1.0744676992304623
1780626042982152700,9.725152587890625,-0.4479848827794194,-0.6140133571088313,-0.07628522117063402
1780626042992147700,9.735147705078125,-0.2767059405758977,-0.14171908572018146,0.5126476168259978
1780626043002143700,9.745143798828124,0.6763233905494213,0.3084779201507568,1.097018261473626
1780626043012138500,9.755138427734375,1.455646552324295,0.6131909348100424,1.7706950830370187
1780626043022134500,9.765134521484375,1.8005302493304014,0.9541326161921023,2.431596740309894
1780626043032129500,9.775129638671874,1.402253400310874,1.1920201658129692,2.6168428330674764
1780626043042124800,9.785124755859375,0.25227438689172266,1.2463485528498888,2.14263527540341
1780626043052120600,9.79512060546875,-0.7236477440431713,1.3193681963533161,1.284822222020477
1780626043062115600,9.805115478515624,-1.0561743560403585,1.4197913950890302,0.6272831730484962
1780626043072110600,9.815110595703125,-0.35910979075729843,1.6144558890551328,0.6511339311700314
1780626043082106600,9.825106689453126,-0.45563422848880286,1.7366127806931733,0.7958404352031647
1780626043092101600,9.8351015625,-0.6071574998646975,2.004558199447393,1.118817274697125
1780626043102097700,9.84509765625,-0.49878421890735625,2.40470142686069,1.8604639090284705
1780626043112092700,9.8550927734375,0.5045645558744669,2.8793922379970547,2.936056374505162
1780626043122087700,9.865087646484374,1.2109610131263733,3.494571716275811,3.805982767269015
1780626043132083700,9.875083740234375,1.6369336783230304,4.439537275671959,4.111492485263944
1780626043142078700,9.88507861328125,1.699869150185585,5.4427901888638734,3.24672420591563
1780626043152074500,9.895074462890625,-0.9006938714712858,5.723297567549348,1.169713349197805
1780626043162069500,9.905069580078125,-3.943641179421544,4.585727369326353,-1.3039093459367752
1780626043172064500,9.915064453125,-4.977928697824478,2.510305243104696,-2.2723913899987935
1780626043182060800,9.925060791015625,-4.047828699126839,0.6533183625370264,-1.3850477062270043
1780626043192055800,9.935055908203125,-1.6140876402646303,0.6307745222955942,-0.33051001147776843
1780626043202051600,9.945051513671874,-0.3706389005094766,1.6083803685337303,0.3562482638463378
1780626043212046600,9.955046630859375,-2.0572832429409025,1.4329665184825657,-0.17504092508554459
1780626043222041600,9.96504150390625,-4.518571649420261,0.4777297404408455,-0.42187692031562324
1780626043232037600,9.97503759765625,-5.238658778372407,-1.2475222728043793,0.248155845656991
1780626043242032600,9.98503271484375,-4.27746513775289,-2.8410277282893657,1.8348054438978432
1780626043252028700,9.995028564453126,-3.5972803956001993,-3.2930086949676274,4.011252241879701
1780626043262023700,10.005023681640624,-2.4801637873411178,-3.135202982321381,5.111960151651501
1780626043272018700,10.015018798828125,-0.6791857942432165,-2.7506296644836663,4.574478830081224
1780626043282014700,10.0250146484375,-0.42180210151374337,-2.1951368854045867,3.722840373679995
1780626043292009500,10.035009521484374,-1.383513628527522,-2.2042209400922057,3.0694349173814057
1780626043302004500,10.04500439453125,-2.2214409549623726,-3.5196623183906075,2.2883260412335393
1780626043312000800,10.055000732421876,-2.663385096272826,-4.955923786765337,2.0001520734429357
1780626043321995800,10.064995849609375,-2.6349095278948544,-5.162319050535559,2.8952526549518107
1780626043331991600,10.074991455078125,-2.107256941899657,-4.125173804613947,4.141233543533087
1780626043341986600,10.084986572265626,-0.9131570472031831,-2.444308337844908,4.797198036664724
1780626043351981600,10.094981689453125,0.057204819256067276,-0.8910448763772845,5.144759428447484
1780626043361977600,10.1049775390625,-0.3234136234760284,0.13670593373328446,4.5557501642137765
1780626043371972600,10.11497265625,-0.7658277203857898,0.4505018340364098,2.871816834306717
1780626043381968600,10.12496875,0.2543172908961773,0.5077300341680646,1.5328087024599313
1780626043391963600,10.134963623046875,0.8694909239560366,0.7507599151134491,1.4894512067705392
1780626043401958700,10.144958740234374,0.19896715959608555,0.6941334802672267,1.7462392716944217
1780626043411954700,10.15495458984375,-0.8597603880584239,0.32458909699618815,2.019880271741748
1780626043421949700,10.16494970703125,-1.5231155759632586,-0.23714812943041325,2.338126137191057
1780626043431945500,10.174945556640624,-1.4800602780908345,-0.7732857813067734,2.6015590469568965
1780626043441940500,10.1849404296875,-0.505103485056758,-1.222020021148771,2.4194290403932333
1780626043451935500,10.194935546875,0.6606009207606315,-1.461294348952919,1.7347306202083825
1780626043461931500,10.204931640625,0.7365279761433601,-0.8828647847920655,0.9321119230419397
1780626043471926500,10.214926513671875,0.18227905964553356,0.43007717790603633,0.08462824823260306
1780626043481921500,10.224921630859376,0.4613116896033287,2.2159417730242015,-0.2736228798687458
1780626043491917300,10.234917236328124,0.7682125696957111,3.5145208638489245,-0.34314006820917126
1780626043501912300,10.244912353515625,0.7221183425188065,3.4787463706344366,-0.141725515460968
1780626043511908600,10.25490869140625,0.7538648953914642,2.31881821013093,0.4791425298482179
1780626043521903600,10.264903564453125,0.46736733638048167,1.0776998130194841,1.174724163097143
1780626043531898600,10.274898681640625,0.5891589018374681,0.38762744471132754,1.3125421497255563
1780626043541894400,10.284894287109376,1.5902917541354893,0.41716556428689505,0.09301496830582619
1780626043551889400,10.294889404296875,3.8708062448352574,1.0550677830379456,-1.1278414158910512
1780626043561885400,10.304885498046875,5.090770648628473,1.913895347225666,-1.8198270704746244
1780626043571880400,10.31488037109375,3.94892642634809,2.845982135826349,-1.8635387864291666
1780626043581875200,10.324875244140625,2.503634679299593,3.7259728264868257,-1.1892705748438834
1780626043591871500,10.33487158203125,1.132985793042183,4.17442328095138,-0.7095066982269287
1780626043601866500,10.344866455078124,-0.0812590640604496,3.710828156585991,-0.8051110985040664
1780626043611862500,10.354862548828125,-1.210508008661866,2.407817513054609,-0.2993640548467636
1780626043621857300,10.364857177734375,-1.9842606768280266,0.587771904458478,0.7340320676743983
1780626043631852300,10.374852294921874,-1.847939066237211,-0.8548379100296646,1.2563771949112414
1780626043641848300,10.384848388671875,-1.3819903644829987,-1.5270480931065975,0.8800210857987404
1780626043651843300,10.39484326171875,-1.3893728759497403,-0.8153707728423177,0.5096101488262414
1780626043661838600,10.404838623046874,-2.3546412186622616,1.1162915556117892,0.3312830416768789
1780626043671834400,10.41483447265625,-2.681649067237973,2.621849555313587,0.07923428023457527
1780626043681829400,10.424829345703126,-2.506971130245924,2.7639196464285254,0.4477899447292089
1780626043691825400,10.434825439453125,-2.9090409418076275,1.3902590111345052,1.1496189479351042
1780626043701820400,10.4448203125,-3.0742566384494303,-0.46860761876516044,1.688348808261752
1780626043711815400,10.4548154296875,-2.8201795860499144,-1.7735510569900272,1.954212744566798
1780626043721811500,10.4648115234375,-2.654190566948056,-2.0101453519299626,2.3709581472128627
1780626043731806500,10.474806396484375,-2.465745385888219,-1.2237329625464974,2.283279863759875
1780626043741802500,10.484802490234374,-1.4045803819537162,-0.04388787623904645,1.4895324553132057
1780626043751797500,10.494797607421875,-0.33360008644759653,1.07695462067537,1.1203116049081085
1780626043761792500,10.50479248046875,-0.6330494814902544,2.018977185422182,1.5057558603614567
1780626043771788300,10.514788330078124,-0.2968874356001615,2.533633511722088,1.7292273466169834
1780626043781783300,10.524783203125,0.20884674857556818,2.3562010153248907,1.8413076653987168
1780626043791779600,10.534779541015626,-0.07357143216729163,1.4733670640625058,1.9101731118321417
1780626043801774600,10.544774658203124,-0.4642734620183706,0.4730343856988474,2.063972511446476
1780626043811769600,10.55476953125,-1.0716980883866547,-0.552370665003173,2.708915844348073
1780626043821765400,10.564765380859376,-0.7296066524475813,-1.65341646495983,3.4173481913417576
1780626043831760400,10.574760498046874,-0.29417174690067766,-2.1483479539617893,4.9315392870932815
1780626043841755400,10.58475537109375,-0.03345511035621166,-1.8610393708288668,6.432046140885353
1780626043851751400,10.59475146484375,3.2816748155266047,-1.1653222746320069,6.066597210234403
1780626043861746400,10.604746337890624,5.073272985860705,-0.16037421142738312,4.749663547551632
1780626043871742500,10.614742431640625,2.739182387796044,0.8814579136688262,2.4251614465653897
1780626043881737500,10.624737548828126,1.63165603018105,1.3435700329348443,-0.45169688903987404
1780626043891732500,10.634732421875,2.766796370908618,1.383023214662075,-2.4094132578134535
1780626043901728500,10.644728515625,2.8500708664447068,1.3748764408245682,-3.5029128436416386
1780626043911723300,10.65472314453125,2.539707278677821,1.4382364217095076,-3.910784619480371
1780626043921719300,10.66471923828125,3.130740742215514,1.6608964454516768,-3.7420600379347797
1780626043931714600,10.674714599609375,2.844641242611408,2.100521203903854,-3.048531245562434
1780626043941709600,10.68470947265625,0.7021008058845997,2.434467473440617,-2.4981816745907066
1780626043951705300,10.694705322265625,-0.8840694844067096,2.210511126277596,-2.1289719301015135
1780626043961700400,10.704700439453125,-1.305431440937519,1.506064780180156,-1.1291606817960738
1780626043971695400,10.7146953125,-1.5531091476887464,0.6693861386321485,0.35767654308378694
1780626043981691400,10.72469140625,-1.646805668517947,-0.19183628480285406,1.565935311514139
1780626043991686400,10.734686279296875,-1.7183114003270863,-0.888607639293,2.40762988152802
1780626044001682400,10.744682373046874,-1.8464573032468556,-0.9963935488164424,2.736502939453721
1780626044011677400,10.754677490234375,-1.4978233137965202,-0.5775381317464634,2.097989347338676
1780626044021672400,10.76467236328125,-0.5646370395213365,0.15185867734272032,1.0071785622030496
1780626044031668500,10.77466845703125,0.4898989016622305,0.9395746601380407,0.035113983479142186
1780626044041663500,10.78466357421875,0.8545990597724914,1.4948659252956509,-0.5704068550944328
1780626044051659300,10.7946591796875,0.41413142075538634,1.8449591736435889,-0.5615992792606354
1780626044061654300,10.804654296875,-0.2281044067531824,1.9717123070307074,-0.6476385633349419
1780626044071649300,10.814649169921875,-0.1037415295034647,1.5271031842947005,-1.1472189010560512
1780626044081645600,10.8246455078125,-0.06217676244974136,0.35923151744082565,-1.476473067253828
1780626044091640600,10.834640625,0.024521277794241902,-0.7841716247193515,-1.2456395277976988
1780626044101635600,10.844635498046875,-0.05302928713709116,-1.382811763868481,-0.7970815213054419
1780626044111631400,10.85463134765625,-0.015667524731159208,-1.3603908193543552,-0.7104138761997223
1780626044121626400,10.86462646484375,0.3544271858990192,-1.1719833399564028,-0.6978063235610723
1780626044131622400,10.874622314453125,0.4145692276507616,-0.7610282111495733,-0.7507476401537656
1780626044141617700,10.88461767578125,0.3606891689032316,-0.5550506613347679,-1.3204086453169583
1780626044151612400,10.8946123046875,0.21383681194782256,-0.7276203009359539,-1.832456250423193
1780626044161608400,10.9046083984375,0.12497428714632987,-0.9575576952699572,-2.2471634252399206
1780626044171603500,10.914603515625,0.39583530108630655,-1.2159409204307943,-2.8762463411867616
1780626044181599500,10.924599609375,1.0504968949258326,-1.223014365948364,-3.4532460186749696
1780626044191594200,10.93459423828125,1.5584309272333978,-0.8229655388202518,-4.028920000517368
1780626044201589200,10.94458935546875,1.4539578685849903,0.0752394658442121,-4.355820297065377
1780626044211585500,10.95458544921875,0.89005557307899,1.1546643947564066,-3.9992052457332607
1780626044221580500,10.96458056640625,0.16090250961780547,1.6876796768285334,-3.464983218219876
1780626044231575600,10.974575439453124,-0.2684510301887989,1.3945479405000805,-3.1898423350036142
1780626044241571300,10.9845712890625,-0.4616629872590303,0.5823747581226751,-3.0080723939239977
1780626044251566300,10.99456640625,-0.09923486573398113,-0.062159847847558555,-2.916494180423021
1780626044261562400,11.004562255859375,0.6744441526740789,-0.03073752196058631,-2.558549341791868
1780626044271557400,11.014557373046875,1.0639730470925568,0.7940097126446664,-1.7359832506179809
1780626044281552400,11.024552490234376,0.32697745343744755,1.5378940429002046,-1.131523319274187
1780626044291548400,11.03454833984375,-1.4108441185235976,1.819944413243979,-0.7777443681508303
1780626044301543400,11.04454345703125,-2.182984383057058,1.7320811286129056,-0.654648734357953
1780626044311539500,11.05453955078125,-1.83555772356987,1.221545973896235,-0.8992962796330451
1780626044321534500,11.064534423828125,-1.45545073749125,0.5066933115314692,-0.9834837983608246
1780626044331529500,11.074529541015625,-0.819532130305469,0.1728896288031712,-0.5904390047758817
1780626044341525200,11.084525146484374,0.23511487003713843,0.2425169629871845,0.10785773265063762
1780626044351520500,11.0945205078125,1.2064400285705923,0.5069081598585471,0.7674146973162889
1780626044361515500,11.104515625,0.9316574572727083,0.9491526358224451,0.91154025965631
1780626044371511600,11.114511474609374,-0.17361089228242635,0.815350752967596,-0.0984556980550289
1780626044381506600,11.124506591796875,-0.852028040240705,0.37615985588803885,-1.072734445697069
1780626044391502300,11.13450244140625,-0.5261605938717723,0.3468261363107711,-0.9757833069860935
1780626044401497300,11.144497314453124,-0.06974924353063106,0.5232122654601932,-0.5095505275934934
1780626044411492400,11.154492431640625,0.47801264903545376,0.5723528745956719,-0.5777893665611744
1780626044421488600,11.164488525390626,1.2655226243972777,0.7144802488557994,-0.611858224901557
1780626044431483400,11.1744833984375,1.6278803110346196,0.8828102050606161,-0.4878963296681642
1780626044441479400,11.1844794921875,0.8927917200446128,0.9989210945326834,-0.6654086133033037
1780626044451474400,11.194474365234376,0.24127163910120725,0.9127752082787454,-1.2825678672224283
1780626044461469200,11.20446923828125,0.23457769442051649,0.7545332231070846,-1.552175666230917
1780626044471465500,11.214465576171875,0.27893501480221744,0.5244137136718258,-1.1007733762234448
1780626044481460200,11.224460205078126,0.06266746857613324,0.2100751761256717,-0.9389701183736324
1780626044491455200,11.234455322265624,0.1105666993483901,0.2268129056379199,-0.9829068752557039
1780626044501451300,11.244451171875,0.3539829492628574,0.45834169734921304,-0.8394786475300788
1780626044511446300,11.2544462890625,-0.2389505026772618,0.6032239963406697,-0.9472966326922178
1780626044521442000,11.264442138671875,-0.6231681389451027,0.5586260721361265,-1.42924720569849
1780626044531437000,11.27443701171875,-0.13542524627298116,0.7814866234190762,-1.6816320672273635
1780626044541432000,11.28443212890625,0.15420213519632817,1.18240931077227,-1.7396622313916683
1780626044551428400,11.294428466796875,-0.018432313269376752,1.2524141364991663,-1.9899252784609793
1780626044561423400,11.30442333984375,-0.4715063358813524,1.1210971292626113,-2.1244559139817953
1780626044571418400,11.31441845703125,-0.8876964427322149,0.8367658814400434,-1.7916490237385034
1780626044581414100,11.3244140625,-1.5480138703763484,0.4157409017786383,-1.1253192039370536
1780626044591409200,11.3344091796875,-2.3148092667505145,0.022206132719665764,-0.5482692575663328
1780626044601405200,11.3444052734375,-2.273891273167729,-0.23753077207244933,-0.027538579788804054
1780626044611400400,11.354400390625,-1.582472604817152,-0.06102510819658637,0.5582879627555608
1780626044621395500,11.3643955078125,-1.0102426259487867,0.32172157873585816,0.9420400273382663
1780626044631391200,11.37439111328125,-0.968648632800579,0.3624925650633871,0.7661673276036978
1780626044641386200,11.38438623046875,-1.1388175679355859,0.05340162758082151,0.19466624753177164
1780626044651382300,11.39438232421875,-1.3168126666516065,-0.16136340512782335,-0.02626899824440479
1780626044661377300,11.404377197265624,-1.4673153628081081,-0.3121202221758663,0.03974164327979088
1780626044671372300,11.414372314453125,-1.324027420336008,-0.270956437138468,-0.03909866920113563
1780626044681368300,11.424368408203126,-0.9956710797607898,-0.06551409017890691,-0.27281156348586083
1780626044691363300,11.43436328125,-0.5074281286120415,0.11705693815052509,-0.7207289339870214
1780626044701358300,11.4443583984375,0.030084757140278813,0.3046028322830796,-1.2192021872490644
1780626044711354400,11.454354248046876,0.5792082934483885,0.557833643116802,-1.4068155936598776
1780626044721349000,11.46434912109375,0.8531126206070184,0.7254059858873486,-1.2626894467979668
1780626044731345200,11.47434521484375,0.5694044000536203,0.49443742187470197,-1.0010253002703189
1780626044741340200,11.484340087890626,0.2867752069085836,0.0015315934814512729,-0.7459265036076307
1780626044751335200,11.494335205078125,0.17880641509890555,-0.47802273203805085,-0.5733510918527841
1780626044761331200,11.504331298828125,-0.208205528062582,-0.7157227962628007,-0.3214315097481012
1780626044771326200,11.514326171875,-0.7108586973577737,-0.4623426400862634,0.18530162233710287
1780626044781321200,11.5243212890625,-1.3436580034792422,-0.010607464862614869,0.8336959724754095
1780626044791317200,11.534317138671875,-1.6147446428686378,0.26337811083868146,1.219782617485523
1780626044801312300,11.544312255859374,-1.0323881145223974,0.23225246634334323,1.4239672194689512
1780626044811308000,11.55430810546875,0.17355565496385097,0.13916180245280266,1.65440971378088
1780626044821303300,11.56430322265625,1.3125994328707455,0.014886311225593089,1.65560330747962
1780626044831298300,11.57429833984375,1.9815788903981446,-0.27911680110991,1.230695056644082
1780626044841294300,11.58429443359375,2.2709213174462315,-0.39242607716470956,0.6600771891474724
1780626044851289300,11.594289306640626,1.8543892652899026,-0.03769727797061205,0.2981272065281868
1780626044861285000,11.60428515625,0.9188356773614883,0.6128890292540192,0.055042672786116596
1780626044871280000,11.614280029296875,0.18289339215159414,1.3035355441883205,-0.17796470357775687
1780626044881275100,11.624275146484376,-0.3367956676185131,1.9758160890877245,-0.20659575477838515
1780626044891271400,11.634271484375,-0.6429103657692671,2.5186247431606055,0.0936766470849514
1780626044901266400,11.644266357421875,-0.7487216872841119,2.5689272356823087,0.4491612330824136
1780626044911261400,11.654261474609376,-0.4362281017512083,2.11841400346905,0.742298376238346
1780626044921257200,11.66425732421875,0.35505320884287356,1.390605924876034,0.978107950541377
1780626044931252200,11.674252197265625,1.1074842720389366,0.530896390222013,1.0255337185829878
1780626044941248300,11.684248291015624,1.0885375795066357,-0.33174510623067616,1.000282957470417
1780626044951243300,11.6942431640625,0.2609755797415972,-1.0420502613589167,1.0110247162371873
1780626044961238300,11.70423828125,-0.5962772094100713,-1.512052037896216,1.0330535926938056
1780626044971234300,11.714234375,-1.0495710122525692,-1.7141989965721964,1.062221819511056
1780626044981229300,11.724229248046875,-1.1362521013617515,-1.7066659707188605,1.1244207937926054
1780626044991224300,11.734224365234375,-0.795755241137743,-1.522187939724326,1.1098773046553134
1780626045001220400,11.744220458984374,-0.2704763985365629,-1.310648006542027,0.8707312794059514
1780626045011215000,11.754215087890625,0.11492401777505874,-1.2022305941820144,0.46709085752665996
1780626045021211100,11.764211181640626,0.2513186936020851,-1.1224714132905005,0.07159282557070255
1780626045031206400,11.774206298828124,0.125809568926692,-1.027068088543415,-0.17912790213823318
1780626045041201400,11.784201416015625,-0.3018734073191881,-0.839948310868442,-0.33677228674292564
1780626045051197200,11.794197265625,-1.1878268057763577,-0.7126017416328191,-0.40203006407320496
1780626045061192200,11.804192138671874,-1.5432242980122566,-0.33486469955593345,-0.0021101240217685697
1780626045071187200,11.814187255859375,-2.307208436357975,-0.28433102862685916,-0.15695172616541384
1780626045081183200,11.824183349609376,-2.1505624151408673,-0.3014806086093187,-0.4683119237542152
1780626045091178200,11.83417822265625,-2.4755226835370063,-0.18338263697326182,-1.6662047809928655
1780626045101174300,11.84417431640625,-0.7450000364124775,0.129502285964787,-2.2522084336698054
1780626045111169300,11.854169189453126,2.23278535579741,0.3939686304315924,-1.1972042904525995
1780626045121164300,11.864164306640625,3.29434608105123,0.7665197943031787,0.5004606276869774
1780626045131160300,11.874160400390625,2.038337719452381,0.6871618876889347,1.1464461631178855
1780626045141155300,11.8841552734375,0.2257949607670307,0.24435119267702102,0.6364934844642878
1780626045151151000,11.894151123046875,-0.49631344487965107,0.21098580643087625,0.42848669384419913
1780626045161146000,11.90414599609375,-0.3389356022566557,0.4544064402595162,0.6590244652241468
1780626045171141000,11.91414111328125,0.15549977379143237,0.4638274718165397,0.664742258349061
1780626045181137400,11.924137451171875,0.3189052061408758,0.10695669215768575,0.5273854594916105
1780626045191132400,11.93413232421875,0.21746786192655562,-0.22296762838661668,0.6173176593512296
1780626045201127200,11.944127197265624,-0.10370704271197319,-0.2927028433918953,0.941609819227457
1780626045211123200,11.954123291015625,-0.5252133761495351,-0.1281704528391361,1.1194389137268066
1780626045221118200,11.9641181640625,-0.6419885747492313,0.16116700577288864,0.8827280066698789
1780626045231114200,11.9741142578125,-0.4717413136810064,0.4492527107581496,0.28947920517027376
1780626045241109200,11.984109130859375,0.004710077387094497,0.85771631501019,-0.13708032000362871
1780626045251104300,11.994104248046876,0.6128232705414295,1.2486024692565203,-0.20449030693173406
1780626045261100300,12.004100341796875,0.9782283620506524,1.3918915807723997,-0.1682201391547918
1780626045271095300,12.01409521484375,0.8461421970725059,1.264834057611227,-0.09664601828455924
1780626045281090300,12.02409033203125,0.3150017689615488,1.1377619214028118,0.19140344634354114
1780626045291086000,12.034086181640625,0.16058569875359535,0.8138701590210199,0.408887674883008
1780626045301081000,12.0440810546875,0.2858312040567398,0.36236382411718365,0.6247890181452036
1780626045311077400,12.054077392578124,0.4785135842949152,0.027880525094270706,0.933245310986042
1780626045321072400,12.064072265625,0.5227420175999403,-0.2035521492987871,1.1589070007622242
1780626045331067400,12.0740673828125,0.35169396154284477,-0.3565361408770084,1.307005558386445
1780626045341063200,12.084063232421874,0.059814124971628184,-0.444945661213994,1.2947253380060195
1780626045351058200,12.09405810546875,-0.18792320301234722,-0.5581424168050289,1.1704156522482634
1780626045361053200,12.10405322265625,-0.11007248609066009,-0.6491220798909664,1.0162854132443666
1780626045371049200,12.11404931640625,0.19163725509941576,-0.6947972048729658,0.8659422915637492
1780626045381044200,12.124044189453125,0.5195914446145296,-0.7075994033008813,0.7091022090792656
1780626045391040300,12.134040283203126,0.8448790452688932,-0.6912474034368992,0.642058132854104
1780626045401035300,12.14403515625,1.0294073451459407,-0.5538070179492235,0.6298626681476831
1780626045411030300,12.1540302734375,0.8368786941647529,-0.22897300628125666,0.6504378386646509
1780626045421026300,12.1640263671875,0.276240953412652,0.13105857549607752,0.5502472796410321
1780626045431021300,12.174021240234374,-0.21253858883082866,0.2914472903728485,0.23526129277050495
1780626045441016300,12.184016357421875,-0.5266694201767445,0.3529980298787355,-0.1832914515584707
1780626045451012400,12.194012451171876,-0.46837680568397044,0.40282910549640655,-0.42256724066734314
1780626045461007400,12.20400732421875,-0.05597790780961513,0.38881460866928097,-0.46692134617865083
1780626045471003400,12.21400341796875,0.4726917462736368,0.2834954545855522,-0.45911154921054836
1780626045480998400,12.223998291015626,1.0247212331563234,0.20536182906925676,-0.4979746560901403
1780626045490993400,12.233993408203125,1.3367390178710221,0.27643384563624857,-0.5409527970731258
1780626045500989400,12.243989501953125,1.137452124801278,0.6047147828876972,-0.4063566951006651
1780626045510984400,12.253984375,0.5642641145557165,0.9739964235693216,-0.16606676051318645
1780626045520979500,12.2639794921875,-0.02860357867181301,0.8772282402098178,-0.2335854685127735
1780626045530975200,12.273975341796875,-0.6385311277717352,0.45119536925852294,-0.3946346931248903
1780626045540970200,12.28397021484375,-0.6820417681962251,0.052286652076244354,-0.3332552185326814
1780626045550966500,12.293966552734375,-0.12184651051461697,0.06051204410791397,-0.09371814813911915
1780626045560961500,12.30396142578125,1.3049743448197841,0.3383025650501251,0.08825228394865989
1780626045570956500,12.31395654296875,2.453480947598815,0.5853823059082031,-0.2803659243881702
1780626045580952300,12.323952392578125,1.8822855724751948,0.821602214577794,-1.097246371141076
1780626045590947300,12.333947265625,0.41717268814742564,0.919953283214569,-1.6648340771615504
1780626045600943400,12.343943359375,-1.5573492694765327,0.7957581637471913,-1.59469203492105
1780626045610938400,12.3539384765625,-3.0614737292438745,0.5143102893412113,-1.0874030225187539
1780626045620933400,12.363933349609376,-3.3051591514885423,0.20663842487633227,-0.38675124639868735
1780626045630929400,12.373929443359375,-2.210958723914623,-0.2796522231608629,0.34410131445676084
1780626045640924400,12.38392431640625,-0.3291916223555803,-0.8050929783254861,1.0083253941506147
1780626045650919400,12.39391943359375,0.3939291752040386,-1.083303770506382,1.4885159717470406
1780626045660915500,12.40391552734375,-0.5560428141772746,-1.031081415838003,1.54316175417006
1780626045670910500,12.413910400390625,-1.7923375905245542,-0.8480757954835891,1.3344552908480167
1780626045680905200,12.4239052734375,-2.5869875007689,-0.6581459288239478,1.3192980537265537
1780626045690901200,12.4339013671875,-2.5915444334208964,-0.4318044400900602,1.456015385636687
1780626045700896500,12.443896484375,-2.513219084724784,-0.25188831018358465,1.5488605503335595
1780626045710892500,12.453892578125,-2.67423148445785,-0.21965660414248703,1.6876947282671928
1780626045720887300,12.46388720703125,-2.4305051456809044,-0.3309127470597625,1.7115648486763237
1780626045730882300,12.47388232421875,-1.7459727297127245,-0.51893794914186,1.6593582760989665
1780626045740878300,12.48387841796875,-0.41645781787633895,-0.6715279729664325,1.477433436718583
1780626045750873300,12.493873291015625,0.5640004951834678,-0.7732102318525313,0.9633213002979755
1780626045760868400,12.503868408203125,0.2808417252063751,-0.5488201694473623,0.5660439837098121
1780626045770864400,12.513864501953124,-1.0940998898088932,-0.18551877221912144,0.6078600951761007
1780626045780859400,12.523859375,-2.2157506343662736,0.08828180230408907,1.003679029649496
1780626045790855400,12.53385546875,-2.064714854246378,0.14496552029550075,1.3379957399338482
1780626045800850400,12.543850341796874,-0.8011421948730945,-0.027587971888482568,1.4716121832191944
1780626045810845400,12.553845458984375,0.5271791232645512,-0.31920097421705723,1.15261111548841
1780626045820841200,12.56384130859375,0.29721067620515823,-0.5166138901084661,0.6415092667996883
