time,seconds_elapsed,z,y,x
1780626033312857600,0.055857666015625,-0.99835205078125,-0.263519287109375,0.0350189208984375
1780626033322853600,0.065853515625,-1.044830322265625,-0.2735748291015625,-0.004150390625
1780626033332849000,0.075848876953125,-1.0522918701171875,-0.28564453125,-0.02679443359375
1780626033342843600,0.08584375,-1.0406341552734375,-0.3065032958984375,-0.038360595703125
1780626033352839700,0.095839599609375,-1.01202392578125,-0.3229522705078125,-0.0443115234375
1780626033362834700,0.105834716796875,-0.978424072265625,-0.3211517333984375,-0.047698974609375
1780626033372830700,0.115830810546875,-0.97564697265625,-0.2994384765625,-0.0340118408203125
1780626033382825700,0.12582568359375,-1.058868408203125,-0.2160186767578125,0.003448486328125
1780626033392820500,0.135820556640625,-1.1084136962890625,-0.1229248046875,0.061798095703125
1780626033402816800,0.145816650390625,-1.0419769287109375,-0.1291046142578125,0.13323974609375
1780626033412811800,0.155811767578125,-0.90325927734375,-0.233489990234375,0.1597442626953125
1780626033422806800,0.165806884765625,-0.79168701171875,-0.3211822509765625,0.139556884765625
1780626033432802600,0.175802490234375,-0.741668701171875,-0.3352813720703125,0.1041717529296875
1780626033442797000,0.185797119140625,-0.8040771484375,-0.2632293701171875,0.1248779296875
1780626033452793000,0.19579296875,-0.9297027587890625,-0.2943115234375,0.0929718017578125
1780626033462788000,0.2057880859375,-0.9945526123046875,-0.2848052978515625,0.021636962890625
1780626033472783000,0.215783203125,-1.07757568359375,-0.270904541015625,-0.030120849609375
1780626033482779100,0.225779052734375,-1.1311798095703125,-0.2534027099609375,-0.0515899658203125
1780626033492774000,0.23577392578125,-1.098175048828125,-0.2588653564453125,-0.0404510498046875
1780626033502770000,0.24577001953125,-0.99676513671875,-0.283966064453125,-0.030517578125
1780626033512765000,0.255764892578125,-0.850250244140625,-0.3419952392578125,-0.0282135009765625
1780626033522760000,0.265760009765625,-0.7247772216796875,-0.3429107666015625,-0.0107879638671875
1780626033532756000,0.275755859375,-0.6758880615234375,-0.2326202392578125,0.0570068359375
1780626033542751000,0.2857509765625,-0.7331390380859375,-0.21343994140625,0.10675048828125
1780626033552746000,0.29574609375,-0.7935638427734375,-0.20281982421875,0.1563720703125
1780626033562742000,0.305741943359375,-0.8461456298828125,-0.215484619140625,0.1749267578125
1780626033572737000,0.315737060546875,-0.99542236328125,-0.2515869140625,0.12603759765625
1780626033582732800,0.32573291015625,-1.0946044921875,-0.334564208984375,0.01611328125
1780626033592727800,0.335727783203125,-1.05877685546875,-0.43768310546875,-0.12091064453125
1780626033602723000,0.34572314453125,-1.0149993896484375,-0.540252685546875,-0.2563629150390625
1780626033612719000,0.355718994140625,-1.0044097900390625,-0.5986328125,-0.3271331787109375
1780626033622714000,0.365714111328125,-0.973907470703125,-0.5945892333984375,-0.3231964111328125
1780626033632710000,0.3757099609375,-0.939300537109375,-0.5140380859375,-0.255706787109375
1780626033642705000,0.385704833984375,-0.913726806640625,-0.4359893798828125,-0.172332763671875
1780626033652700000,0.395699951171875,-0.88385009765625,-0.390960693359375,-0.093841552734375
1780626033662696200,0.4056962890625,-0.8379669189453125,-0.36871337890625,-0.0314178466796875
1780626033672691200,0.415691162109375,-0.8126220703125,-0.3633270263671875,0.0030364990234375
1780626033682686200,0.425686279296875,-0.871063232421875,-0.3665008544921875,0.000396728515625
1780626033692682000,0.435681884765625,-0.96026611328125,-0.3846282958984375,-0.0374755859375
1780626033702677000,0.445677001953125,-0.9983673095703125,-0.421173095703125,-0.059967041015625
1780626033712673000,0.455673095703125,-0.9751739501953125,-0.4571380615234375,-0.0809783935546875
1780626033722668000,0.46566796875,-0.904266357421875,-0.4711456298828125,-0.096405029296875
1780626033732663000,0.4756630859375,-0.8505096435546875,-0.45660400390625,-0.0821380615234375
1780626033742659000,0.4856591796875,-0.831085205078125,-0.4214324951171875,-0.04132080078125
1780626033752654000,0.495654052734375,-0.8491973876953125,-0.3666229248046875,0.0034027099609375
1780626033762650000,0.505650146484375,-0.8595733642578125,-0.3269805908203125,0.0311126708984375
1780626033772645000,0.51564501953125,-0.8560638427734375,-0.3420562744140625,0.059783935546875
1780626033782639900,0.525639892578125,-0.8631439208984375,-0.39105224609375,0.08111572265625
1780626033792636000,0.535635986328125,-0.919219970703125,-0.3803558349609375,0.0556640625
1780626033802631000,0.545630859375,-1.0408782958984375,-0.286407470703125,0.122955322265625
1780626033812626200,0.555626220703125,-1.07000732421875,-0.2462005615234375,0.07781982421875
1780626033822622000,0.5656220703125,-0.9032440185546875,-0.241241455078125,0.03448486328125
1780626033832617000,0.575616943359375,-0.78033447265625,-0.251068115234375,0.0785980224609375
1780626033842613000,0.585613037109375,-0.77874755859375,-0.3796539306640625,0.145050048828125
1780626033852608000,0.59560791015625,-0.8291168212890625,-0.467132568359375,0.18621826171875
1780626033862603000,0.60560302734375,-0.86700439453125,-0.4497528076171875,0.13995361328125
1780626033872599000,0.61559912109375,-0.8627777099609375,-0.3329620361328125,0.10009765625
1780626033882594000,0.625593994140625,-1.0345458984375,-0.4210662841796875,-0.0260772705078125
1780626033892589000,0.635589111328125,-1.093353271484375,-0.4575042724609375,-0.08221435546875
1780626033902585000,0.645585205078125,-1.0401153564453125,-0.42938232421875,-0.06634521484375
1780626033912580000,0.655580078125,-0.9581298828125,-0.487945556640625,-0.018798828125
1780626033922576000,0.665575927734375,-0.836456298828125,-0.5244598388671875,0.018402099609375
1780626033932571000,0.67557080078125,-0.76007080078125,-0.510223388671875,-0.0070953369140625
1780626033942566000,0.68556591796875,-0.7540283203125,-0.510223388671875,-0.0511627197265625
1780626033952562200,0.695562255859375,-0.770782470703125,-0.4978485107421875,-0.0926513671875
1780626033962557200,0.70555712890625,-0.8193206787109375,-0.46875,-0.1014556884765625
1780626033972553000,0.715552978515625,-0.886962890625,-0.4417266845703125,-0.0618743896484375
1780626033982548000,0.7255478515625,-0.9300079345703125,-0.4308624267578125,-0.0026397705078125
1780626033992543000,0.73554296875,-0.9318389892578125,-0.4062042236328125,0.0356903076171875
1780626034002539000,0.7455390625,-0.837921142578125,-0.36163330078125,0.0526123046875
1780626034012534000,0.755533935546875,-0.786468505859375,-0.3324737548828125,0.070556640625
1780626034022529000,0.765529052734375,-0.8074188232421875,-0.3025970458984375,0.0790557861328125
1780626034032525000,0.775525146484375,-0.8047637939453125,-0.2537994384765625,0.0690155029296875
1780626034042520000,0.78552001953125,-0.78472900390625,-0.1774139404296875,0.00537109375
1780626034052516000,0.79551611328125,-0.7272796630859375,-0.1531219482421875,-0.0520782470703125
1780626034062510800,0.8055107421875,-0.77978515625,-0.2303009033203125,0.064361572265625
1780626034072505900,0.815505859375,-0.939300537109375,-0.156036376953125,0.0960235595703125
1780626034082502100,0.825502197265625,-1.01251220703125,-0.0365142822265625,0.026580810546875
1780626034092497200,0.8354970703125,-1.1579742431640625,-0.3004608154296875,-0.1272735595703125
1780626034102493000,0.845492919921875,-1.12396240234375,-0.5054473876953125,-0.1353912353515625
1780626034112488000,0.855488037109375,-1.06060791015625,-0.571441650390625,-0.1488800048828125
1780626034122483000,0.86548291015625,-0.9820709228515625,-0.5589447021484375,-0.1631011962890625
1780626034132479000,0.87547900390625,-0.8567047119140625,-0.489501953125,-0.168853759765625
1780626034142474000,0.885473876953125,-0.81512451171875,-0.478851318359375,-0.1030426025390625
1780626034152469000,0.895468994140625,-0.813751220703125,-0.4855194091796875,-0.0142364501953125
1780626034162465000,0.905465087890625,-0.790252685546875,-0.4730682373046875,0.028350830078125
1780626034172460000,0.9154599609375,-0.8471832275390625,-0.493072509765625,-0.0186004638671875
1780626034182456000,0.9254560546875,-0.936767578125,-0.494171142578125,-0.0508270263671875
1780626034192451000,0.935451171875,-0.9681549072265625,-0.51348876953125,-0.1344451904296875
1780626034202446000,0.945446044921875,-0.931640625,-0.5654449462890625,-0.2146759033203125
1780626034212441900,0.95544189453125,-0.809234619140625,-0.493560791015625,-0.1753387451171875
1780626034222436900,0.965436767578125,-0.7699432373046875,-0.460235595703125,0.11126708984375
1780626034232433200,0.97543310546875,-0.75799560546875,-0.4057464599609375,-0.0255584716796875
1780626034242428200,0.98542822265625,-0.751800537109375,-0.3320465087890625,-0.238525390625
1780626034252423200,0.995423095703125,-0.788330078125,-0.3668060302734375,-0.261749267578125
1780626034262419000,1.0054189453125,-0.8741607666015625,-0.4433135986328125,-0.274383544921875
1780626034272414000,1.0154140625,-1.0309295654296875,-0.4499359130859375,-0.297149658203125
1780626034282409000,1.025408935546875,-1.119537353515625,-0.463592529296875,-0.3183746337890625
1780626034292405000,1.035405029296875,-1.1126251220703125,-0.443359375,-0.3345184326171875
1780626034302400000,1.04539990234375,-1.07763671875,-0.464019775390625,-0.3712158203125
1780626034312396000,1.05539599609375,-1.0043792724609375,-0.5247650146484375,-0.386138916015625
1780626034322391000,1.06539111328125,-0.947479248046875,-0.5304107666015625,-0.3660888671875
1780626034332386000,1.075385986328125,-0.92120361328125,-0.4960479736328125,-0.3656158447265625
1780626034342382000,1.085382080078125,-0.920013427734375,-0.459075927734375,-0.3867034912109375
1780626034352376800,1.095376953125,-0.9116668701171875,-0.4383392333984375,-0.3736724853515625
1780626034362371800,1.105371826171875,-0.858734130859375,-0.3969879150390625,-0.3170928955078125
1780626034372368100,1.1153681640625,-0.7609405517578125,-0.2085723876953125,-0.16748046875
1780626034382363100,1.125363037109375,-0.639129638671875,0.067138671875,0.00164794921875
1780626034392359000,1.13535888671875,-0.5580596923828125,-0.092193603515625,-0.0547332763671875
1780626034402354000,1.14535400390625,-0.528594970703125,-0.2225494384765625,-0.0537567138671875
1780626034412349000,1.155348876953125,-0.5028533935546875,-0.218475341796875,-0.1233978271484375
1780626034422345000,1.165344970703125,-0.5246429443359375,-0.2447052001953125,-0.2140655517578125
1780626034432340000,1.175340087890625,-0.6362457275390625,-0.2813568115234375,-0.2926025390625
1780626034442336300,1.185336181640625,-0.846954345703125,-0.360076904296875,-0.3543243408203125
1780626034452331300,1.195331298828125,-0.9972686767578125,-0.42022705078125,-0.4140167236328125
1780626034462326300,1.205326171875,-1.0827484130859375,-0.4384613037109375,-0.4147796630859375
1780626034472322300,1.215322265625,-1.12890625,-0.40869140625,-0.3603363037109375
1780626034482317300,1.2253173828125,-1.10455322265625,-0.36480712890625,-0.31524658203125
1780626034492312300,1.235312255859375,-1.0053863525390625,-0.27349853515625,-0.2795257568359375
1780626034502308400,1.245308349609375,-0.92852783203125,-0.1685333251953125,-0.2532806396484375
1780626034512303400,1.255303466796875,-0.843780517578125,-0.0666351318359375,-0.1121063232421875
1780626034522299400,1.26529931640625,-0.7937164306640625,-0.0234527587890625,-0.07391357421875
1780626034532294400,1.27529443359375,-0.72454833984375,-0.0039825439453125,-0.057220458984375
1780626034542289200,1.2852890625,-0.6490478515625,-0.056121826171875,-0.074066162109375
1780626034552285200,1.29528515625,-0.6077728271484375,-0.1318817138671875,-0.15728759765625
1780626034562280200,1.3052802734375,-0.6576995849609375,-0.1750335693359375,-0.2096099853515625
1780626034572276500,1.3152763671875,-0.75335693359375,-0.151214599609375,-0.219268798828125
1780626034582271200,1.325271240234375,-0.819610595703125,-0.0672607421875,-0.2216339111328125
1780626034592266200,1.335266357421875,-0.8528289794921875,-0.0296478271484375,-0.252593994140625
1780626034602262300,1.34526220703125,-0.8662567138671875,-0.041534423828125,-0.289886474609375
1780626034612257300,1.35525732421875,-0.8302001953125,-0.0527191162109375,-0.2622528076171875
1780626034622252300,1.365252197265625,-0.754791259765625,-0.0273590087890625,-0.244598388671875
1780626034632248000,1.375248046875,-0.6911468505859375,-0.0084381103515625,-0.2545928955078125
1780626034642243000,1.3852431640625,-0.623291015625,-0.026641845703125,-0.2654266357421875
1780626034652239400,1.3952392578125,-0.5950164794921875,-0.09442138671875,-0.3141937255859375
1780626034662234400,1.405234375,-0.638031005859375,-0.204315185546875,-0.43963623046875
1780626034672229400,1.4152294921875,-0.6815032958984375,-0.26873779296875,-0.5622406005859375
1780626034682225200,1.42522509765625,-0.6714935302734375,-0.22271728515625,-0.6131591796875
1780626034692220200,1.43522021484375,-0.6616058349609375,-0.1044921875,-0.6349945068359375
1780626034702216200,1.44521630859375,-0.7384033203125,0.0558624267578125,-0.61181640625
1780626034712211500,1.45521142578125,-0.7219696044921875,0.2960205078125,-0.668426513671875
1780626034722206500,1.46520654296875,-0.6127471923828125,0.2856903076171875,-0.4040374755859375
1780626034732202200,1.4752021484375,-0.689300537109375,0.0606231689453125,-0.0576934814453125
1780626034742197200,1.485197265625,-0.613433837890625,0.1047210693359375,-0.29766845703125
1780626034752192300,1.495192138671875,-0.5513153076171875,0.2109222412109375,-0.56231689453125
1780626034762188300,1.505188232421875,-0.5686492919921875,0.165618896484375,-0.668304443359375
1780626034772183300,1.515183349609375,-0.6158294677734375,0.1190643310546875,-0.688262939453125
1780626034782179300,1.525179443359375,-0.603546142578125,0.2177581787109375,-0.6485595703125
1780626034792174300,1.53517431640625,-0.530487060546875,0.3482666015625,-0.6002960205078125
1780626034802169300,1.54516943359375,-0.4530487060546875,0.4256744384765625,-0.553436279296875
1780626034812165400,1.555165283203125,-0.402801513671875,0.455657958984375,-0.54803466796875
1780626034822160100,1.56516015625,-0.3922882080078125,0.4906005859375,-0.5904693603515625
1780626034832156200,1.57515625,-0.398345947265625,0.5159454345703125,-0.6645355224609375
1780626034842151200,1.585151123046875,-0.389129638671875,0.491943359375,-0.7929229736328125
1780626034852146200,1.595146240234375,-0.4212799072265625,0.4535064697265625,-0.91558837890625
1780626034862142200,1.60514208984375,-0.4537506103515625,0.4683837890625,-0.9924468994140625
1780626034872137200,1.61513720703125,-0.466339111328125,0.5268402099609375,-1.0540313720703125
1780626034882132200,1.62513232421875,-0.4518585205078125,0.5593719482421875,-1.0824432373046875
1780626034892128300,1.635128173828125,-0.4505615234375,0.58905029296875,-1.16949462890625
1780626034902123300,1.645123291015625,-0.498443603515625,0.643096923828125,-1.2938079833984375
1780626034912119000,1.655119140625,-0.5348968505859375,0.6627960205078125,-1.34246826171875
1780626034922114300,1.6651142578125,-0.53131103515625,0.649322509765625,-1.383270263671875
1780626034932109300,1.675109375,-0.47491455078125,0.642913818359375,-1.4389495849609375
1780626034942105300,1.685105224609375,-0.41168212890625,0.5986175537109375,-1.57470703125
1780626034952100400,1.695100341796875,-0.3695220947265625,0.4963531494140625,-1.728424072265625
1780626034962095400,1.705095458984375,-0.380859375,0.42724609375,-1.865203857421875
1780626034972091100,1.715091064453125,-0.4434051513671875,0.4188232421875,-1.94940185546875
1780626034982086100,1.725086181640625,-0.4068450927734375,0.4791107177734375,-1.92803955078125
1780626034992082400,1.73508251953125,-0.2678680419921875,0.5845184326171875,-1.7779388427734375
1780626035002077400,1.745077392578125,-0.1399383544921875,0.616668701171875,-1.65234375
1780626035012072400,1.755072509765625,-0.1307373046875,0.6070098876953125,-1.5345306396484375
1780626035022068200,1.765068115234375,-0.22369384765625,0.5547943115234375,-1.5635986328125
1780626035032063200,1.775063232421875,-0.2918701171875,0.45111083984375,-1.6808013916015625
1780626035042059300,1.785059326171875,-0.239013671875,0.38873291015625,-1.6842803955078125
1780626035052054300,1.79505419921875,-0.0823516845703125,0.3740692138671875,-1.6100921630859375
1780626035062049000,1.805049072265625,0.031280517578125,0.3299102783203125,-1.47235107421875
1780626035072045300,1.81504541015625,-0.0105743408203125,0.3387298583984375,-1.3407745361328125
1780626035082040300,1.825040283203125,-0.0609283447265625,0.4058074951171875,-1.2501220703125
1780626035092035300,1.835035400390625,-0.0896453857421875,0.45855712890625,-1.1284637451171875
1780626035102031000,1.845031005859375,-0.1177520751953125,0.4743804931640625,-1.02825927734375
1780626035112026000,1.855026123046875,-0.16424560546875,0.4776153564453125,-0.979705810546875
1780626035122022100,1.865022216796875,-0.187896728515625,0.479949951171875,-0.9429779052734375
1780626035132017400,1.875017333984375,-0.202880859375,0.48077392578125,-0.9170074462890625
1780626035142012400,1.885012451171875,-0.2098236083984375,0.47076416015625,-0.9264678955078125
1780626035152008200,1.89500830078125,-0.1550445556640625,0.4410400390625,-0.946685791015625
1780626035162003200,1.905003173828125,-0.07586669921875,0.4327850341796875,-0.893585205078125
1780626035171999200,1.914999267578125,-0.157623291015625,0.4384765625,-0.8652496337890625
1780626035181994200,1.924994140625,-0.4004669189453125,0.4122772216796875,-0.923736572265625
1780626035191989200,1.9349892578125,-0.60296630859375,0.4615631103515625,-0.96624755859375
1780626035201985300,1.9449853515625,-0.571014404296875,0.5833282470703125,-0.88623046875
1780626035211980300,1.954980224609375,-0.3671417236328125,0.6806793212890625,-0.698883056640625
1780626035221975300,1.964975341796875,-0.2357330322265625,0.6318359375,-0.6287994384765625
1780626035231971300,1.974971435546875,-0.2211151123046875,0.4845123291015625,-0.6837615966796875
1780626035241966300,1.98496630859375,-0.305572509765625,0.3615875244140625,-0.7479705810546875
1780626035251962000,1.994962158203125,-0.4276580810546875,0.3234100341796875,-0.790496826171875
1780626035261957000,2.00495703125,-0.515777587890625,0.3412017822265625,-0.7564239501953125
1780626035271952100,2.0149521484375,-0.5609130859375,0.4206390380859375,-0.7285003662109375
1780626035281948400,2.024948486328125,-0.556396484375,0.5318756103515625,-0.713165283203125
1780626035291943400,2.034943359375,-0.5099639892578125,0.4760284423828125,-0.72015380859375
1780626035301939200,2.044939208984375,-0.614715576171875,0.328643798828125,-0.8057098388671875
1780626035311934200,2.054934326171875,-0.6494903564453125,0.17132568359375,-0.8641510009765625
1780626035321929200,2.06492919921875,-0.5654296875,0.086181640625,-0.8316192626953125
1780626035331925200,2.07492529296875,-0.265838623046875,0.1882781982421875,-0.6462860107421875
1780626035341920300,2.084920166015625,0.4112091064453125,0.317138671875,-0.264556884765625
1780626035351916300,2.094916259765625,0.78570556640625,0.3318939208984375,-0.114044189453125
1780626035361911300,2.104911376953125,0.2346649169921875,0.2886199951171875,-0.3538970947265625
1780626035371906300,2.11490625,-0.467864990234375,0.2644195556640625,-0.64312744140625
1780626035381902300,2.12490234375,-0.5169830322265625,0.2108306884765625,-0.726348876953125
1780626035391897000,2.13489697265625,-0.3267059326171875,0.1171417236328125,-0.7113037109375
1780626035401892000,2.14489208984375,-0.1953277587890625,0.112701416015625,-0.69818115234375
1780626035411888400,2.154888427734375,-0.2266082763671875,0.1031036376953125,-0.7647705078125
1780626035421883400,2.16488330078125,-0.3645172119140625,0.0485992431640625,-0.850982666015625
1780626035431879200,2.174879150390625,-0.5305023193359375,0.0174407958984375,-0.92730712890625
1780626035441873700,2.184873779296875,-0.6135406494140625,0.0570831298828125,-0.9390411376953125
1780626035451868700,2.19486865234375,-0.5529022216796875,0.149139404296875,-0.889984130859375
1780626035461864700,2.20486474609375,-0.491790771484375,0.18731689453125,-0.817901611328125
1780626035471859700,2.214859619140625,-0.4026336669921875,0.1120147705078125,-0.8196563720703125
1780626035481855700,2.224855712890625,-0.3762359619140625,0.054351806640625,-0.78216552734375
1780626035491850800,2.234850830078125,-0.335662841796875,0.0931243896484375,-0.74554443359375
1780626035501845800,2.244845703125,-0.2813262939453125,0.146087646484375,-0.718017578125
1780626035511841800,2.254841796875,-0.26556396484375,0.174774169921875,-0.7014312744140625
1780626035521836800,2.2648369140625,-0.2648162841796875,0.1849212646484375,-0.7251434326171875
1780626035531831800,2.274831787109375,-0.302337646484375,0.1508941650390625,-0.7640838623046875
1780626035541827600,2.28482763671875,-0.272125244140625,0.11328125,-0.8277740478515625
1780626035551822600,2.294822509765625,-0.23388671875,-0.1679840087890625,-0.9830780029296875
1780626035561819000,2.30481884765625,-0.60296630859375,-0.021148681640625,-1.0699920654296875
1780626035571814000,2.31481396484375,-0.580780029296875,0.1196136474609375,-0.8210296630859375
1780626035581809000,2.324808837890625,-0.4012908935546875,0.1492919921875,-0.82763671875
1780626035591804700,2.3348046875,-0.2486724853515625,0.142547607421875,-0.8582763671875
1780626035601799700,2.344799560546875,-0.14093017578125,0.172515869140625,-0.881866455078125
1780626035611795700,2.354795654296875,-0.132476806640625,0.2095489501953125,-0.8823699951171875
1780626035621790700,2.364790771484375,-0.1142578125,0.248504638671875,-0.8554840087890625
1780626035631786000,2.374785888671875,-0.1229705810546875,0.2296142578125,-0.8055572509765625
1780626035641781800,2.38478173828125,-0.1394500732421875,0.196563720703125,-0.8014068603515625
1780626035651776800,2.39477685546875,-0.1583404541015625,0.1945343017578125,-0.8331451416015625
1780626035661771800,2.404771728515625,-0.2198028564453125,0.2041473388671875,-0.871490478515625
1780626035671767800,2.414767822265625,-0.3094024658203125,0.1384429931640625,-0.823028564453125
1780626035681762800,2.4247626953125,-0.4371795654296875,0.0796966552734375,-0.8901824951171875
1780626035691758800,2.4347587890625,-0.5299072265625,0.165252685546875,-0.94683837890625
1780626035701753900,2.44475390625,-0.531036376953125,0.307037353515625,-0.849853515625
1780626035711748900,2.454748779296875,-0.5379486083984375,0.3470306396484375,-0.7764129638671875
1780626035721745000,2.464744873046875,-0.5430145263671875,0.3357086181640625,-0.78350830078125
1780626035731739600,2.47473974609375,-0.5224456787109375,0.3682098388671875,-0.8075408935546875
1780626035741735700,2.484735595703125,-0.3993377685546875,0.3939666748046875,-0.7738037109375
1780626035751730700,2.494730712890625,-0.2049713134765625,0.3809661865234375,-0.7868194580078125
1780626035761725700,2.5047255859375,-0.139862060546875,0.3258056640625,-0.882049560546875
1780626035771721700,2.5147216796875,-0.103363037109375,0.3164520263671875,-1.005615234375
1780626035781716700,2.524716796875,-0.04766845703125,0.34893798828125,-1.086090087890625
1780626035791712800,2.534712646484375,-0.086578369140625,0.38092041015625,-1.2220916748046875
1780626035801707800,2.544707763671875,-0.2341156005859375,0.4092254638671875,-1.49530029296875
1780626035811702800,2.554702880859375,-0.3124237060546875,0.38165283203125,-1.4310760498046875
1780626035821698600,2.564698486328125,-0.2797393798828125,0.439727783203125,-1.2817230224609375
1780626035831693600,2.574693603515625,-0.26409912109375,0.5229034423828125,-1.1911468505859375
1780626035841688800,2.584688720703125,-0.23956298828125,0.5146331787109375,-1.1496734619140625
1780626035851684900,2.594684814453125,-0.1785125732421875,0.506317138671875,-1.0483245849609375
1780626035861679900,2.604679931640625,-0.135589599609375,0.5129547119140625,-0.992584228515625
1780626035871675600,2.614675537109375,-0.1652984619140625,0.480377197265625,-1.048828125
1780626035881670700,2.624670654296875,-0.22662353515625,0.4094390869140625,-1.1162109375
1780626035891665700,2.634665771484375,-0.232757568359375,0.368377685546875,-1.1092376708984375
1780626035901662000,2.644661865234375,-0.07293701171875,0.3291168212890625,-1.0038299560546875
1780626035911657000,2.654656982421875,-0.05426025390625,0.2866363525390625,-0.8256072998046875
1780626035921652700,2.66465283203125,0.002960205078125,0.268951416015625,-0.80865478515625
1780626035931647700,2.674647705078125,0.0341796875,0.31964111328125,-0.772003173828125
1780626035941642800,2.684642822265625,-0.070892333984375,0.3008575439453125,-0.81365966796875
1780626035951638800,2.694638671875,-0.1485595703125,0.2934112548828125,-0.861785888671875
1780626035961633800,2.7046337890625,-0.0774993896484375,0.28814697265625,-0.8637847900390625
1780626035971629800,2.7146298828125,0.027923583984375,0.288818359375,-0.8062744140625
1780626035981624800,2.724624755859375,0.034149169921875,0.2882843017578125,-0.7453460693359375
1780626035991619800,2.734619873046875,0.1292572021484375,0.32550048828125,-0.7795257568359375
1780626036001616000,2.744615966796875,0.101318359375,0.341888427734375,-0.84869384765625
1780626036011610600,2.754610595703125,0.0509033203125,0.2735748291015625,-0.9243011474609375
1780626036021605600,2.764605712890625,0.0740814208984375,0.31939697265625,-0.931365966796875
1780626036031601700,2.7746015625,0.1446533203125,0.3224945068359375,-0.9205780029296875
1780626036041596700,2.7845966796875,0.109222412109375,0.2664794921875,-0.912078857421875
1780626036051592700,2.7945927734375,0.092132568359375,0.361907958984375,-0.8358612060546875
1780626036061587700,2.804587646484375,0.1341094970703125,0.3838348388671875,-0.7608184814453125
1780626036071582700,2.814582763671875,0.0835113525390625,0.4369659423828125,-0.7582244873046875
1780626036081578800,2.824578857421875,-0.011322021484375,0.4299468994140625,-0.7869415283203125
1780626036091573800,2.83457373046875,-0.0354766845703125,0.47454833984375,-0.7404327392578125
1780626036101569500,2.844569580078125,-0.09515380859375,0.56231689453125,-0.6932830810546875
1780626036111564800,2.854564697265625,-0.1016693115234375,0.5949554443359375,-0.6927337646484375
1780626036121559800,2.864559814453125,-0.0957183837890625,0.565216064453125,-0.68243408203125
1780626036131555800,2.874555908203125,-0.115020751953125,0.5357513427734375,-0.658203125
1780626036141550800,2.88455078125,-0.04205322265625,0.5348358154296875,-0.634857177734375
1780626036151546600,2.894546630859375,-0.0085296630859375,0.5400848388671875,-0.606719970703125
1780626036161541600,2.904541748046875,-0.022430419921875,0.558563232421875,-0.5717010498046875
1780626036171536600,2.91453662109375,-0.0518341064453125,0.5892333984375,-0.540283203125
1780626036181533000,2.924532958984375,-0.0638275146484375,0.60198974609375,-0.527099609375
1780626036191528000,2.93452783203125,0.0048675537109375,0.6394805908203125,-0.5433349609375
1780626036201523000,2.94452294921875,0.16424560546875,0.691619873046875,-0.580108642578125
1780626036211518700,2.954518798828125,0.281219482421875,0.6761016845703125,-0.6466217041015625
1780626036221513700,2.964513671875,0.383453369140625,0.6976318359375,-0.7068634033203125
1780626036231509800,2.974509765625,0.365478515625,0.93902587890625,-0.66729736328125
1780626036241504800,2.9845048828125,0.114501953125,1.130126953125,-0.6333160400390625
1780626036251499800,2.994499755859375,0.0943450927734375,1.1719207763671875,-0.6808624267578125
1780626036261495800,3.004495849609375,0.026458740234375,1.03717041015625,-0.771270751953125
1780626036271490800,3.01449072265625,-0.163055419921875,0.9169921875,-0.813751220703125
1780626036281486800,3.02448681640625,-0.175048828125,0.8320159912109375,-0.7917633056640625
1780626036291481900,3.03448193359375,-0.1138153076171875,0.853240966796875,-0.6804046630859375
1780626036301476600,3.0444765625,-0.061370849609375,0.932830810546875,-0.5896453857421875
1780626036311472600,3.05447265625,0.0146636962890625,0.892425537109375,-0.578857421875
1780626036321468000,3.064468017578125,0.0653839111328125,0.8302764892578125,-0.59039306640625
1780626036331464000,3.0744638671875,0.1301727294921875,0.745361328125,-0.6227569580078125
1780626036341458700,3.084458740234375,0.2394866943359375,0.6869354248046875,-0.6085662841796875
1780626036351453700,3.09445361328125,0.35687255859375,0.6149444580078125,-0.5609130859375
1780626036361449700,3.10444970703125,0.2577667236328125,0.5496978759765625,-0.5784912109375
1780626036371444700,3.11444482421875,0.1642303466796875,0.649322509765625,-0.50518798828125
1780626036381439700,3.124439697265625,0.0405731201171875,0.7836761474609375,-0.4815216064453125
1780626036391435800,3.134435791015625,-0.3482513427734375,0.851409912109375,-0.521820068359375
1780626036401430800,3.1444306640625,-0.2253875732421875,0.9501190185546875,-0.5102996826171875
1780626036411426800,3.1544267578125,0.0588531494140625,0.9591064453125,-0.5582122802734375
1780626036421421800,3.164421875,-0.0592803955078125,0.8665313720703125,-0.67315673828125
1780626036431416800,3.174416748046875,-0.1561279296875,0.8788909912109375,-0.7128143310546875
1780626036441412600,3.18441259765625,-0.1515960693359375,0.9574127197265625,-0.6414947509765625
1780626036451408600,3.19440869140625,-0.079193115234375,0.9839630126953125,-0.5242919921875
1780626036461404700,3.20440478515625,0.0813446044921875,0.9390106201171875,-0.4170074462890625
1780626036471399700,3.214399658203125,0.1736907958984375,0.798187255859375,-0.385589599609375
1780626036481394700,3.224394775390625,0.3861083984375,0.6177825927734375,-0.4269561767578125
1780626036491390700,3.234390625,0.404296875,0.6091766357421875,-0.378997802734375
1780626036501385700,3.2443857421875,0.1446075439453125,0.6927490234375,-0.25567626953125
1780626036511381500,3.254381591796875,-0.0395355224609375,0.734954833984375,-0.1711578369140625
1780626036521376500,3.26437646484375,-0.103485107421875,0.7193450927734375,-0.1434478759765625
1780626036531371500,3.27437158203125,-0.0438232421875,0.6943817138671875,-0.1324920654296875
1780626036541367800,3.284367919921875,0.0381011962890625,0.691009521484375,-0.1318817138671875
1780626036551362800,3.29436279296875,0.0664215087890625,0.69647216796875,-0.1125030517578125
1780626036561358600,3.304358642578125,0.042938232421875,0.71282958984375,-0.086212158203125
1780626036571353600,3.314353515625,0.0151214599609375,0.72369384765625,-0.075042724609375
1780626036581348600,3.3243486328125,0.005859375,0.7163543701171875,-0.05218505859375
1780626036591344600,3.3343447265625,0.03424072265625,0.6855926513671875,-0.009735107421875
1780626036601339600,3.344339599609375,0.032379150390625,0.6148223876953125,0.0279541015625
1780626036611334700,3.354334716796875,-0.0098114013671875,0.5117950439453125,0.0477294921875
1780626036621330700,3.36433056640625,-0.121124267578125,0.4429931640625,0.1106109619140625
1780626036631325700,3.37432568359375,-0.16015625,0.4078521728515625,0.104278564453125
1780626036641321700,3.38432177734375,-0.2891845703125,0.378326416015625,0.076507568359375
1780626036651316700,3.394316650390625,-0.3666534423828125,0.3421630859375,0.0509185791015625
1780626036661311700,3.404311767578125,-0.3127288818359375,0.405670166015625,0.0587310791015625
1780626036671307500,3.4143076171875,-0.12060546875,0.7946929931640625,0.144012451171875
1780626036681302800,3.424302734375,0.0302276611328125,1.5394134521484375,0.4285430908203125
1780626036691298800,3.434298828125,0.0271453857421875,2.551910400390625,0.897705078125
1780626036701293800,3.4442939453125,-0.067840576171875,3.3521881103515625,1.3307342529296875
1780626036711288600,3.45428857421875,-0.1171112060546875,3.5115203857421875,1.404693603515625
1780626036721284600,3.46428466796875,-0.0499420166015625,2.7019195556640625,0.8558349609375
1780626036731279600,3.474279541015625,0.1815338134765625,1.4813995361328125,0.0245361328125
1780626036741276000,3.48427587890625,0.24481201171875,0.9255828857421875,-0.4736785888671875
1780626036751270700,3.494270751953125,0.149658203125,0.6927337646484375,-0.5157623291015625
1780626036761265700,3.504265625,0.0361175537109375,0.5343780517578125,-0.3482208251953125
1780626036771261700,3.51426171875,-0.1194610595703125,0.59893798828125,-0.0675048828125
1780626036781256700,3.524256591796875,-0.2843475341796875,0.7905426025390625,0.26025390625
1780626036791252700,3.534252685546875,-0.33746337890625,0.9389190673828125,0.5264892578125
1780626036801247500,3.54424755859375,-0.24591064453125,0.9699554443359375,0.66162109375
1780626036811242500,3.554242431640625,-0.0750732421875,0.9276275634765625,0.647369384765625
1780626036821238800,3.56423876953125,0.0294342041015625,0.8879852294921875,0.534454345703125
1780626036831233800,3.57423388671875,0.0155029296875,0.8850555419921875,0.4090576171875
1780626036841229600,3.5842294921875,-0.039520263671875,0.893829345703125,0.3131103515625
1780626036851224600,3.594224609375,-0.0919189453125,0.9026641845703125,0.2494659423828125
1780626036861219600,3.604219482421875,-0.1266021728515625,0.920257568359375,0.218658447265625
1780626036871215600,3.614215576171875,-0.13775634765625,0.945465087890625,0.2093963623046875
1780626036881210600,3.624210693359375,-0.140838623046875,0.963836669921875,0.2037353515625
1780626036891206000,3.634205810546875,-0.1268157958984375,0.9752960205078125,0.1975555419921875
1780626036901201700,3.64420166015625,-0.0964508056640625,0.9716796875,0.185943603515625
1780626036911196700,3.65419677734375,-0.06488037109375,0.9508209228515625,0.1751861572265625
1780626036921192700,3.664192626953125,-0.060272216796875,0.9286651611328125,0.17913818359375
1780626036931187700,3.674187744140625,-0.089691162109375,0.923736572265625,0.189910888671875
1780626036941182700,3.6841826171875,-0.129669189453125,0.943084716796875,0.202484130859375
1780626036951178800,3.6941787109375,-0.1654815673828125,0.9866180419921875,0.218231201171875
1780626036961173800,3.704173828125,-0.19781494140625,1.0309600830078125,0.2328643798828125
1780626036971169800,3.714169677734375,-0.222076416015625,1.039764404296875,0.238739013671875
1780626036981164800,3.724164794921875,-0.214630126953125,1.0023040771484375,0.2252655029296875
1780626036991159600,3.73415966796875,-0.1630401611328125,0.97576904296875,0.2470703125
1780626037001155600,3.744155517578125,-0.10125732421875,0.963623046875,0.2755889892578125
1780626037011150600,3.754150634765625,-0.0692596435546875,0.98529052734375,0.3034515380859375
1780626037021147000,3.76414697265625,-0.0481109619140625,1.00531005859375,0.3143310546875
1780626037031141600,3.7741416015625,-0.024169921875,1.0143585205078125,0.2989501953125
1780626037041136600,3.78413671875,0.02532958984375,1.0399932861328125,0.27667236328125
1780626037051132700,3.794132568359375,0.0683135986328125,1.0672760009765625,0.2494964599609375
1780626037061127700,3.804127685546875,0.03314208984375,1.0627288818359375,0.2014007568359375
1780626037071123700,3.814123779296875,-0.0382080078125,1.0431365966796875,0.1595611572265625
1780626037081118500,3.824118408203125,-0.14501953125,1.0706024169921875,0.1800384521484375
1780626037091113500,3.834113525390625,-0.1709442138671875,1.0287628173828125,0.143157958984375
1780626037101109800,3.84410986328125,-0.154632568359375,0.9766998291015625,0.0497283935546875
1780626037111104800,3.854104736328125,-0.1311798095703125,0.9202423095703125,0.031829833984375
1780626037121100500,3.8641005859375,-0.130645751953125,0.898651123046875,0.058624267578125
1780626037131095600,3.874095458984375,-0.1395721435546875,0.8964385986328125,0.082244873046875
1780626037141090600,3.884090576171875,-0.1593017578125,0.9041290283203125,0.099578857421875
1780626037151086600,3.894086669921875,-0.180816650390625,0.923126220703125,0.0995635986328125
1780626037161081900,3.904081787109375,-0.1699981689453125,0.95684814453125,0.0835113525390625
1780626037171076900,3.914076904296875,-0.1493377685546875,1.018218994140625,0.07110595703125
1780626037181072600,3.92407275390625,-0.134246826171875,1.09674072265625,0.0634918212890625
1780626037191067600,3.934067626953125,-0.135498046875,1.154266357421875,0.057861328125
1780626037201063700,3.944063720703125,-0.1437530517578125,1.1614837646484375,0.07421875
1780626037211058700,3.95405859375,-0.1376953125,1.1363983154296875,0.136077880859375
1780626037221054700,3.9640546875,-0.09185791015625,1.1023712158203125,0.2383575439453125
1780626037231049700,3.9740498046875,-0.0051422119140625,1.0736846923828125,0.34759521484375
1780626037241044700,3.984044677734375,0.06884765625,1.0657806396484375,0.458770751953125
1780626037251040800,3.994040771484375,0.100311279296875,1.067535400390625,0.5622406005859375
1780626037261035800,4.004035888671875,0.0253448486328125,1.0548248291015625,0.591766357421875
1780626037271030800,4.01403076171875,-0.1128692626953125,1.0189361572265625,0.53125
1780626037281026600,4.024026611328125,-0.2385711669921875,0.9774017333984375,0.419342041015625
1780626037291021600,4.034021484375,-0.328399658203125,0.9500579833984375,0.344207763671875
1780626037301017900,4.044017822265625,-0.375091552734375,0.9247894287109375,0.3265228271484375
1780626037311012900,4.054012939453125,-0.376251220703125,0.8844146728515625,0.316680908203125
1780626037321007600,4.064007568359375,-0.3262176513671875,0.8328094482421875,0.3009033203125
1780626037331003600,4.074003662109375,-0.2321624755859375,0.7731781005859375,0.2904205322265625
1780626037340998700,4.08399853515625,-0.1062469482421875,0.7261962890625,0.2917022705078125
1780626037350994700,4.09399462890625,0.0284271240234375,0.7188873291015625,0.308380126953125
1780626037360989700,4.10398974609375,0.1354217529296875,0.7430419921875,0.3335113525390625
1780626037370984700,4.113984619140625,0.1766204833984375,0.778228759765625,0.3678131103515625
1780626037380980700,4.123980712890625,0.1512603759765625,0.8104705810546875,0.40728759765625
1780626037390975700,4.133975830078125,0.0914154052734375,0.833404541015625,0.4457244873046875
1780626037400971800,4.1439716796875,0.019287109375,0.8463287353515625,0.483795166015625
1780626037410966500,4.153966552734375,-0.0381927490234375,0.861419677734375,0.51263427734375
1780626037420961500,4.16396142578125,-0.0651397705078125,0.8683624267578125,0.5276641845703125
1780626037430957600,4.17395751953125,-0.0664520263671875,0.8636474609375,0.539825439453125
1780626037440952800,4.183952880859375,-0.0352783203125,0.86383056640625,0.5430145263671875
1780626037450948000,4.193947998046875,0.0214080810546875,0.869110107421875,0.530181884765625
1780626037460943000,4.203943115234375,0.0827178955078125,0.8845977783203125,0.4977569580078125
1780626037470937900,4.213937744140625,0.145416259765625,0.9131317138671875,0.44818115234375
1780626037480934100,4.22393408203125,0.1942901611328125,0.9457855224609375,0.3988800048828125
1780626037490929200,4.23392919921875,0.21893310546875,0.9699554443359375,0.362457275390625
1780626037500925200,4.24392529296875,0.2283172607421875,0.97308349609375,0.3286285400390625
1780626037510920000,4.253919921875,0.234954833984375,0.94720458984375,0.3048095703125
1780626037520915000,4.2639150390625,0.2284393310546875,0.91094970703125,0.28729248046875
1780626037530911000,4.273910888671875,0.2070770263671875,0.8856658935546875,0.273773193359375
1780626037540906000,4.283906005859375,0.1632232666015625,0.8749847412109375,0.26751708984375
1780626037550902000,4.293902099609375,0.1383819580078125,0.890533447265625,0.280853271484375
1780626037560897000,4.30389697265625,0.0926361083984375,0.916748046875,0.300537109375
1780626037570892000,4.31389208984375,-0.0321197509765625,0.914154052734375,0.30718994140625
1780626037580888000,4.32388818359375,-0.10650634765625,0.90911865234375,0.3289947509765625
1780626037590883000,4.333883056640625,-0.1002044677734375,0.9215240478515625,0.3620452880859375
1780626037600878800,4.34387890625,0.013916015625,0.94598388671875,0.38323974609375
1780626037610873900,4.353873779296875,0.200439453125,0.9579010009765625,0.3871917724609375
1780626037620869000,4.363869140625,0.3423919677734375,0.9454345703125,0.375762939453125
1780626037630865200,4.373865234375,0.3629150390625,0.9293670654296875,0.362823486328125
1780626037640860200,4.383860107421875,0.290130615234375,0.9081878662109375,0.3466339111328125
1780626037650855200,4.393855224609375,0.200714111328125,0.8871002197265625,0.346160888671875
1780626037660851000,4.403850830078125,0.137725830078125,0.874908447265625,0.3600006103515625
1780626037670846000,4.413845947265625,0.1208343505859375,0.87933349609375,0.3865966796875
1780626037680842200,4.42384228515625,0.1599884033203125,0.8943939208984375,0.4139556884765625
1780626037690837200,4.433837158203125,0.19415283203125,0.9126129150390625,0.41748046875
1780626037700832300,4.443832275390625,0.1946258544921875,0.920135498046875,0.40582275390625
1780626037710828000,4.453828125,0.1805267333984375,0.9177703857421875,0.3905029296875
1780626037720823000,4.463822998046875,0.1789398193359375,0.90618896484375,0.380157470703125
1780626037730819000,4.473819091796875,0.1880950927734375,0.8900909423828125,0.3709259033203125
1780626037740814000,4.48381396484375,0.21258544921875,0.8739013671875,0.3607940673828125
1780626037750808800,4.493808837890625,0.2482452392578125,0.87646484375,0.3522796630859375
1780626037760805000,4.50380517578125,0.268646240234375,0.88623046875,0.3416595458984375
1780626037770800000,4.513800048828125,0.2630615234375,0.896026611328125,0.320404052734375
1780626037780796200,4.523796142578125,0.2453460693359375,0.8995819091796875,0.2966766357421875
1780626037790791000,4.533791015625,0.2385406494140625,0.8982391357421875,0.280059814453125
1780626037800786000,4.543785888671875,0.241668701171875,0.9004974365234375,0.2662811279296875
1780626037810782000,4.553781982421875,0.2463836669921875,0.9003143310546875,0.2530670166015625
1780626037820777000,4.56377685546875,0.2650299072265625,0.900482177734375,0.2581024169921875
1780626037830773000,4.57377294921875,0.279693603515625,0.905487060546875,0.259033203125
1780626037840768000,4.58376806640625,0.2819671630859375,0.8997039794921875,0.2598114013671875
1780626037850763000,4.593762939453125,0.2892303466796875,0.898895263671875,0.268646240234375
1780626037860759000,4.603759033203125,0.298858642578125,0.9097442626953125,0.299224853515625
1780626037870754000,4.613754150390625,0.2879486083984375,0.908966064453125,0.3182220458984375
1780626037880749800,4.623749755859375,0.27276611328125,0.8814849853515625,0.32171630859375
1780626037890745000,4.6337451171875,0.25811767578125,0.8370361328125,0.2991943359375
1780626037900740000,4.643739990234375,0.2345123291015625,0.8021697998046875,0.265167236328125
1780626037910736100,4.653736083984375,0.225311279296875,0.7822265625,0.245880126953125
1780626037920731100,4.663731201171875,0.2381439208984375,0.7725067138671875,0.2343292236328125
1780626037930727000,4.673726806640625,0.2657012939453125,0.762603759765625,0.2105712890625
1780626037940722000,4.683721923828125,0.304931640625,0.743621826171875,0.170074462890625
1780626037950717000,4.693717041015625,0.3269500732421875,0.7420196533203125,0.1425323486328125
1780626037960713200,4.703713134765625,0.3393402099609375,0.767669677734375,0.1263885498046875
1780626037970708200,4.713708251953125,0.3469390869140625,0.80828857421875,0.0969696044921875
1780626037980704000,4.7237041015625,0.3703155517578125,0.8449249267578125,0.0674896240234375
1780626037990699000,4.733698974609375,0.420928955078125,0.8749847412109375,0.047119140625
1780626038000694000,4.743694091796875,0.482086181640625,0.898956298828125,0.0511932373046875
1780626038010690000,4.75368994140625,0.523773193359375,0.9348907470703125,0.07916259765625
1780626038020685000,4.76368505859375,0.5401458740234375,0.97308349609375,0.1145172119140625
1780626038030681000,4.77368115234375,0.5610198974609375,0.9942474365234375,0.16253662109375
1780626038040676000,4.783676025390625,0.5895538330078125,0.9952545166015625,0.235565185546875
1780626038050671000,4.793671142578125,0.579620361328125,0.9837799072265625,0.303680419921875
1780626038060667100,4.803667236328125,0.4835662841796875,0.969818115234375,0.340789794921875
1780626038070662100,4.813662109375,0.31219482421875,0.9759521484375,0.345794677734375
1780626038080658000,4.823657958984375,0.1384124755859375,1.0278778076171875,0.36932373046875
1780626038090653000,4.83365283203125,0.004638671875,1.1469268798828125,0.4659576416015625
1780626038100648200,4.843648193359375,-0.0550994873046875,1.29217529296875,0.60333251953125
1780626038110644200,4.853644287109375,-0.035186767578125,1.380096435546875,0.7070465087890625
1780626038120639000,4.863638916015625,-0.0922393798828125,1.328948974609375,0.7017364501953125
1780626038130635000,4.873635009765625,-0.2260894775390625,1.1346282958984375,0.595611572265625
1780626038140630000,4.883630126953125,-0.247283935546875,0.9383392333984375,0.50030517578125
1780626038150625000,4.893625,-0.1045379638671875,0.8126068115234375,0.4332427978515625
1780626038160621000,4.90362109375,-0.0209503173828125,0.7597808837890625,0.3760986328125
1780626038170616000,4.913615966796875,-0.1674652099609375,0.7938995361328125,0.3489837646484375
1780626038180612000,4.923612060546875,-0.301727294921875,0.8566131591796875,0.3105621337890625
1780626038190607000,4.933607177734375,-0.2991790771484375,0.924163818359375,0.2541656494140625
1780626038200602000,4.94360205078125,-0.215606689453125,1.003509521484375,0.2256622314453125
1780626038210598000,4.953597900390625,-0.126251220703125,1.05657958984375,0.2088775634765625
1780626038220593000,4.963593017578125,-0.05615234375,1.047088623046875,0.170318603515625
1780626038230589200,4.973589111328125,-0.0037841796875,0.9943695068359375,0.1403350830078125
1780626038240584200,4.983584228515625,0.0685882568359375,0.9613189697265625,0.161163330078125
1780626038250579200,4.9935791015625,0.1624603271484375,0.962799072265625,0.2263946533203125
1780626038260575000,5.003574951171875,0.2488250732421875,0.9608154296875,0.283538818359375
1780626038270570000,5.013570068359375,0.2973785400390625,0.9535369873046875,0.317840576171875
1780626038280565000,5.02356494140625,0.29376220703125,0.9549407958984375,0.333770751953125
1780626038290561000,5.03356103515625,0.2322845458984375,0.9492340087890625,0.31793212890625
1780626038300556000,5.04355615234375,0.1233673095703125,0.9312896728515625,0.28143310546875
1780626038310552000,5.053552001953125,0.0204315185546875,0.9210205078125,0.253082275390625
1780626038320547000,5.063547119140625,-0.037017822265625,0.922607421875,0.22821044921875
1780626038330542000,5.0735419921875,-0.037994384765625,0.9369964599609375,0.2143096923828125
1780626038340538000,5.0835380859375,-0.001708984375,0.9580535888671875,0.1951904296875
1780626038350533000,5.093533203125,0.0231781005859375,0.981964111328125,0.1595916748046875
1780626038360529000,5.10352880859375,0.0532989501953125,1.009185791015625,0.1186676025390625
1780626038370524200,5.113524169921875,0.0995025634765625,1.025238037109375,0.077484130859375
1780626038380519200,5.123519287109375,0.1162109375,1.03179931640625,0.0598602294921875
1780626038390515200,5.13351513671875,0.0738983154296875,1.0340728759765625,0.0764007568359375
1780626038400510000,5.143510009765625,0.0216064453125,1.014923095703125,0.125885009765625
1780626038410506000,5.153506103515625,-0.005523681640625,0.978912353515625,0.1766510009765625
1780626038420501000,5.1635009765625,-0.0202789306640625,0.9475250244140625,0.2175445556640625
1780626038430496000,5.17349609375,-0.0336761474609375,0.939910888671875,0.26019287109375
1780626038440492000,5.183491943359375,-0.0334014892578125,0.9472808837890625,0.292877197265625
1780626038450487300,5.1934873046875,-0.0081939697265625,0.9498748779296875,0.3006134033203125
1780626038460483300,5.2034833984375,0.0404052734375,0.947296142578125,0.2799224853515625
1780626038470478300,5.213478271484375,0.0851593017578125,0.9503173828125,0.2452239990234375
1780626038480473300,5.223473388671875,0.0898284912109375,0.965179443359375,0.2113037109375
1780626038490469400,5.233469482421875,0.06219482421875,0.98980712890625,0.1935882568359375
1780626038500464400,5.24346435546875,0.043365478515625,1.004669189453125,0.1801910400390625
1780626038510460400,5.25346044921875,0.0418853759765625,1.011688232421875,0.16937255859375
1780626038520455400,5.263455322265625,0.0589599609375,1.018310546875,0.1702117919921875
1780626038530450400,5.273450439453125,0.0755462646484375,1.01776123046875,0.17498779296875
1780626038540446200,5.2834462890625,0.0765228271484375,1.0111846923828125,0.1866302490234375
1780626038550441200,5.293441162109375,0.066131591796875,1.0009765625,0.194000244140625
1780626038560437500,5.3034375,0.04595947265625,0.9788970947265625,0.20538330078125
1780626038570432500,5.3134326171875,0.021148681640625,0.9446258544921875,0.240509033203125
1780626038580427500,5.323427490234375,0.00836181640625,0.9277496337890625,0.267974853515625
1780626038590423300,5.33342333984375,0.015350341796875,0.920257568359375,0.2463531494140625
1780626038600418300,5.343418212890625,0.0426025390625,0.90826416015625,0.196563720703125
1780626038610414300,5.353414306640625,0.068084716796875,0.9145355224609375,0.1375885009765625
1780626038620409600,5.36340966796875,0.0675201416015625,0.9312744140625,0.0796356201171875
1780626038630404400,5.373404296875,0.05023193359375,0.96356201171875,0.0397491455078125
1780626038640400400,5.383400390625,0.021148681640625,1.01190185546875,0.03143310546875
1780626038650395400,5.3933955078125,0.0057830810546875,1.049591064453125,0.0474700927734375
1780626038660391400,5.403391357421875,-0.015655517578125,1.0611724853515625,0.089935302734375
1780626038670386400,5.413386474609375,-0.0317840576171875,1.049713134765625,0.1467132568359375
1780626038680381200,5.423381103515625,-0.02215576171875,1.02777099609375,0.1963348388671875
1780626038690377500,5.43337744140625,0.001190185546875,1.007965087890625,0.24090576171875
1780626038700372500,5.44337255859375,0.03814697265625,0.999603271484375,0.28155517578125
1780626038710368500,5.453368408203125,0.0858001708984375,1.0014495849609375,0.31219482421875
1780626038720363300,5.46336328125,0.1243133544921875,1.0024261474609375,0.32452392578125
1780626038730358300,5.473358154296875,0.145538330078125,0.9937744140625,0.324005126953125
1780626038740354300,5.483354248046875,0.1456298828125,0.970977783203125,0.3030853271484375
1780626038750349300,5.493349365234375,0.18988037109375,0.9162445068359375,0.2656402587890625
1780626038760345300,5.503345458984375,0.3451385498046875,0.8151702880859375,0.288055419921875
1780626038770340400,5.51334033203125,0.0902099609375,0.9418487548828125,0.3416595458984375
1780626038780335400,5.52333544921875,-0.158416748046875,1.044342041015625,0.274658203125
1780626038790331400,5.533331298828125,-0.06951904296875,0.999542236328125,0.159759521484375
1780626038800326400,5.543326416015625,0.034149169921875,0.9665069580078125,0.068878173828125
1780626038810322200,5.553322265625,0.0948028564453125,0.964874267578125,0.01422119140625
1780626038820317200,5.563317138671875,0.1290283203125,0.9928436279296875,0.0124664306640625
1780626038830312400,5.5733125,0.1462249755859375,1.033355712890625,0.0377349853515625
1780626038840308500,5.58330859375,0.1488800048828125,1.0574188232421875,0.0619964599609375
1780626038850303500,5.593303466796875,0.16424560546875,1.060577392578125,0.091705322265625
1780626038860299300,5.60329931640625,0.1939697265625,1.0333251953125,0.1080169677734375
1780626038870294300,5.613294189453125,0.218658447265625,0.9842071533203125,0.11083984375
1780626038880289300,5.623289306640625,0.2165679931640625,0.9470672607421875,0.112640380859375
1780626038890285600,5.63328564453125,0.17510986328125,0.9144439697265625,0.1426239013671875
1780626038900280600,5.643280517578125,0.086090087890625,0.8806610107421875,0.166351318359375
1780626038910276400,5.6532763671875,-0.047821044921875,0.8872833251953125,0.1891632080078125
1780626038920271400,5.663271240234375,-0.14312744140625,0.928497314453125,0.26971435546875
1780626038930266400,5.673266357421875,-0.144683837890625,0.93505859375,0.370452880859375
1780626038940262400,5.683262451171875,-0.0606842041015625,0.900421142578125,0.4331207275390625
1780626038950257400,5.69325732421875,0.022491455078125,0.8503265380859375,0.444000244140625
1780626038960253400,5.70325341796875,0.0960693359375,0.7938385009765625,0.403411865234375
1780626038970248400,5.71324853515625,0.1407470703125,0.775848388671875,0.332427978515625
1780626038980243500,5.723243408203125,0.110565185546875,0.8087921142578125,0.27142333984375
1780626038990239500,5.733239501953125,0.072662353515625,0.856231689453125,0.22552490234375
1780626039000234200,5.743234130859375,0.08966064453125,0.8785858154296875,0.2408294677734375
1780626039010230300,5.753230224609375,0.0921783447265625,0.8527984619140625,0.32421875
1780626039020225300,5.763225341796875,0.0482635498046875,0.9373779296875,0.342681884765625
1780626039030220300,5.77322021484375,-0.08856201171875,1.2048797607421875,0.2181396484375
1780626039040216300,5.78321630859375,-0.1221466064453125,1.4162139892578125,0.0818328857421875
1780626039050211300,5.79321142578125,0.076904296875,1.3208160400390625,0.0067291259765625
1780626039060207400,5.803207275390625,0.2786407470703125,1.14453125,-0.0115814208984375
1780626039070202400,5.813202392578125,0.3790435791015625,0.99853515625,0.0493316650390625
1780626039080197400,5.823197265625,0.4329833984375,0.8969879150390625,0.1005859375
1780626039090193200,5.833193115234375,0.404693603515625,0.831573486328125,0.130523681640625
1780626039100188400,5.8431884765625,0.295501708984375,0.8227691650390625,0.1528472900390625
1780626039110184400,5.853184326171875,0.2001495361328125,0.8731536865234375,0.1761932373046875
1780626039120179500,5.863179443359375,0.175872802734375,0.9398651123046875,0.1864471435546875
1780626039130174500,5.873174560546875,0.17254638671875,0.9885711669921875,0.205474853515625
1780626039140170200,5.883170166015625,0.1552581787109375,1.0355377197265625,0.24517822265625
1780626039150165200,5.893165283203125,0.140869140625,1.0674896240234375,0.286224365234375
1780626039160161500,5.90316162109375,0.142730712890625,1.064361572265625,0.297149658203125
1780626039170156500,5.913156494140625,0.18206787109375,1.0206756591796875,0.2739715576171875
1780626039180151600,5.923151611328125,0.226806640625,0.955841064453125,0.2397308349609375
1780626039190147300,5.933147216796875,0.239105224609375,0.90887451171875,0.2006378173828125
1780626039200142300,5.943142333984375,0.2222442626953125,0.8902435302734375,0.1772308349609375
1780626039210138400,5.953138427734375,0.181793212890625,0.90045166015625,0.169036865234375
1780626039220133400,5.96313330078125,0.1207122802734375,0.924530029296875,0.17718505859375
1780626039230128400,5.97312841796875,0.061187744140625,0.9561004638671875,0.2139892578125
1780626039240124400,5.98312451171875,0.0277099609375,0.98516845703125,0.260406494140625
1780626039250119400,5.993119384765625,0.009918212890625,0.9749755859375,0.2600860595703125
1780626039260115500,6.003115478515625,0.015472412109375,0.95697021484375,0.25738525390625
1780626039270110500,6.0131103515625,0.0277252197265625,0.9422607421875,0.2564697265625
1780626039280105500,6.02310546875,0.033477783203125,0.93768310546875,0.2574005126953125
1780626039290101200,6.033101318359375,0.0310821533203125,0.942108154296875,0.260467529296875
1780626039300096300,6.04309619140625,0.0396728515625,0.946044921875,0.262054443359375
1780626039310092500,6.053092529296875,0.0630340576171875,0.94537353515625,0.255767822265625
1780626039320087600,6.063087646484375,0.0996551513671875,0.9498443603515625,0.243133544921875
1780626039330082300,6.073082275390625,0.1330413818359375,0.9593353271484375,0.235260009765625
1780626039340078300,6.083078369140625,0.14886474609375,0.9651336669921875,0.2291717529296875
1780626039350073300,6.0930732421875,0.1482086181640625,0.9723663330078125,0.2232513427734375
1780626039360068400,6.103068359375,0.1335296630859375,0.9761505126953125,0.21661376953125
1780626039370064400,6.113064453125,0.111541748046875,0.9808197021484375,0.2043304443359375
1780626039380059400,6.123059326171875,0.090972900390625,0.9730377197265625,0.1911773681640625
1780626039390055400,6.133055419921875,0.09228515625,0.965850830078125,0.1952056884765625
1780626039400050400,6.143050537109375,0.108062744140625,0.9671173095703125,0.2110595703125
1780626039410045400,6.15304541015625,0.115081787109375,0.9728240966796875,0.225860595703125
1780626039420041200,6.163041259765625,0.107666015625,0.9773406982421875,0.2408294677734375
1780626039430036200,6.1730361328125,0.108917236328125,0.980010986328125,0.258270263671875
1780626039440032500,6.183032470703125,0.1285858154296875,0.97882080078125,0.259246826171875
1780626039450027300,6.19302734375,0.1598358154296875,0.9818878173828125,0.2430877685546875
1780626039460022300,6.203022216796875,0.1678619384765625,0.99310302734375,0.22412109375
1780626039470018000,6.21301806640625,0.15545654296875,0.9955902099609375,0.18853759765625
1780626039480013000,6.223012939453125,0.163848876953125,0.9900970458984375,0.1669769287109375
1780626039490009000,6.233009033203125,0.2110748291015625,0.9813385009765625,0.150665283203125
1780626039500004000,6.243004150390625,0.2724151611328125,0.966400146484375,0.1232757568359375
1780626039509999000,6.2529990234375,0.305633544921875,0.95953369140625,0.084564208984375
1780626039519995100,6.2629951171875,0.27880859375,0.974090576171875,0.060821533203125
1780626039529990100,6.272990234375,0.2178802490234375,0.99859619140625,0.0659027099609375
1780626039539986200,6.282986083984375,0.186676025390625,1.0214080810546875,0.082489013671875
1780626039549981200,6.292981201171875,0.170196533203125,1.0363922119140625,0.10882568359375
1780626039559976200,6.30297607421875,0.160125732421875,1.03662109375,0.1307220458984375
1780626039569972000,6.312971923828125,0.168365478515625,1.010406494140625,0.1408538818359375
1780626039579967000,6.322967041015625,0.20648193359375,0.9643707275390625,0.139373779296875
1780626039589963300,6.33296337890625,0.2420806884765625,0.9220123291015625,0.1617889404296875
1780626039599958300,6.342958251953125,0.2562255859375,0.8969573974609375,0.218963623046875
1780626039609953300,6.352953369140625,0.27093505859375,0.8910675048828125,0.276763916015625
1780626039619949000,6.362948974609375,0.282806396484375,0.89764404296875,0.3017120361328125
1780626039629944000,6.372944091796875,0.265716552734375,0.90972900390625,0.293121337890625
1780626039639940000,6.382940185546875,0.240692138671875,0.9179229736328125,0.274261474609375
1780626039649935400,6.392935302734375,0.23175048828125,0.932403564453125,0.2668609619140625
1780626039659930000,6.40293017578125,0.2645416259765625,0.9456787109375,0.2671661376953125
1780626039669926100,6.412926025390625,0.3152618408203125,0.9409027099609375,0.2545928955078125
1780626039679921200,6.422921142578125,0.3598480224609375,0.917816162109375,0.2249755859375
1780626039689917200,6.432917236328125,0.37255859375,0.905609130859375,0.20013427734375
1780626039699912200,6.442912109375,0.347564697265625,0.9205474853515625,0.1947021484375
1780626039709907000,6.452906982421875,0.315643310546875,0.941162109375,0.2174530029296875
1780626039719903200,6.4629033203125,0.3047332763671875,0.9456329345703125,0.24005126953125
1780626039729898200,6.472898193359375,0.30377197265625,0.9349822998046875,0.2472991943359375
1780626039739894300,6.482894287109375,0.2962646484375,0.919158935546875,0.2458953857421875
1780626039749889000,6.492888916015625,0.29193115234375,0.90283203125,0.2403717041015625
1780626039759884000,6.502884033203125,0.31085205078125,0.8910369873046875,0.23583984375
1780626039769880000,6.512880126953125,0.3402557373046875,0.88275146484375,0.2404022216796875
1780626039779875000,6.522875,0.3579559326171875,0.877166748046875,0.2477569580078125
1780626039789871000,6.53287109375,0.3681640625,0.871978759765625,0.260345458984375
1780626039799866000,6.5428662109375,0.37255859375,0.8645782470703125,0.2679901123046875
1780626039809861000,6.552861083984375,0.378662109375,0.85565185546875,0.268096923828125
1780626039819857200,6.562857177734375,0.392333984375,0.8487701416015625,0.263702392578125
1780626039829852200,6.57285205078125,0.4140167236328125,0.8505706787109375,0.2612762451171875
1780626039839848000,6.582847900390625,0.4283447265625,0.859100341796875,0.2653656005859375
1780626039849843000,6.592843017578125,0.4331512451171875,0.8722686767578125,0.273956298828125
1780626039859838200,6.602838134765625,0.4200439453125,0.8860931396484375,0.2811737060546875
1780626039869834200,6.612834228515625,0.4054412841796875,0.9076385498046875,0.2935638427734375
1780626039879829200,6.622829345703125,0.3956298828125,0.9282989501953125,0.306640625
1780626039889825000,6.632824951171875,0.3881378173828125,0.929595947265625,0.3089447021484375
1780626039899820000,6.642820068359375,0.382171630859375,0.914154052734375,0.29754638671875
1780626039909815000,6.65281494140625,0.3763275146484375,0.8899383544921875,0.279754638671875
1780626039919811300,6.662811279296875,0.3770294189453125,0.8555450439453125,0.2585906982421875
1780626039929806300,6.672806396484375,0.3758392333984375,0.8276214599609375,0.2476348876953125
1780626039939802000,6.682802001953125,0.369537353515625,0.8171234130859375,0.2532958984375
1780626039949797000,6.692797119140625,0.3553924560546875,0.8276519775390625,0.2711181640625
1780626039959792000,6.702792236328125,0.34246826171875,0.849639892578125,0.2905426025390625
1780626039969788200,6.7127880859375,0.3445587158203125,0.8663177490234375,0.3075714111328125
1780626039979783200,6.722783203125,0.358062744140625,0.8761749267578125,0.3227996826171875
1780626039989779200,6.732779296875,0.3821868896484375,0.889068603515625,0.341064453125
1780626039999774200,6.742774169921875,0.407073974609375,0.9064483642578125,0.3602142333984375
1780626040009769200,6.752769287109375,0.4356842041015625,0.908172607421875,0.3747406005859375
1780626040019765200,6.76276513671875,0.4532928466796875,0.8922271728515625,0.3858642578125
1780626040029760000,6.772760009765625,0.4636688232421875,0.8857269287109375,0.40753173828125
1780626040039756000,6.782756103515625,0.477325439453125,0.8845367431640625,0.425628662109375
1780626040049751000,6.7927509765625,0.48370361328125,0.8697509765625,0.4402618408203125
1780626040059746000,6.80274609375,0.46337890625,0.855224609375,0.458892822265625
1780626040069742000,6.8127421875,0.4320526123046875,0.8521881103515625,0.4666595458984375
1780626040079737000,6.822737060546875,0.4175567626953125,0.848419189453125,0.449493408203125
1780626040089733000,6.832733154296875,0.435211181640625,0.8312530517578125,0.40087890625
1780626040099728100,6.84272802734375,0.453125,0.808441162109375,0.346466064453125
1780626040109723100,6.85272314453125,0.4437713623046875,0.802154541015625,0.2980194091796875
1780626040119719000,6.862718994140625,0.42523193359375,0.8218231201171875,0.272613525390625
1780626040129714200,6.872714111328125,0.420867919921875,0.848876953125,0.2706451416015625
1780626040139710200,6.882710205078125,0.444000244140625,0.87176513671875,0.2745208740234375
1780626040149705200,6.892705322265625,0.4597625732421875,0.878173828125,0.26556396484375
1780626040159700200,6.9027001953125,0.446502685546875,0.8507232666015625,0.242156982421875
1780626040169696000,6.912696044921875,0.4296722412109375,0.824249267578125,0.232086181640625
1780626040179691000,6.92269091796875,0.439422607421875,0.8240966796875,0.2393035888671875
1780626040189687300,6.932687255859375,0.445953369140625,0.8413848876953125,0.230224609375
1780626040199682300,6.942682373046875,0.3823089599609375,0.8430938720703125,0.198516845703125
1780626040209677300,6.95267724609375,0.292510986328125,0.8285369873046875,0.1796875
1780626040219673000,6.962673095703125,0.243377685546875,0.7996978759765625,0.1923980712890625
1780626040229668000,6.972668212890625,0.215545654296875,0.7641448974609375,0.2581634521484375
1780626040239664000,6.9826640625,0.2397613525390625,0.7361602783203125,0.3560638427734375
1780626040249659100,6.9926591796875,0.3415069580078125,0.7132720947265625,0.4484710693359375
1780626040259654100,7.002654052734375,0.4682159423828125,0.7126617431640625,0.535919189453125
1780626040269650200,7.012650146484375,0.5457763671875,0.732757568359375,0.6051483154296875
1780626040279645200,7.022645263671875,0.53839111328125,0.7559661865234375,0.6416473388671875
1780626040289641200,7.03264111328125,0.4721221923828125,0.7655181884765625,0.61444091796875
1780626040299636200,7.04263623046875,0.4035797119140625,0.76458740234375,0.553070068359375
1780626040309631200,7.05263134765625,0.3326416015625,0.7606964111328125,0.4686431884765625
1780626040319627000,7.062626953125,0.2512664794921875,0.7448577880859375,0.3690948486328125
1780626040329622000,7.0726220703125,0.1823883056640625,0.7176666259765625,0.2827606201171875
1780626040339618300,7.082618408203125,0.1666259765625,0.6883544921875,0.2313385009765625
1780626040349613300,7.09261328125,0.21124267578125,0.6728515625,0.2178497314453125
1780626040359608000,7.102608154296875,0.276458740234375,0.6801910400390625,0.234588623046875
1780626040369604000,7.11260400390625,0.3246612548828125,0.710235595703125,0.2651824951171875
1780626040379599000,7.12259912109375,0.347869873046875,0.7472076416015625,0.28350830078125
1780626040389595100,7.13259521484375,0.3653411865234375,0.778411865234375,0.290191650390625
1780626040399590000,7.14258984375,0.39935302734375,0.8097991943359375,0.292022705078125
1780626040409585200,7.152585205078125,0.472076416015625,0.8682861328125,0.3069000244140625
1780626040419581200,7.162581298828125,0.5703582763671875,0.9684906005859375,0.350494384765625
1780626040429576200,7.172576171875,0.66552734375,1.09539794921875,0.386138916015625
1780626040439572000,7.182572021484375,0.7467193603515625,1.20513916015625,0.385223388671875
1780626040449567000,7.19256689453125,0.7876129150390625,1.2554168701171875,0.3458709716796875
1780626040459562000,7.20256201171875,0.75567626953125,1.1982879638671875,0.2855224609375
1780626040469558000,7.21255810546875,0.6641693115234375,1.058502197265625,0.2733917236328125
1780626040479553000,7.222552978515625,0.5799407958984375,0.902313232421875,0.30029296875
1780626040489548000,7.232548095703125,0.5347900390625,0.75958251953125,0.2959747314453125
1780626040499543800,7.242543701171875,0.47222900390625,0.6516265869140625,0.2615203857421875
1780626040509539000,7.2525390625,0.34796142578125,0.5829010009765625,0.19866943359375
1780626040519535000,7.26253515625,0.1819305419921875,0.5493316650390625,0.1116485595703125
1780626040529530000,7.272530029296875,0.0274810791015625,0.5498199462890625,0.01007080078125
1780626040539525000,7.282525146484375,-0.0344085693359375,0.6035614013671875,-0.0400848388671875
1780626040549521000,7.29252099609375,0.095947265625,0.7555084228515625,0.0526580810546875
1780626040559516000,7.302515869140625,0.3762664794921875,0.9840850830078125,0.233367919921875
1780626040569512000,7.312511962890625,0.6485443115234375,1.2070770263671875,0.2999267578125
1780626040579507200,7.322507080078125,0.57257080078125,1.3436279296875,0.1914215087890625
1780626040589502200,7.332502197265625,0.2135009765625,1.3175048828125,-0.0241241455078125
1780626040599498000,7.342498046875,0.033355712890625,1.1752777099609375,-0.1115570068359375
1780626040609493000,7.352492919921875,0.129150390625,1.0029296875,0.023345947265625
1780626040619489000,7.362489013671875,0.3472900390625,0.858489990234375,0.22869873046875
1780626040629484000,7.372484130859375,0.4550323486328125,0.8189544677734375,0.4120635986328125
1780626040639479000,7.38247900390625,0.3936920166015625,0.8583221435546875,0.50030517578125
1780626040649475000,7.39247509765625,0.28485107421875,0.885955810546875,0.4757232666015625
1780626040659470000,7.402469970703125,0.19305419921875,0.8959503173828125,0.3933258056640625
1780626040669466000,7.412466064453125,0.1593017578125,0.90081787109375,0.303924560546875
1780626040679461000,7.422461181640625,0.16058349609375,0.9133758544921875,0.22479248046875
1780626040689455900,7.432455810546875,0.1548004150390625,0.9340972900390625,0.1725311279296875
1780626040699452000,7.442451904296875,0.178466796875,0.9564361572265625,0.1388397216796875
1780626040709447000,7.452447021484375,0.2523651123046875,0.9815521240234375,0.141387939453125
1780626040719443200,7.462443115234375,0.328155517578125,1.0017547607421875,0.1627960205078125
1780626040729438000,7.47243798828125,0.38128662109375,0.99847412109375,0.170135498046875
1780626040739433000,7.482432861328125,0.3579559326171875,0.9913787841796875,0.1605987548828125
1780626040749429000,7.492428955078125,0.2786865234375,0.993408203125,0.1489105224609375
1780626040759424000,7.502424072265625,0.2130126953125,0.9937591552734375,0.143768310546875
1780626040769420000,7.512419921875,0.2082366943359375,0.9738616943359375,0.1319427490234375
1780626040779414800,7.522414794921875,0.2472686767578125,0.9376678466796875,0.109893798828125
1780626040789410000,7.53241015625,0.2581024169921875,0.9119415283203125,0.081146240234375
1780626040799406000,7.542406005859375,0.2481231689453125,0.892974853515625,0.0451812744140625
1780626040809401000,7.552401123046875,0.2263946533203125,0.882415771484375,0.00445556640625
1780626040819396900,7.56239697265625,0.2067108154296875,0.897979736328125,-0.0196685791015625
1780626040829392000,7.572391845703125,0.2304840087890625,0.9348602294921875,-0.025054931640625
1780626040839387000,7.582386962890625,0.3203582763671875,1.00189208984375,-0.003753662109375
1780626040849383200,7.592383056640625,0.3603057861328125,1.0811309814453125,0.035400390625
1780626040859378200,7.602378173828125,0.3659210205078125,1.1174468994140625,0.074432373046875
1780626040869374000,7.6123740234375,0.3172149658203125,1.0911712646484375,0.100677490234375
1780626040879369000,7.622368896484375,0.1898345947265625,1.01605224609375,0.131622314453125
1780626040889364000,7.632364013671875,0.132232666015625,0.9320526123046875,0.1684417724609375
1780626040899360000,7.642360107421875,0.1545867919921875,0.8665924072265625,0.218414306640625
1780626040909355000,7.65235498046875,0.23065185546875,0.834075927734375,0.2701263427734375
1780626040919351000,7.66235107421875,0.2975921630859375,0.8542633056640625,0.300506591796875
1780626040929346000,7.672345947265625,0.3409576416015625,0.9201507568359375,0.301422119140625
1780626040939341000,7.682341064453125,0.347320556640625,0.989471435546875,0.2581329345703125
1780626040949337000,7.692337158203125,0.29974365234375,1.0229034423828125,0.1711883544921875
1780626040959332000,7.70233203125,0.2394561767578125,1.026153564453125,0.09185791015625
1780626040969327900,7.712327880859375,0.2265777587890625,1.0133056640625,0.0599517822265625
1780626040979323000,7.722322998046875,0.2456817626953125,0.988037109375,0.0678863525390625
1780626040989318000,7.73231787109375,0.2685394287109375,0.96392822265625,0.091094970703125
1780626040999314200,7.742314208984375,0.2788238525390625,0.9403076171875,0.1074676513671875
1780626041009309000,7.752308837890625,0.2601165771484375,0.9225311279296875,0.0990753173828125
1780626041019305000,7.762304931640625,0.2058258056640625,0.918426513671875,0.06036376953125
1780626041029300000,7.772300048828125,0.151641845703125,0.94024658203125,-0.002044677734375
1780626041039295000,7.782294921875,0.1785125732421875,0.986083984375,-0.05145263671875
1780626041049291000,7.792291015625,0.252410888671875,1.0459747314453125,-0.0640716552734375
1780626041059286000,7.8022861328125,0.3090057373046875,1.09130859375,-0.0327911376953125
1780626041069282000,7.812281982421875,0.3543853759765625,1.100341796875,0.0314178466796875
1780626041079277000,7.822277099609375,0.36346435546875,1.0697021484375,0.0919189453125
1780626041089272000,7.83227197265625,0.32696533203125,1.0171966552734375,0.147125244140625
1780626041099267800,7.842267822265625,0.277435302734375,0.9841461181640625,0.20062255859375
1780626041109262800,7.852262939453125,0.2899017333984375,0.96795654296875,0.2651824951171875
1780626041119259100,7.862259033203125,0.350982666015625,0.9615631103515625,0.334075927734375
1780626041129254100,7.872254150390625,0.4307861328125,0.9571990966796875,0.4037017822265625
1780626041139249200,7.882249267578125,0.4746551513671875,0.95379638671875,0.4654541015625
1780626041149245000,7.892244873046875,0.3735809326171875,0.9535980224609375,0.476776123046875
1780626041159240000,7.902239990234375,0.20025634765625,0.950042724609375,0.445220947265625
1780626041169235000,7.91223486328125,0.1403045654296875,0.9546966552734375,0.3996429443359375
1780626041179231000,7.92223095703125,0.2205657958984375,0.9497528076171875,0.3085784912109375
1780626041189226000,7.93222607421875,0.3016357421875,0.9398956298828125,0.1771087646484375
1780626041199222000,7.942221923828125,0.319000244140625,0.9285125732421875,0.011993408203125
1780626041209217000,7.952217041015625,0.3451995849609375,0.9204559326171875,-0.1963653564453125
1780626041219212000,7.9622119140625,0.2991485595703125,0.922149658203125,-0.4222869873046875
1780626041229208000,7.9722080078125,0.2631378173828125,0.9342803955078125,-0.6035003662109375
1780626041239203000,7.982203125,0.2964630126953125,0.9409332275390625,-0.685028076171875
1780626041249198800,7.99219873046875,0.363037109375,0.959197998046875,-0.6429443359375
1780626041259193900,8.00219384765625,0.3235321044921875,0.9647216796875,-0.5126495361328125
1780626041269189000,8.012189208984376,0.239349365234375,0.920318603515625,-0.300079345703125
1780626041279185200,8.02218505859375,0.23297119140625,0.8443145751953125,-0.0630645751953125
1780626041289180200,8.03218017578125,0.3194580078125,0.761474609375,0.127197265625
1780626041299176000,8.042176025390624,0.3464202880859375,0.6973419189453125,0.2218017578125
1780626041309171000,8.0521708984375,0.252105712890625,0.690704345703125,0.2174072265625
1780626041319166000,8.062166015625,0.258544921875,0.7404937744140625,0.162445068359375
1780626041329162200,8.072162353515624,0.2704925537109375,0.8221893310546875,0.077880859375
1780626041339157000,8.082156982421875,0.2186126708984375,0.8896484375,-0.0261688232421875
1780626041349153000,8.092153076171876,0.197052001953125,0.910430908203125,-0.10150146484375
1780626041359148000,8.10214794921875,0.259002685546875,0.88665771484375,-0.09942626953125
1780626041369143000,8.11214306640625,0.3851776123046875,0.8739166259765625,-0.0250244140625
1780626041379139000,8.12213916015625,0.3939361572265625,0.862579345703125,0.0283660888671875
1780626041389133800,8.1321337890625,0.2786102294921875,0.8211212158203125,0.0476837158203125
1780626041399130000,8.142130126953125,0.1420745849609375,0.763153076171875,0.016693115234375
1780626041409125000,8.152125,0.070098876953125,0.7313079833984375,-0.0493621826171875
1780626041419120000,8.1621201171875,0.0884552001953125,0.76904296875,-0.065765380859375
1780626041429116000,8.172115966796875,0.130401611328125,0.878570556640625,-0.0138092041015625
1780626041439111000,8.18211083984375,0.2926483154296875,0.98052978515625,0.0634613037109375
1780626041449107700,8.192107666015625,0.4355926513671875,1.074432373046875,0.143585205078125
1780626041459102700,8.202102783203125,0.5569305419921875,1.1548919677734375,0.2202606201171875
1780626041469097700,8.21209765625,0.5672760009765625,1.1907958984375,0.232177734375
1780626041479093500,8.222093505859375,0.415771484375,1.1566619873046875,0.177490234375
1780626041489088500,8.232088623046875,0.3289642333984375,1.045318603515625,0.0751190185546875
1780626041499084800,8.242084716796874,0.2537841796875,0.92718505859375,0.0048980712890625
1780626041509079800,8.252079833984375,0.2767486572265625,0.8791351318359375,0.0443115234375
1780626041519074600,8.262074462890626,0.330841064453125,0.8856048583984375,0.1316986083984375
1780626041529070600,8.272070556640625,0.31121826171875,0.9398040771484375,0.16705322265625
1780626041539065600,8.282065673828125,0.2875518798828125,1.0050506591796875,0.1447906494140625
1780626041549061600,8.2920615234375,0.33856201171875,1.040252685546875,0.1047821044921875
1780626041559056600,8.302056640625,0.4310150146484375,1.0554962158203125,0.052337646484375
1780626041569051600,8.3120517578125,0.4460296630859375,1.0713653564453125,-0.0048065185546875
1780626041579047700,8.322047607421876,0.4470672607421875,1.0750579833984375,-0.0328369140625
1780626041589042700,8.332042724609375,0.4783172607421875,1.059600830078125,-0.024383544921875
1780626041599037700,8.34203759765625,0.404327392578125,1.009552001953125,-0.00048828125
1780626041609033500,8.352033447265624,0.370819091796875,0.912811279296875,0.0285491943359375
1780626041619028500,8.362028564453125,0.2841033935546875,0.818634033203125,0.024444580078125
1780626041629024800,8.372024658203125,0.30157470703125,0.7979736328125,0.0140228271484375
1780626041639019800,8.382019775390624,0.4060821533203125,0.87310791015625,0.042022705078125
1780626041649014800,8.392014892578125,0.3510589599609375,0.957427978515625,0.0830535888671875
1780626041659010600,8.402010498046875,0.382720947265625,1.0024261474609375,0.1194305419921875
1780626041669005600,8.412005615234374,0.404815673828125,1.0068206787109375,0.1326904296875
1780626041679001600,8.422001708984375,0.407806396484375,0.977203369140625,0.12359619140625
1780626041688996600,8.43199658203125,0.4291839599609375,0.9464569091796875,0.099090576171875
1780626041698991600,8.44199169921875,0.3274688720703125,0.8986358642578125,0.0372467041015625
1780626041708987600,8.451987548828125,0.2992095947265625,0.811737060546875,-0.0047454833984375
1780626041718982700,8.461982666015626,0.418792724609375,0.785186767578125,0.0432281494140625
1780626041728978700,8.471978759765625,0.383941650390625,0.8363037109375,0.099151611328125
1780626041738973700,8.4819736328125,0.405059814453125,0.9073638916015625,0.1351318359375
1780626041748968700,8.49196875,0.55023193359375,0.983978271484375,0.1700897216796875
1780626041758964500,8.501964599609375,0.4869232177734375,1.005126953125,0.121337890625
1780626041768959500,8.51195947265625,0.4169921875,0.95526123046875,0.0318756103515625
1780626041778955800,8.521955810546874,0.3369140625,0.894134521484375,0.003173828125
1780626041788950800,8.53195068359375,0.273651123046875,0.83563232421875,0.05328369140625
1780626041798945800,8.54194580078125,0.2792510986328125,0.8158416748046875,0.1131439208984375
1780626041808941600,8.551941650390624,0.2534942626953125,0.851531982421875,0.183502197265625
1780626041818936600,8.5619365234375,0.2729644775390625,0.9331207275390625,0.2696533203125
1780626041828932600,8.5719326171875,0.29345703125,1.0494537353515625,0.3378448486328125
1780626041838928000,8.581927978515624,0.3144073486328125,1.1538848876953125,0.399627685546875
1780626041848922600,8.591922607421875,0.29010009765625,1.2091217041015625,0.4164276123046875
1780626041858918700,8.601918701171876,0.227874755859375,1.1753082275390625,0.3520965576171875
1780626041868913700,8.61191357421875,0.2371978759765625,1.08380126953125,0.2184600830078125
1780626041878909700,8.62190966796875,0.2534027099609375,0.9983673095703125,0.084197998046875
1780626041888904400,8.631904541015626,0.251800537109375,0.92657470703125,0.0137176513671875
1780626041898899500,8.6418994140625,0.2767486572265625,0.86773681640625,-0.039093017578125
1780626041908895700,8.651895751953125,0.318939208984375,0.8240203857421875,-0.0841827392578125
1780626041918890800,8.661890869140626,0.3535308837890625,0.8023834228515625,-0.0885467529296875
1780626041928886500,8.671886474609375,0.37371826171875,0.8211822509765625,-0.0396270751953125
1780626041938881500,8.681881591796875,0.3649444580078125,0.86895751953125,0.0164031982421875
1780626041948876500,8.69187646484375,0.3225250244140625,0.90240478515625,0.040863037109375
1780626041958872600,8.70187255859375,0.3165740966796875,0.92169189453125,0.0528717041015625
1780626041968867600,8.71186767578125,0.3074798583984375,0.9392547607421875,0.087310791015625
1780626041978863600,8.721863525390624,0.249359130859375,0.965850830078125,0.161651611328125
1780626041988858600,8.731858642578125,0.197113037109375,1.002166748046875,0.26751708984375
1780626041998853600,8.741853515625,0.164306640625,1.0254974365234375,0.3660888671875
1780626042008849700,8.751849609375,0.1783294677734375,1.0071868896484375,0.4073028564453125
1780626042018844700,8.7618447265625,0.225860595703125,0.9549102783203125,0.3853912353515625
1780626042028840400,8.77184033203125,0.237548828125,0.9156341552734375,0.305328369140625
1780626042038835500,8.78183544921875,0.2365264892578125,0.91729736328125,0.2002716064453125
1780626042048830700,8.791830810546875,0.234130859375,0.94439697265625,0.10302734375
1780626042058826800,8.80182666015625,0.253753662109375,0.96990966796875,0.0452728271484375
1780626042068821800,8.81182177734375,0.2830810546875,0.9741058349609375,0.03509521484375
1780626042078816800,8.821816650390625,0.3050689697265625,0.9517974853515625,0.0668792724609375
1780626042088812500,8.8318125,0.2983856201171875,0.92620849609375,0.118865966796875
1780626042098807600,8.8418076171875,0.2691497802734375,0.9145355224609375,0.1642303466796875
1780626042108803800,8.851803955078125,0.2456817626953125,0.9149017333984375,0.20819091796875
1780626042118798800,8.861798828125,0.2044830322265625,0.909393310546875,0.24774169921875
1780626042128793600,8.871793701171875,0.1745147705078125,0.9019775390625,0.268310546875
1780626042138789600,8.88178955078125,0.1683197021484375,0.9027099609375,0.2879486083984375
1780626042148784600,8.89178466796875,0.23016357421875,0.9103240966796875,0.310577392578125
1780626042158780700,8.90178076171875,0.255035400390625,0.9189453125,0.2997894287109375
1780626042168775700,8.911775634765625,0.229705810546875,0.92645263671875,0.2459564208984375
1780626042178770400,8.9217705078125,0.2464752197265625,0.94366455078125,0.17266845703125
1780626042188766700,8.9317666015625,0.2430572509765625,0.972991943359375,0.1202239990234375
1780626042198761700,8.94176171875,0.2301025390625,0.9850006103515625,0.078887939453125
1780626042208757800,8.9517578125,0.28076171875,0.9739837646484375,0.052093505859375
1780626042218752500,8.96175244140625,0.3207244873046875,0.9756011962890625,0.0457763671875
1780626042228747500,8.97174755859375,0.3203277587890625,0.9874420166015625,0.0501861572265625
1780626042238743600,8.98174365234375,0.3211212158203125,1.00726318359375,0.0961151123046875
1780626042248738600,8.991738525390625,0.331451416015625,1.014617919921875,0.153564453125
1780626042258734600,9.001734619140626,0.3489837646484375,1.0009765625,0.1864471435546875
1780626042268729600,9.0117294921875,0.3175506591796875,0.976593017578125,0.18853759765625
1780626042278724600,9.021724609375,0.32598876953125,0.948333740234375,0.176513671875
1780626042288720600,9.031720703125,0.362335205078125,0.9429931640625,0.1636810302734375
1780626042298715600,9.041715576171875,0.332550048828125,0.953887939453125,0.1427001953125
1780626042308711400,9.05171142578125,0.3308868408203125,0.9557952880859375,0.115966796875
1780626042318706700,9.061706787109374,0.362762451171875,0.944610595703125,0.0830078125
1780626042328701700,9.07170166015625,0.399749755859375,0.9427642822265625,0.0512542724609375
1780626042338697700,9.08169775390625,0.3593597412109375,0.944366455078125,0.017730712890625
1780626042348692700,9.091692626953124,0.2396240234375,0.94378662109375,0.0233612060546875
1780626042358688500,9.1016884765625,0.25146484375,0.92315673828125,0.126495361328125
1780626042368683500,9.11168359375,0.3217926025390625,0.90008544921875,0.2505035400390625
1780626042378678500,9.121678466796874,0.277862548828125,0.87481689453125,0.2859039306640625
1780626042388674800,9.1316748046875,0.2769012451171875,0.8614959716796875,0.2346649169921875
1780626042398669800,9.141669921875,0.279571533203125,0.896514892578125,0.109710693359375
1780626042408664600,9.15166455078125,0.2985992431640625,0.966583251953125,-0.0221405029296875
1780626042418660600,9.16166064453125,0.3837738037109375,1.05889892578125,-0.1072540283203125
1780626042428655600,9.171655517578126,0.3758392333984375,1.128265380859375,-0.1226806640625
1780626042438651600,9.181651611328125,0.3670196533203125,1.119171142578125,-0.0814056396484375
1780626042448646700,9.191646728515625,0.320770263671875,1.0418701171875,-0.025726318359375
1780626042458641400,9.201641357421876,0.2648773193359375,0.951934814453125,0.04791259765625
1780626042468637700,9.2116376953125,0.296417236328125,0.8789825439453125,0.1246490478515625
1780626042478632700,9.2216328125,0.2706298828125,0.850250244140625,0.154571533203125
1780626042488628700,9.231628662109374,0.193878173828125,0.8637237548828125,0.1819610595703125
1780626042498623500,9.24162353515625,0.23992919921875,0.896209716796875,0.2527923583984375
1780626042508618500,9.251618408203125,0.194793701171875,0.9089508056640625,0.292755126953125
1780626042518614500,9.261614501953124,0.17169189453125,0.88616943359375,0.3034820556640625
1780626042528609500,9.271609619140625,0.2110748291015625,0.8578338623046875,0.2833709716796875
1780626042538605600,9.28160546875,0.2031097412109375,0.8408203125,0.198699951171875
1780626042548600600,9.2916005859375,0.2490386962890625,0.8527679443359375,0.06219482421875
1780626042558595600,9.301595703125,0.258636474609375,0.903656005859375,-0.0783233642578125
1780626042568591600,9.311591552734376,0.224029541015625,0.966461181640625,-0.1605072021484375
1780626042578586600,9.321586669921874,0.226806640625,1.0098114013671875,-0.1517181396484375
1780626042588582400,9.33158251953125,0.2059173583984375,1.038360595703125,-0.0324249267578125
1780626042598577700,9.34157763671875,0.1967926025390625,1.056793212890625,0.1424102783203125
1780626042608572700,9.35157275390625,0.2054443359375,1.0599365234375,0.28314208984375
1780626042618568700,9.361568603515625,0.2093353271484375,1.0278167724609375,0.3568115234375
1780626042628563700,9.371563720703126,0.147064208984375,0.9718780517578125,0.3142242431640625
1780626042638559500,9.3815595703125,0.1731109619140625,0.9453887939453125,0.18536376953125
1780626042648554500,9.391554443359375,0.213043212890625,0.9633331298828125,0.0070648193359375
1780626042658549500,9.401549560546876,0.268768310546875,1.0194244384765625,-0.1689910888671875
1780626042668545800,9.4115458984375,0.29693603515625,1.084320068359375,-0.2659759521484375
1780626042678540800,9.421540771484375,0.274749755859375,1.119140625,-0.2254791259765625
1780626042688536600,9.43153662109375,0.25384521484375,1.0883636474609375,-0.0339508056640625
1780626042698531600,9.441531494140625,0.1890106201171875,1.0231475830078125,0.1666412353515625
1780626042708526600,9.451526611328125,0.17889404296875,0.9798126220703125,0.28997802734375
1780626042718522600,9.461522705078124,0.140869140625,1.00762939453125,0.3132171630859375
1780626042728517600,9.471517578125,0.1286468505859375,1.03399658203125,0.239105224609375
1780626042738512600,9.4815126953125,0.2796630859375,1.0530548095703125,0.1785888671875
1780626042748508700,9.4915087890625,0.37811279296875,1.0841064453125,0.1320648193359375
1780626042758503700,9.501503662109375,0.4987030029296875,1.093353271484375,0.1142120361328125
1780626042768499700,9.511499755859376,0.566253662109375,1.0984649658203125,0.1275177001953125
1780626042778494700,9.52149462890625,0.5687408447265625,1.1157073974609375,0.172576904296875
1780626042788489500,9.531489501953125,0.47467041015625,1.1670684814453125,0.254425048828125
1780626042798485500,9.541485595703126,0.3294830322265625,1.19189453125,0.30731201171875
1780626042808480800,9.551480712890625,0.295684814453125,1.196746826171875,0.427825927734375
1780626042818476800,9.561476806640625,0.396148681640625,1.216766357421875,0.5522003173828125
1780626042828471600,9.571471435546876,0.444000244140625,1.2242889404296875,0.6326446533203125
1780626042838466600,9.581466552734375,0.3830108642578125,1.17437744140625,0.5738525390625
1780626042848462600,9.591462646484375,0.312896728515625,1.107452392578125,0.412353515625
1780626042858457600,9.60145751953125,0.3368988037109375,1.0961151123046875,0.28192138671875
1780626042868453600,9.61145361328125,0.4597015380859375,1.0741729736328125,0.1547698974609375
1780626042878448600,9.62144873046875,0.64642333984375,0.9705963134765625,0.0068206787109375
1780626042888443600,9.631443603515624,0.714447021484375,0.8638153076171875,-0.1806793212890625
1780626042898439700,9.641439697265625,0.5526580810546875,0.7834320068359375,-0.347259521484375
1780626042908434700,9.6514345703125,0.36749267578125,0.7279205322265625,-0.33013916015625
1780626042918430500,9.661430419921874,0.4668731689453125,0.6675567626953125,-0.2058258056640625
1780626042928425500,9.671425537109375,0.7659454345703125,0.6254730224609375,-0.108123779296875
1780626042938420500,9.68142041015625,0.9274749755859375,0.6352386474609375,-0.0645751953125
1780626042948416800,9.691416748046874,0.798370361328125,0.678955078125,-0.042449951171875
1780626042958411800,9.701411865234375,0.559326171875,0.7353057861328125,0.017242431640625
1780626042968407600,9.711407470703126,0.382904052734375,0.79766845703125,0.1118316650390625
1780626042978402600,9.721402587890625,0.303924560546875,0.8505401611328125,0.201812744140625
1780626042988397600,9.7313974609375,0.3411102294921875,0.8942718505859375,0.2467498779296875
1780626042998393600,9.7413935546875,0.458526611328125,0.9354705810546875,0.287933349609375
1780626043008388600,9.751388671875,0.558868408203125,0.96112060546875,0.335723876953125
1780626043018384600,9.761384521484375,0.6150360107421875,0.989593505859375,0.3808746337890625
1780626043028379600,9.771379638671876,0.594451904296875,1.00701904296875,0.376983642578125
1780626043038374700,9.781374755859375,0.4952392578125,1.0057525634765625,0.3051605224609375
1780626043048370700,9.79137060546875,0.411865234375,1.0065460205078125,0.192169189453125
1780626043058365700,9.80136572265625,0.3922271728515625,1.0102081298828125,0.097198486328125
1780626043068360400,9.8113603515625,0.4751739501953125,1.0237274169921875,0.0705718994140625
1780626043078356700,9.821356689453125,0.4746856689453125,1.0301666259765625,0.055511474609375
1780626043088351700,9.831351806640624,0.4667816162109375,1.0513153076171875,0.0572509765625
1780626043098347800,9.84134765625,0.48431396484375,1.0851898193359375,0.1001434326171875
1780626043108342500,9.851342529296875,0.5929718017578125,1.125152587890625,0.175689697265625
1780626043118337500,9.861337646484374,0.672027587890625,1.1771392822265625,0.228729248046875
1780626043128333600,9.87133349609375,0.72320556640625,1.2605438232421875,0.224456787109375
1780626043138328600,9.88132861328125,0.7364501953125,1.3492584228515625,0.102874755859375
1780626043148324600,9.89132470703125,0.4742279052734375,1.3655242919921875,-0.1418304443359375
1780626043158319600,9.901319580078125,0.1613006591796875,1.2388916015625,-0.429046630859375
1780626043168314600,9.911314697265626,0.0488128662109375,1.01708984375,-0.5650482177734375
1780626043178310700,9.921310546875,0.135009765625,0.816253662109375,-0.5127105712890625
1780626043188305700,9.9313056640625,0.3760528564453125,0.800048828125,-0.4416351318359375
1780626043198301400,9.941301513671876,0.4988555908203125,0.8838653564453125,-0.4039154052734375
1780626043208296400,9.95129638671875,0.325531005859375,0.848968505859375,-0.486297607421875
1780626043218291500,9.96129150390625,0.07501220703125,0.7337799072265625,-0.5366058349609375
1780626043228287700,9.971287841796874,0.0042724609375,0.5387115478515625,-0.49102783203125
1780626043238282800,9.98128271484375,0.108062744140625,0.355712890625,-0.348846435546875
1780626043248278500,9.991278564453125,0.186065673828125,0.2888336181640625,-0.1424713134765625
1780626043258273500,10.0012734375,0.310211181640625,0.284088134765625,-0.042938232421875
1780626043268268500,10.0112685546875,0.5040283203125,0.301971435546875,-0.10980224609375
1780626043278264600,10.0212646484375,0.538909912109375,0.3370361328125,-0.209259033203125
1780626043288259800,10.031259765625,0.4473876953125,0.314483642578125,-0.2894287109375
1780626043298254800,10.0412548828125,0.36688232421875,0.15863037109375,-0.38311767578125
1780626043308250600,10.051250732421876,0.32586669921875,-0.0094451904296875,-0.42620849609375
1780626043318245600,10.06124560546875,0.3321380615234375,-0.051513671875,-0.3477935791015625
1780626043328241700,10.07124169921875,0.388397216796875,0.0334320068359375,-0.2333526611328125
1780626043338236700,10.081236572265626,0.5117340087890625,0.1830902099609375,-0.1795806884765625
1780626043348231700,10.091231689453124,0.612091064453125,0.3192138671875,-0.156768798828125
1780626043358227700,10.101227783203125,0.5748748779296875,0.4022674560546875,-0.228057861328125
1780626043368222700,10.11122265625,0.531036376953125,0.412322998046875,-0.4105224609375
1780626043378218800,10.12121875,0.636199951171875,0.3950653076171875,-0.557647705078125
1780626043388213800,10.1312138671875,0.70111083984375,0.396514892578125,-0.57098388671875
1780626043398208500,10.14120849609375,0.635223388671875,0.368194580078125,-0.552276611328125
1780626043408204500,10.15120458984375,0.528289794921875,0.3089752197265625,-0.53192138671875
1780626043418199600,10.161199462890625,0.4601287841796875,0.231170654296875,-0.5072479248046875
1780626043428195800,10.17119580078125,0.46270751953125,0.1567840576171875,-0.4883270263671875
1780626043438190600,10.181190673828125,0.5593109130859375,0.0917510986328125,-0.514923095703125
1780626043448185600,10.191185546875,0.6750030517578125,0.048583984375,-0.59234619140625
1780626043458181400,10.201181396484374,0.6797332763671875,0.0897369384765625,-0.680908203125
1780626043468176400,10.21117626953125,0.62078857421875,0.2066802978515625,-0.7729339599609375
1780626043478171400,10.22117138671875,0.6478118896484375,0.372314453125,-0.813812255859375
1780626043488167400,10.23116748046875,0.678192138671875,0.488311767578125,-0.8244781494140625
1780626043498162400,10.241162353515625,0.67266845703125,0.4681854248046875,-0.807098388671875
1780626043508158500,10.251158447265626,0.6748809814453125,0.33349609375,-0.746734619140625
1780626043518153500,10.261153564453124,0.643463134765625,0.1907501220703125,-0.67926025390625
1780626043528148500,10.2711484375,0.6525726318359375,0.10443115234375,-0.6691131591796875
1780626043538144300,10.281144287109376,0.7508392333984375,0.09136962890625,-0.7974090576171875
1780626043548139300,10.29113916015625,0.9808807373046875,0.1404571533203125,-0.924530029296875
1780626043558135600,10.301135498046875,1.1038970947265625,0.212890625,-0.9965667724609375
1780626043568130600,10.311130615234376,0.985687255859375,0.29351806640625,-1.0024871826171875
1780626043578125600,10.32112548828125,0.8368682861328125,0.3687591552734375,-0.9346923828125
1780626043588121300,10.331121337890625,0.696929931640625,0.3993682861328125,-0.8855438232421875
1780626043598116400,10.341116455078126,0.5738525390625,0.3370208740234375,-0.894134521484375
1780626043608112400,10.3511123046875,0.459320068359375,0.1902923583984375,-0.8412933349609375
1780626043618107400,10.361107421875,0.3805999755859375,-0.0071258544921875,-0.734893798828125
1780626043628102700,10.3711025390625,0.3949432373046875,-0.1635894775390625,-0.68048095703125
1780626043638098400,10.381098388671875,0.442901611328125,-0.2390899658203125,-0.7178497314453125
1780626043648093400,10.391093505859375,0.442840576171875,-0.171478271484375,-0.7545928955078125
1780626043658088400,10.40108837890625,0.3458404541015625,0.0215911865234375,-0.77130126953125
1780626043668084500,10.41108447265625,0.3153076171875,0.171630859375,-0.7945404052734375
1780626043678079500,10.42107958984375,0.337432861328125,0.18292236328125,-0.753387451171875
1780626043688075500,10.431075439453124,0.3022003173828125,0.04052734375,-0.677215576171875
1780626043698070500,10.441070556640625,0.2922210693359375,-0.1494293212890625,-0.61700439453125
1780626043708065500,10.4510654296875,0.324371337890625,-0.2805633544921875,-0.5853118896484375
1780626043718061600,10.4610615234375,0.345733642578125,-0.3005218505859375,-0.53985595703125
1780626043728056300,10.471056396484375,0.3679046630859375,-0.2143707275390625,-0.5471649169921875
1780626043738052400,10.48105224609375,0.47869873046875,-0.0872344970703125,-0.626800537109375
1780626043748047400,10.49104736328125,0.5907745361328125,0.0336456298828125,-0.6628265380859375
1780626043758042400,10.50104248046875,0.5638427734375,0.1356201171875,-0.6211700439453125
1780626043768038400,10.511038330078126,0.6029205322265625,0.1931610107421875,-0.59490966796875
1780626043778033400,10.521033447265625,0.6604156494140625,0.17919921875,-0.57891845703125
1780626043788029400,10.531029541015625,0.63836669921875,0.0927581787109375,-0.566497802734375
1780626043798024400,10.5410244140625,0.60552978515625,-0.0051116943359375,-0.5451202392578125
1780626043808019500,10.55101953125,0.5502471923828125,-0.103912353515625,-0.47393798828125
1780626043818015200,10.56101513671875,0.590972900390625,-0.20849609375,-0.39697265625
1780626043828010200,10.57101025390625,0.638702392578125,-0.249420166015625,-0.2400360107421875
1780626043838005500,10.581005615234375,0.6651153564453125,-0.2095184326171875,-0.0875396728515625
1780626043848001500,10.59100146484375,1.0001983642578125,-0.12890625,-0.127655029296875
1780626043857996500,10.60099658203125,1.1787109375,-0.01837158203125,-0.265716552734375
1780626043867992300,10.610992431640625,0.935760498046875,0.09454345703125,-0.5070648193359375
1780626043877987300,10.6209873046875,0.8171844482421875,0.146209716796875,-0.8052520751953125
1780626043887982300,10.630982421875,0.9271697998046875,0.1520233154296875,-1.009765625
1780626043897978400,10.640978271484375,0.92974853515625,0.1503448486328125,-1.1262359619140625
1780626043907973600,10.6509736328125,0.892120361328125,0.153900146484375,-1.17279052734375
1780626043917969400,10.660969482421875,0.9470977783203125,0.1722259521484375,-1.159912109375
1780626043927964400,10.67096435546875,0.9129791259765625,0.2113494873046875,-1.0931549072265625
1780626043937959400,10.68095947265625,0.688812255859375,0.2383270263671875,-1.041473388671875
1780626043947955500,10.69095556640625,0.5205841064453125,0.2075042724609375,-1.00872802734375
1780626043957950500,10.700950439453125,0.4711761474609375,0.127685546875,-0.9114837646484375
1780626043967945200,10.7109453125,0.4396209716796875,0.0351409912109375,-0.76434326171875
1780626043977941500,10.72094140625,0.4235687255859375,-0.0587158203125,-0.6456756591796875
1780626043987936500,10.7309365234375,0.408966064453125,-0.1344451904296875,-0.5649261474609375
1780626043997932500,10.7409326171875,0.38726806640625,-0.1485595703125,-0.5373687744140625
1780626044007927300,10.75092724609375,0.4125213623046875,-0.1072998046875,-0.60955810546875
1780626044017922300,10.76092236328125,0.496002197265625,-0.032684326171875,-0.72869873046875
1780626044027918300,10.77091845703125,0.5911407470703125,0.0491790771484375,-0.836029052734375
1780626044037913300,10.780913330078125,0.6155853271484375,0.10748291015625,-0.90594482421875
1780626044047909400,10.790909423828126,0.5585784912109375,0.1436767578125,-0.9124908447265625
1780626044057904400,10.800904296875,0.4825439453125,0.1558837890625,-0.9275054931640625
1780626044067899400,10.8108994140625,0.48553466796875,0.1097564697265625,-0.9840240478515625
1780626044077895400,10.8208955078125,0.479888916015625,-0.0090789794921875,-1.023193359375
1780626044087890400,10.830890380859374,0.478851318359375,-0.1242828369140625,-1.005157470703125
1780626044097885400,10.840885498046875,0.461334228515625,-0.183319091796875,-0.96466064453125
1780626044107881200,10.850881103515626,0.4556884765625,-0.1783905029296875,-0.96087646484375
1780626044117876500,10.86087646484375,0.4842529296875,-0.15570068359375,-0.9644012451171875
1780626044127872500,10.87087255859375,0.4820556640625,-0.1095733642578125,-0.974090576171875
1780626044137867500,10.880867431640626,0.469512939453125,-0.083953857421875,-1.0357513427734375
1780626044147862500,10.890862548828125,0.4483795166015625,-0.096588134765625,-1.091033935546875
1780626044157858300,10.9008583984375,0.4338531494140625,-0.1144256591796875,-1.1360015869140625
1780626044167853300,10.910853271484376,0.456787109375,-0.134307861328125,-1.2024078369140625
1780626044177849600,10.920849609375,0.51947021484375,-0.12799072265625,-1.263153076171875
1780626044187844600,10.9308447265625,0.5676727294921875,-0.080169677734375,-1.3234710693359375
1780626044197839600,10.940839599609374,0.5539398193359375,0.01837158203125,-1.358123779296875
1780626044207835400,10.95083544921875,0.4938201904296875,0.1358642578125,-1.3227996826171875
1780626044217830400,10.960830322265625,0.41729736328125,0.1980438232421875,-1.2690887451171875
1780626044227825400,10.970825439453124,0.3716888427734375,0.1754913330078125,-1.2415924072265625
1780626044237821400,10.980821533203125,0.3502960205078125,0.098968505859375,-1.223541259765625
1780626044247816400,10.99081640625,0.3862457275390625,0.038726806640625,-1.214385986328125
1780626044257812500,11.0008125,0.464996337890625,0.0469207763671875,-1.1776885986328125
1780626044267807500,11.010807373046875,0.503814697265625,0.134918212890625,-1.0939788818359375
1780626044277802500,11.020802490234376,0.424835205078125,0.2128143310546875,-1.0338592529296875
1780626044287798500,11.030798583984375,0.2417755126953125,0.2420196533203125,-1.0002288818359375
1780626044297793300,11.040793212890625,0.1584930419921875,0.2323760986328125,-0.9896087646484375
1780626044307789300,11.050789306640626,0.191162109375,0.1785888671875,-1.0157928466796875
1780626044317784300,11.060784423828125,0.2274322509765625,0.103057861328125,-1.025543212890625
1780626044327779600,11.070779541015625,0.2897186279296875,0.0659637451171875,-0.986663818359375
1780626044337775400,11.080775390625,0.395172119140625,0.069549560546875,-0.916473388671875
1780626044347770400,11.090770263671875,0.4926910400390625,0.0923004150390625,-0.8500213623046875
1780626044357765400,11.100765380859375,0.4627685546875,0.1327056884765625,-0.836273193359375
1780626044367761400,11.110761474609374,0.3474578857421875,0.1139068603515625,-0.9404754638671875
1780626044377756400,11.12075634765625,0.275726318359375,0.0637054443359375,-1.040985107421875
1780626044387752400,11.13075244140625,0.307037353515625,0.0556488037109375,-1.0319671630859375
1780626044397747500,11.14074755859375,0.352264404296875,0.069305419921875,-0.985015869140625
1780626044407742500,11.150742431640625,0.40728759765625,0.07025146484375,-0.9923553466796875
1780626044417738500,11.160738525390625,0.4868621826171875,0.0803375244140625,-0.99615478515625
1780626044427733500,11.1707333984375,0.52294921875,0.0923919677734375,-0.9838714599609375
1780626044437729300,11.180729248046875,0.447235107421875,0.0985260009765625,-1.00225830078125
1780626044447724300,11.190724365234376,0.3806610107421875,0.08355712890625,-1.0652008056640625
1780626044457719300,11.20071923828125,0.380828857421875,0.0612335205078125,-1.09228515625
1780626044467715300,11.21071533203125,0.3871002197265625,0.03204345703125,-1.04547119140625
1780626044477710300,11.22071044921875,0.36663818359375,-0.0055999755859375,-1.0282135009765625
1780626044487705300,11.230705322265624,0.372314453125,-0.0098419189453125,-1.032196044921875
1780626044497701000,11.240701171875,0.3975067138671875,0.007080078125,-1.0171661376953125
1780626044507696000,11.250696044921876,0.33770751953125,0.014434814453125,-1.027557373046875
1780626044517692400,11.2606923828125,0.3006744384765625,0.0021209716796875,-1.075439453125
1780626044527687400,11.2706875,0.3545379638671875,0.0171356201171875,-1.09906005859375
1780626044537682200,11.28068212890625,0.3893890380859375,0.0503082275390625,-1.102294921875
1780626044547678200,11.29067822265625,0.37689208984375,0.0494537353515625,-1.125091552734375
1780626044557673200,11.300673095703125,0.33514404296875,0.027984619140625,-1.1362457275390625
1780626044567668200,11.310668212890626,0.2968292236328125,-0.00885009765625,-1.0998077392578125
1780626044577664300,11.320664306640625,0.233489990234375,-0.0593109130859375,-1.02935791015625
1780626044587659300,11.3306591796875,0.159942626953125,-0.1065216064453125,-0.9676971435546875
1780626044597655300,11.3406552734375,0.1700439453125,-0.1395416259765625,-0.91119384765625
1780626044607650300,11.350650390625,0.247039794921875,-0.127838134765625,-0.8477325439453125
1780626044617645300,11.360645263671875,0.31170654296875,-0.0950775146484375,-0.8048553466796875
1780626044627641000,11.37064111328125,0.322021484375,-0.097137451171875,-0.819061279296875
1780626044637636000,11.380635986328125,0.3104095458984375,-0.13494873046875,-0.8736572265625
1780626044647632400,11.39063232421875,0.2972564697265625,-0.1633758544921875,-0.892730712890625
1780626044657627400,11.40062744140625,0.2860260009765625,-0.1855316162109375,-0.882843017578125
1780626044667622400,11.410622314453125,0.30450439453125,-0.1880950927734375,-0.8877716064453125
1780626044677618200,11.4206181640625,0.3421173095703125,-0.1737518310546875,-0.9083099365234375
1780626044687613200,11.43061328125,0.39654541015625,-0.1618194580078125,-0.9503326416015625
1780626044697608200,11.440608154296875,0.4565277099609375,-0.149810791015625,-0.9970550537109375
1780626044707604200,11.450604248046876,0.5181732177734375,-0.1317291259765625,-1.0115814208984375
1780626044717599200,11.46059912109375,0.5518341064453125,-0.122894287109375,-0.9919891357421875
1780626044727595300,11.47059521484375,0.528167724609375,-0.154937744140625,-0.9604644775390625
1780626044737590300,11.48059033203125,0.5037689208984375,-0.2135772705078125,-0.929962158203125
1780626044747585300,11.490585205078125,0.496490478515625,-0.270416259765625,-0.9082489013671875
1780626044757581300,11.500581298828125,0.460296630859375,-0.3019561767578125,-0.8787689208984375
1780626044767576300,11.510576416015626,0.4120330810546875,-0.282684326171875,-0.823577880859375
1780626044777571300,11.5205712890625,0.3504180908203125,-0.242462158203125,-0.754119873046875
1780626044787567400,11.5305673828125,0.326446533203125,-0.2197723388671875,-0.7110748291015625
1780626044797562400,11.540562255859374,0.3913421630859375,-0.2276611328125,-0.685577392578125
1780626044807558400,11.550558349609375,0.521942138671875,-0.2415771484375,-0.6561126708984375
1780626044817553400,11.560553466796875,0.64715576171875,-0.2588653564453125,-0.64892578125
1780626044827548200,11.570548095703124,0.7246856689453125,-0.2942352294921875,-0.6845855712890625
1780626044837544200,11.580544189453125,0.7624359130859375,-0.31207275390625,-0.73529052734375
1780626044847539200,11.590539306640625,0.7258453369140625,-0.282562255859375,-0.7659759521484375
1780626044857535500,11.600535400390624,0.6338348388671875,-0.2229156494140625,-0.7860870361328125
1780626044867530200,11.6105302734375,0.56060791015625,-0.159271240234375,-0.806121826171875
1780626044877525200,11.620525146484376,0.509033203125,-0.0977020263671875,-0.8054351806640625
1780626044887521300,11.630521240234375,0.47967529296875,-0.049591064453125,-0.770721435546875
1780626044897516300,11.640516357421875,0.4715423583984375,-0.051849365234375,-0.7296600341796875
1780626044907511300,11.65051123046875,0.50714111328125,-0.10491943359375,-0.694183349609375
1780626044917507000,11.660507080078125,0.5925140380859375,-0.185821533203125,-0.6639251708984375
1780626044927502000,11.670502197265625,0.674041748046875,-0.279937744140625,-0.6527557373046875
1780626044937498400,11.680498291015626,0.675933837890625,-0.3743438720703125,-0.64959716796875
1780626044947493400,11.690493408203125,0.593994140625,-0.453094482421875,-0.6437530517578125
1780626044957488400,11.70048828125,0.5079345703125,-0.5070648193359375,-0.63763427734375
1780626044967484200,11.710484130859374,0.46258544921875,-0.5333099365234375,-0.63128662109375
1780626044977479200,11.720479248046875,0.4547882080078125,-0.5376434326171875,-0.62164306640625
1780626044987474200,11.73047412109375,0.4913482666015625,-0.523529052734375,-0.619354248046875
1780626044997470200,11.74047021484375,0.5475921630859375,-0.506622314453125,-0.6392669677734375
1780626045007465500,11.750465576171875,0.5898590087890625,-0.500518798828125,-0.675506591796875
1780626045017461200,11.760461181640625,0.6064453125,-0.4977569580078125,-0.710845947265625
1780626045027456300,11.770456298828124,0.5958251953125,-0.4936981201171875,-0.7315826416015625
1780626045037451300,11.780451171875,0.553436279296875,-0.4804534912109375,-0.743438720703125
1780626045047447300,11.790447265625,0.463134765625,-0.47332763671875,-0.74676513671875
1780626045057442300,11.8004423828125,0.4262542724609375,-0.4405670166015625,-0.703216552734375
1780626045067437000,11.81043701171875,0.3473968505859375,-0.44097900390625,-0.716552734375
1780626045077433300,11.820433349609376,0.3623809814453125,-0.448150634765625,-0.74591064453125
1780626045087428400,11.830428466796874,0.3275604248046875,-0.4414825439453125,-0.8662261962890625
1780626045097424400,11.84042431640625,0.5025787353515625,-0.4152374267578125,-0.9237213134765625
1780626045107419100,11.850419189453126,0.8060302734375,-0.3944244384765625,-0.812469482421875
1780626045117414100,11.8604140625,0.91552734375,-0.3627166748046875,-0.634307861328125
1780626045127410200,11.87041015625,0.7895965576171875,-0.3769378662109375,-0.5626220703125
1780626045137405200,11.8804052734375,0.6072998046875,-0.4280548095703125,-0.6084747314453125
1780626045147401200,11.890401123046875,0.536865234375,-0.437103271484375,-0.623046875
1780626045157396200,11.900396240234375,0.5571746826171875,-0.41748046875,-0.592132568359375
1780626045167391200,11.91039111328125,0.612457275390625,-0.42144775390625,-0.5836334228515625
1780626045177387300,11.92038720703125,0.6333770751953125,-0.46282958984375,-0.5900726318359375
1780626045187382300,11.93038232421875,0.6257171630859375,-0.501678466796875,-0.5745086669921875
1780626045197377300,11.940377197265626,0.5944061279296875,-0.5138397216796875,-0.5362396240234375
1780626045207373000,11.950373046875,0.553070068359375,-0.5013885498046875,-0.51318359375
1780626045217368300,11.960368408203125,0.5435638427734375,-0.475555419921875,-0.5321044921875
1780626045227364400,11.9703642578125,0.5633544921875,-0.449676513671875,-0.5874176025390625
1780626045237359400,11.980359375,0.613861083984375,-0.411590576171875,-0.6261138916015625
1780626045247354400,11.990354248046875,0.6774139404296875,-0.375274658203125,-0.6285247802734375
1780626045257350100,12.00035009765625,0.7164459228515625,-0.36395263671875,-0.6202850341796875
1780626045267345200,12.01034521484375,0.7055206298828125,-0.379730224609375,-0.6079864501953125
1780626045277340200,12.020340087890625,0.6547088623046875,-0.3948822021484375,-0.5732421875
1780626045287336400,12.03033642578125,0.6426849365234375,-0.4296417236328125,-0.545623779296875
1780626045297331500,12.04033154296875,0.6589508056640625,-0.47711181640625,-0.5186004638671875
1780626045307327200,12.0503271484375,0.681549072265625,-0.5124969482421875,-0.4828033447265625
1780626045317322200,12.060322265625,0.688507080078125,-0.537261962890625,-0.4560546875
1780626045327317200,12.070317138671875,0.6733551025390625,-0.5538330078125,-0.437530517578125
1780626045337313300,12.080313232421876,0.645782470703125,-0.5635528564453125,-0.4356842041015625
1780626045347308000,12.09030810546875,0.6222381591796875,-0.575653076171875,-0.4459075927734375
1780626045357303000,12.100302978515625,0.6310882568359375,-0.585479736328125,-0.4600830078125
1780626045367299300,12.11029931640625,0.6618804931640625,-0.590728759765625,-0.4748382568359375
1780626045377294300,12.12029443359375,0.69482421875,-0.5926513671875,-0.4908294677734375
1780626045387290000,12.1302900390625,0.727508544921875,-0.591583251953125,-0.4976654052734375
1780626045397285000,12.14028515625,0.746124267578125,-0.57818603515625,-0.498565673828125
1780626045407280000,12.150280029296875,0.726715087890625,-0.5457000732421875,-0.4956207275390625
1780626045417276200,12.160276123046875,0.6700439453125,-0.50982666015625,-0.504486083984375
1780626045427271400,12.170271484375,0.6204986572265625,-0.49493408203125,-0.5348968505859375
1780626045437266400,12.180266357421875,0.5883636474609375,-0.49090576171875,-0.5755767822265625
1780626045447262200,12.19026220703125,0.59417724609375,-0.4886474609375,-0.597442626953125
1780626045457257200,12.20025732421875,0.636566162109375,-0.493011474609375,-0.5987548828125
1780626045467253500,12.21025341796875,0.6914215087890625,-0.5064544677734375,-0.5942230224609375
1780626045477248500,12.22024853515625,0.7490234375,-0.516754150390625,-0.5943450927734375
1780626045487243500,12.230243408203124,0.78228759765625,-0.5112762451171875,-0.595245361328125
1780626045497239300,12.2402392578125,0.7639923095703125,-0.4785614013671875,-0.5783233642578125
1780626045507234300,12.250234375,0.7085418701171875,-0.440673828125,-0.5504150390625
1780626045517229300,12.260229248046874,0.65130615234375,-0.45037841796875,-0.5535125732421875
1780626045527225600,12.2702255859375,0.5915069580078125,-0.49468994140625,-0.566070556640625
1780626045537220400,12.280220458984376,0.589080810546875,-0.5368194580078125,-0.5557861328125
1780626045547216400,12.29021630859375,0.64984130859375,-0.536376953125,-0.5263214111328125
1780626045557211400,12.30021142578125,0.802001953125,-0.50616455078125,-0.5011138916015625
1780626045567206400,12.310206298828126,0.92755126953125,-0.4772796630859375,-0.5314178466796875
1780626045577202400,12.320202392578125,0.8770599365234375,-0.44921875,-0.6083984375
1780626045587197200,12.330197265625,0.7332763671875,-0.436248779296875,-0.66162109375
1780626045597193500,12.340193359375,0.535552978515625,-0.447540283203125,-0.6508331298828125
1780626045607188500,12.3501884765625,0.3852386474609375,-0.4759521484375,-0.59503173828125
1780626045617183500,12.36018359375,0.3646240234375,-0.506927490234375,-0.5178680419921875
1780626045627179300,12.37017919921875,0.4820709228515625,-0.5553741455078125,-0.4358978271484375
1780626045637174300,12.38017431640625,0.680572509765625,-0.6071014404296875,-0.3601837158203125
1780626045647169300,12.390169189453125,0.76092529296875,-0.6324462890625,-0.3043365478515625
1780626045657165300,12.400165283203124,0.6702117919921875,-0.622314453125,-0.2944488525390625
1780626045667160300,12.410160400390625,0.549530029296875,-0.596954345703125,-0.3146514892578125
1780626045677155600,12.420155517578126,0.4730377197265625,-0.5692901611328125,-0.318115234375
1780626045687151400,12.4301513671875,0.4763336181640625,-0.536865234375,-0.30828857421875
1780626045697146400,12.440146484375,0.48760986328125,-0.508331298828125,-0.3043212890625
1780626045707142400,12.450142333984376,0.474517822265625,-0.4937744140625,-0.29638671875
1780626045717137400,12.460137451171875,0.5027313232421875,-0.492767333984375,-0.3007965087890625
1780626045727132400,12.47013232421875,0.57586669921875,-0.4986419677734375,-0.313446044921875
1780626045737128400,12.48012841796875,0.715301513671875,-0.499603271484375,-0.3391571044921875
1780626045747123500,12.49012353515625,0.8197784423828125,-0.4939727783203125,-0.39837646484375
1780626045757118500,12.500118408203125,0.794677734375,-0.454986572265625,-0.44622802734375
1780626045767114500,12.510114501953124,0.656768798828125,-0.4029388427734375,-0.4500579833984375
1780626045777109500,12.520109619140625,0.543426513671875,-0.361572265625,-0.4179840087890625
1780626045787105300,12.530105224609375,0.5595703125,-0.34344482421875,-0.391387939453125
1780626045797100300,12.540100341796874,0.690155029296875,-0.348236083984375,-0.38372802734375
1780626045807095300,12.55009521484375,0.8288726806640625,-0.362762451171875,-0.4211273193359375
1780626045817091600,12.560091552734375,0.8088836669921875,-0.364837646484375,-0.4789886474609375
1780626045827086300,12.57008642578125,0.6724395751953125,-0.3487396240234375,-0.5270233154296875
1780626045837081300,12.580081298828125,0.61541748046875,-0.32366943359375,-0.55999755859375
1780626045847077400,12.590077392578126,0.645782470703125,-0.30364990234375,-0.5977325439453125
1780626045857072400,12.600072265625,0.6461639404296875,-0.2864532470703125,-0.603485107421875
1780626045867068400,12.610068359375,0.615386962890625,-0.2588348388671875,-0.574310302734375
1780626045877063200,12.620063232421876,0.5481719970703125,-0.2233123779296875,-0.557403564453125
1780626045887058400,12.630058349609374,0.4102783203125,-0.1899566650390625,-0.5491485595703125
1780626045897054500,12.640054443359375,0.301361083984375,-0.1545257568359375,-0.55157470703125
1780626045907049500,12.650049560546876,0.317779541015625,-0.144134521484375,-0.5933990478515625
1780626045917044500,12.66004443359375,0.51043701171875,-0.166656494140625,-0.7093353271484375
1780626045927040300,12.670040283203125,0.69091796875,-0.2069244384765625,-0.839263916015625
1780626045937035300,12.68003515625,0.7108154296875,-0.213287353515625,-0.879150390625
1780626045947031600,12.690031494140625,0.6749420166015625,-0.18231201171875,-0.848297119140625
1780626045957026600,12.700026611328125,0.69085693359375,-0.114532470703125,-0.793060302734375
1780626045967021600,12.710021484375,0.759674072265625,-0.04010009765625,-0.7638702392578125
1780626045977017300,12.720017333984375,0.863525390625,0.016998291015625,-0.785003662109375
1780626045987012400,12.730012451171875,1.0543975830078125,0.0573577880859375,-0.8255462646484375
1780626045997007400,12.74000732421875,1.1985626220703125,0.082763671875,-0.873809814453125
1780626046007003400,12.75000341796875,0.939666748046875,0.11431884765625,-0.8430328369140625
1780626046016998400,12.759998291015625,0.634124755859375,0.14263916015625,-0.80450439453125
1780626046026994400,12.769994384765624,0.6348876953125,0.1055755615234375,-0.8623046875
1780626046036989400,12.779989501953125,0.7394561767578125,0.0593719482421875,-0.89111328125
1780626046046984400,12.789984375,0.866058349609375,0.0511932373046875,-0.8672943115234375
1780626046056980500,12.79998046875,0.741729736328125,0.0789947509765625,-0.8398590087890625
1780626046066975200,12.809975341796875,0.587921142578125,0.130950927734375,-0.850311279296875
1780626046076970200,12.81997021484375,0.7227020263671875,0.1747894287109375,-0.921783447265625
1780626046086966300,12.82996630859375,0.8877410888671875,0.1888885498046875,-0.983917236328125
1780626046096961500,12.83996142578125,0.8339080810546875,0.190521240234375,-1.0043487548828125
1780626046106957300,12.849957275390626,0.715423583984375,0.194061279296875,-0.99993896484375
1780626046116952300,12.859952392578125,0.6640777587890625,0.1799163818359375,-0.9931488037109375
1780626046126947300,12.869947265625,0.6591644287109375,0.1586761474609375,-0.99462890625
1780626046136943400,12.879943359375,0.666900634765625,0.1479034423828125,-1.0116119384765625
1780626046146938400,12.8899384765625,0.6365814208984375,0.147186279296875,-1.0206451416015625
1780626046156933400,12.899933349609375,0.588348388671875,0.1462554931640625,-1.007537841796875
1780626046166929400,12.909929443359376,0.58172607421875,0.128143310546875,-0.9856719970703125
1780626046176924400,12.91992431640625,0.5940399169921875,0.0988311767578125,-0.9581298828125
1780626046186919400,12.92991943359375,0.584716796875,0.0662078857421875,-0.9398345947265625
1780626046196915500,12.93991552734375,0.56292724609375,0.03533935546875,-0.930572509765625
1780626046206910500,12.949910400390625,0.5514068603515625,0.016387939453125,-0.943817138671875
1780626046216906200,12.95990625,0.5306243896484375,0.0096588134765625,-0.9750213623046875
1780626046226901200,12.9699013671875,0.5771026611328125,0.0126190185546875,-1.0053253173828125
1780626046236896300,12.979896240234375,0.6628265380859375,0.031951904296875,-0.979034423828125
1780626046246892500,12.989892578125,0.6282958984375,0.069061279296875,-0.868682861328125
1780626046256887600,12.999887451171874,0.4902496337890625,0.099700927734375,-0.7462615966796875
1780626046266882300,13.00988232421875,0.429656982421875,0.123870849609375,-0.639617919921875
1780626046276878300,13.01987841796875,0.412628173828125,0.1427459716796875,-0.57403564453125
1780626046286873300,13.029873291015624,0.4161376953125,0.1672210693359375,-0.5581207275390625
1780626046296869400,13.039869384765625,0.4996185302734375,0.1899871826171875,-0.5777130126953125
