time,seconds_elapsed,z,y,x
1780626033326603800,0.069603759765625,-0.3410320580005646,-0.52777498960495,0.31761324405670166
1780626033336598500,0.0795986328125,-0.47609907388687134,-0.6187517642974854,0.5472126007080078
1780626033346593500,0.089593505859375,-0.6220667362213135,-0.6434065699577332,0.7151802778244019
1780626033356589600,0.099589599609375,-0.780653715133667,-0.636699378490448,0.8005894422531128
1780626033366584800,0.109584716796875,-0.8944450616836548,-0.5959210991859436,0.7967482805252075
1780626033376580600,0.11958056640625,-0.8627720475196838,-0.2940048575401306,0.7044540047645569
1780626033386575600,0.12957568359375,-0.646003782749176,0.22983059287071228,0.5568401217460632
1780626033396570600,0.139570556640625,-0.37798380851745605,0.5955960154533386,0.3869307339191437
1780626033406566700,0.149566650390625,-0.2518581449985504,0.4974338710308075,0.2910301983356476
1780626033416561700,0.159561767578125,-0.32577764987945557,0.015286413952708244,0.317710816860199
1780626033426556700,0.169556640625,-0.5153652429580688,-0.6351001262664795,0.44528236985206604
1780626033436552700,0.179552734375,-0.34931233525276184,-1.2125134468078613,0.6297427415847778
1780626033446547000,0.189546875,-0.21661995351314545,-1.4192564487457275,0.7914156317710876
1780626033456543000,0.19954296875,-0.14462698996067047,-1.3713693618774414,0.9029826521873474
1780626033466538000,0.2095380859375,-0.09427269548177719,-1.1476044654846191,0.9869272708892822
1780626033476533000,0.219532958984375,0.003497004508972168,-0.7156565189361572,0.9944102168083191
1780626033486529000,0.229529052734375,0.18635177612304688,-0.18887260556221008,0.9009380340576172
1780626033496524000,0.23952392578125,0.4190438687801361,0.2945428192615509,0.7147839069366455
1780626033506520000,0.24952001953125,0.5831728577613831,0.5764800310134888,0.5079607963562012
1780626033516515000,0.25951513671875,0.6225199699401855,0.6219285130500793,0.32245516777038574
1780626033526510000,0.269510009765625,0.7300295233726501,0.5004611015319824,0.14373371005058289
1780626033536505900,0.279505859375,0.9968093037605286,0.35902759432792664,-0.013949664309620857
1780626033546500900,0.2895009765625,1.3849735260009766,0.18456946313381195,-0.139119490981102
1780626033556496000,0.299495849609375,1.7223314046859741,-0.019532006233930588,-0.2785034775733948
1780626033566492200,0.3094921875,1.9653472900390625,0.026098301634192467,-0.2956618666648865
1780626033576487200,0.319487060546875,2.052943229675293,0.3343091309070587,-0.14073991775512695
1780626033586483000,0.32948291015625,1.8957151174545288,0.5045304298400879,0.03888256847858429
1780626033596478000,0.33947802734375,1.459481954574585,0.4841596186161041,0.17425929009914398
1780626033606473000,0.349472900390625,0.8570652604103088,0.42836135625839233,0.2948681712150574
1780626033616469000,0.359468994140625,0.2541370987892151,0.3483075499534607,0.39400622248649597
1780626033626464000,0.369464111328125,-0.15829816460609436,0.28320205211639404,0.4443254768848419
1780626033636460000,0.3794599609375,-0.35604268312454224,0.25739333033561707,0.4314318001270294
1780626033646455000,0.389455078125,-0.4098762273788452,0.3126469850540161,0.34443530440330505
1780626033656450000,0.399449951171875,-0.3739384710788727,0.42031699419021606,0.1718033403158188
1780626033666446000,0.409446044921875,-0.29237911105155945,0.5231591463088989,-0.0570351742208004
1780626033676440800,0.41944091796875,-0.19484350085258484,0.6615814566612244,-0.2566604018211365
1780626033686435800,0.429435791015625,-0.13044321537017822,0.8698019981384277,-0.35151633620262146
1780626033696432000,0.43943212890625,-0.13126185536384583,1.0212587118148804,-0.35381385684013367
1780626033706427100,0.44942724609375,-0.21087245643138885,1.0658241510391235,-0.2843383848667145
1780626033716423000,0.4594228515625,-0.36620160937309265,0.9762223362922668,-0.23181337118148804
1780626033726418000,0.46941796875,-0.5615552067756653,0.7942740321159363,-0.14716285467147827
1780626033736413000,0.479412841796875,-0.7205187678337097,0.5237464308738708,-0.03188765421509743
1780626033746409000,0.489408935546875,-0.7995520234107971,0.27452149987220764,0.09067226946353912
1780626033756404000,0.499404052734375,-0.7955714464187622,0.10610876977443695,0.1855364590883255
1780626033766400000,0.50939990234375,-0.7642112374305725,-0.05577835440635681,0.22745060920715332
1780626033776395000,0.51939501953125,-0.7389894723892212,-0.26163217425346375,0.26969900727272034
1780626033786390000,0.52939013671875,-0.7413303256034851,-0.31594663858413696,0.30276304483413696
1780626033796386000,0.539385986328125,-0.7781496047973633,-0.23823802173137665,0.3667508065700531
1780626033806381000,0.549381103515625,-0.7061874270439148,-0.19742782413959503,0.5137087106704712
1780626033816376000,0.5593759765625,-0.5676737427711487,-0.3390462398529053,0.5838704705238342
1780626033826371800,0.569371826171875,-0.47851133346557617,-0.5735754370689392,0.518039345741272
1780626033836366800,0.579366943359375,-0.3771221339702606,-0.7133048176765442,0.41567057371139526
1780626033846363100,0.589363037109375,-0.22897163033485413,-0.7039924263954163,0.38514429330825806
1780626033856358100,0.599358154296875,-0.10668939352035522,-0.8550141453742981,0.4418025016784668
1780626033866353200,0.609353271484375,0.0630350410938263,-1.355111002922058,0.5871514081954956
1780626033876349000,0.619348876953125,0.09186216443777084,-1.4186490774154663,0.7756920456886292
1780626033886344000,0.629343994140625,-0.002929101698100567,-1.1841603517532349,0.9378415942192078
1780626033896339000,0.6393388671875,-0.03253785893321037,-0.7858438491821289,0.9817379117012024
1780626033906335200,0.649335205078125,-0.031514864414930344,-0.44466632604599,0.9153000712394714
1780626033916330000,0.659330078125,0.01547235157340765,-0.24310818314552307,0.7359153628349304
1780626033926326000,0.669325927734375,0.04189116507768631,-0.1788947731256485,0.48486456274986267
1780626033936321000,0.679321044921875,0.025112450122833252,-0.08259274065494537,0.23516765236854553
1780626033946316000,0.68931591796875,-0.02545296400785446,0.05631587281823158,0.009183083660900593
1780626033956312000,0.69931201171875,-0.08024749904870987,0.22840668261051178,-0.1724461019039154
1780626033966306800,0.709306884765625,-0.10455845296382904,0.46907296776771545,-0.30638471245765686
1780626033976303000,0.71930322265625,-0.06670880317687988,0.7286984324455261,-0.38860636949539185
1780626033986298000,0.729298095703125,0.03716422989964485,1.008806586265564,-0.4557712972164154
1780626033996293000,0.739293212890625,0.16872571408748627,1.128570318222046,-0.569861650466919
1780626034006289000,0.749288818359375,0.31621676683425903,1.1493818759918213,-0.7164738178253174
1780626034016284000,0.759283935546875,0.5151165723800659,1.240915298461914,-0.8270690441131592
1780626034026279000,0.76927880859375,0.7172024250030518,1.1668227910995483,-0.9191628098487854
1780626034036275000,0.77927490234375,0.8337311744689941,0.8171972036361694,-0.9925494194030762
1780626034046270000,0.78927001953125,0.848543643951416,0.34481820464134216,-1.02756929397583
1780626034056266000,0.799265869140625,0.83060222864151,-0.4670714735984802,-1.0305578708648682
1780626034066261000,0.809260986328125,0.858387291431427,-1.1557096242904663,-0.7362610101699829
1780626034076256000,0.819256103515625,1.1089078187942505,-1.7851989269256592,-0.15431343019008636
1780626034086252000,0.829251953125,1.157001256942749,-1.7072433233261108,0.36582908034324646
1780626034096247000,0.8392470703125,0.9249922633171082,-1.5155351161956787,0.77094566822052
1780626034106242800,0.849242919921875,0.6244969964027405,-1.4007376432418823,1.1240923404693604
1780626034116238000,0.859238037109375,0.3703227937221527,-1.391109824180603,1.362837553024292
1780626034126233000,0.869233154296875,0.16884726285934448,-1.5918713808059692,1.442196011543274
1780626034136229000,0.87922900390625,0.06258393824100494,-1.737425684928894,1.4157830476760864
1780626034146224000,0.88922412109375,0.03305366635322571,-1.6337560415267944,1.2768824100494385
1780626034156219000,0.899218994140625,0.15364213287830353,-1.5971335172653198,1.0431149005889893
1780626034166215000,0.90921484375,0.3510003685951233,-1.4705225229263306,0.7895697355270386
1780626034176210000,0.9192099609375,0.5494428873062134,-1.1788299083709717,0.5717865228652954
1780626034186206200,0.929206298828125,0.7485160231590271,-0.8582150340080261,0.4189698100090027
1780626034196201000,0.939200927734375,0.7689579129219055,-0.49378374218940735,0.24372367560863495
1780626034206196000,0.949196044921875,0.7223930358886719,-0.4216490387916565,0.05776447057723999
1780626034216192000,0.95919189453125,0.9478240609169006,-0.4722086191177368,-0.1332840472459793
1780626034226187000,0.96918701171875,1.1780197620391846,-0.6431556344032288,-0.2883543372154236
1780626034236183000,0.97918310546875,1.1841628551483154,-0.7740169763565063,-0.4994431436061859
1780626034246177800,0.989177734375,1.1941474676132202,-0.9121679067611694,-0.7131838202476501
1780626034256172800,0.9991728515625,1.159793734550476,-0.9554717540740967,-0.8508074879646301
1780626034266169000,1.009169189453125,1.039347767829895,-0.7530331015586853,-0.8032279014587402
1780626034276164000,1.0191640625,0.8691776990890503,-0.4147320091724396,-0.6559880971908569
1780626034286159000,1.0291591796875,0.739823579788208,-0.13561533391475677,-0.45054367184638977
1780626034296155000,1.03915478515625,0.6117436289787292,0.08466457575559616,-0.23546306788921356
1780626034306150000,1.04914990234375,0.4391005039215088,0.2723836898803711,-0.07010427862405777
1780626034316146000,1.05914599609375,0.24073652923107147,0.41781333088874817,0.05643102154135704
1780626034326141200,1.06914111328125,0.046199485659599304,0.5251264572143555,0.1499195098876953
1780626034336136200,1.07913623046875,-0.11440110951662064,0.5566239356994629,0.22139209508895874
1780626034346132000,1.089132080078125,-0.21675628423690796,0.5909913182258606,0.2739304304122925
1780626034356127000,1.099126953125,-0.2610267996788025,0.6444814801216125,0.2918494939804077
1780626034366122000,1.1091220703125,-0.0959344208240509,0.6755341291427612,0.256988525390625
1780626034376118000,1.119117919921875,0.4076078236103058,0.6587559580802917,0.09533704817295074
1780626034386113000,1.129113037109375,0.9587003588676453,0.46764588356018066,-0.24137909710407257
1780626034396109000,1.139109130859375,1.3147759437561035,0.2552795708179474,-0.6687725186347961
1780626034406104000,1.14910400390625,1.4328769445419312,0.11470084637403488,-1.1904247999191284
1780626034416099000,1.15909912109375,1.4458882808685303,0.02514725923538208,-1.7342609167099
1780626034426095000,1.16909521484375,1.4181824922561646,-0.006273606792092323,-2.1655123233795166
1780626034436090000,1.179090087890625,1.3080663681030273,0.13372503221035004,-2.3988842964172363
1780626034446086100,1.189086181640625,1.0577973127365112,0.4186064600944519,-2.389552593231201
1780626034456081200,1.1990810546875,0.7232075929641724,0.8198947906494141,-2.1783337593078613
1780626034466076400,1.209076416015625,0.35768449306488037,1.2468957901000977,-1.7900327444076538
1780626034476072200,1.219072265625,0.0067269993014633656,1.5628056526184082,-1.297773003578186
1780626034486067200,1.229067138671875,-0.29589441418647766,1.6154751777648926,-0.8006852269172668
1780626034496062200,1.239062255859375,-0.45280972123146057,1.3877736330032349,-0.3818555176258087
1780626034506058200,1.249058349609375,-0.31953632831573486,0.8250809907913208,-0.09339069575071335
1780626034516053200,1.25905322265625,-0.09678368270397186,0.3302883207798004,0.033955276012420654
1780626034526049300,1.26904931640625,0.11181799322366714,-0.06820259988307953,0.0480005219578743
1780626034536044300,1.279044189453125,0.2528507709503174,-0.35164976119995117,-0.006502668373286724
1780626034546039300,1.289039306640625,0.3245563507080078,-0.685576319694519,-0.10383517295122147
1780626034556035300,1.299035400390625,0.3879989683628082,-1.016379714012146,-0.23919777572155
1780626034566030300,1.3090302734375,0.5289064049720764,-1.2476348876953125,-0.4321097135543823
1780626034576026000,1.319026123046875,0.7552463412284851,-1.3608053922653198,-0.6715172529220581
1780626034586021000,1.329021240234375,0.9825043678283691,-1.4279921054840088,-0.8829734921455383
1780626034596016000,1.33901611328125,1.148489236831665,-1.4982167482376099,-1.005393624305725
1780626034606012400,1.349012451171875,1.295200228691101,-1.625639796257019,-1.015560507774353
1780626034616007400,1.35900732421875,1.4165807962417603,-1.831968903541565,-0.9277327060699463
1780626034626002400,1.36900244140625,1.5304691791534424,-2.0866217613220215,-0.7459462285041809
1780626034635998200,1.378998291015625,1.709051489830017,-2.459655284881592,-0.5022280812263489
1780626034645993200,1.3889931640625,1.880371332168579,-2.8619704246520996,-0.2379375845193863
1780626034655989200,1.3989892578125,1.8910897970199585,-3.043320655822754,-0.03294634819030762
1780626034665984300,1.408984375,1.6530544757843018,-3.0509111881256104,0.02548881806433201
1780626034675979300,1.418979248046875,1.227507472038269,-3.1034231185913086,-0.1477396935224533
1780626034685975300,1.428975341796875,0.8427501320838928,-3.2106168270111084,-0.5411237478256226
1780626034695970300,1.43897021484375,0.6355884075164795,-3.0411949157714844,-0.89996737241745
1780626034705966300,1.44896630859375,0.5006158351898193,-2.237316370010376,-1.193934440612793
1780626034715961300,1.45896142578125,0.5359436869621277,-1.7741611003875732,-1.5805364847183228
1780626034725956000,1.4689560546875,1.2184747457504272,-2.463777542114258,-1.4995765686035156
1780626034735952400,1.478952392578125,1.8295331001281738,-2.6136510372161865,-1.2168617248535156
1780626034745947400,1.488947509765625,1.9391489028930664,-2.6671109199523926,-0.9786611199378967
1780626034755942400,1.4989423828125,1.714436411857605,-3.1325693130493164,-0.8079661130905151
1780626034765938200,1.508938232421875,1.4662702083587646,-3.5857088565826416,-0.6479934453964233
1780626034775933200,1.51893310546875,1.409364104270935,-3.8227880001068115,-0.5671630501747131
1780626034785929200,1.52892919921875,1.5770587921142578,-3.9947257041931152,-0.5899470448493958
1780626034795924200,1.53892431640625,1.8460241556167603,-4.2352800369262695,-0.6380882263183594
1780626034805919200,1.548919189453125,2.1505227088928223,-4.539365291595459,-0.682913601398468
1780626034815915300,1.558915283203125,2.432650566101074,-4.918967247009277,-0.6695655584335327
1780626034825910300,1.56891015625,2.705883264541626,-5.284478664398193,-0.5622419118881226
1780626034835906300,1.57890625,2.881946325302124,-5.68032169342041,-0.4075412452220917
1780626034845901300,1.5889013671875,2.922985315322876,-6.026665210723877,-0.19761838018894196
1780626034855896300,1.598896240234375,2.8904542922973633,-6.256314754486084,0.0782688558101654
1780626034865892000,1.60889208984375,2.891540288925171,-6.249899387359619,0.35344183444976807
1780626034875887000,1.61888720703125,2.949491024017334,-6.0805816650390625,0.561603307723999
1780626034885882000,1.628882080078125,3.0360426902770996,-5.878235340118408,0.7096332907676697
1780626034895878400,1.63887841796875,3.164447784423828,-5.611785411834717,0.853668749332428
1780626034905873400,1.648873291015625,3.3602592945098877,-5.167222023010254,0.9904128909111023
1780626034915869200,1.658869140625,3.5507352352142334,-4.554434776306152,1.08375084400177
1780626034925864200,1.6688642578125,3.6522834300994873,-3.916980504989624,1.1260417699813843
1780626034935859200,1.678859130859375,3.5734376907348633,-3.3265762329101562,1.1768196821212769
1780626034945855200,1.688855224609375,3.300844669342041,-2.8089144229888916,1.2367279529571533
1780626034955850200,1.698850341796875,2.9052135944366455,-2.316178321838379,1.2880268096923828
1780626034965845200,1.70884521484375,2.50175142288208,-1.6098934412002563,1.2810349464416504
1780626034975841300,1.71884130859375,2.1732194423675537,-0.7478010058403015,1.1791174411773682
1780626034985836300,1.728836181640625,2.018738269805908,0.056481119245290756,0.9619988203048706
1780626034995832300,1.738832275390625,1.9530812501907349,0.6775662302970886,0.703593373298645
1780626035005827000,1.7488271484375,1.9142788648605347,0.8639945983886719,0.5963271856307983
1780626035015822000,1.758822021484375,1.7785186767578125,0.7569293975830078,0.7862259745597839
1780626035025818400,1.768818359375,1.458601713180542,0.7729640007019043,1.0666383504867554
1780626035035813400,1.7788134765625,1.036595344543457,0.8784254789352417,1.222530722618103
1780626035045809200,1.78880908203125,0.6396589279174805,1.0118622779846191,1.2243764400482178
1780626035055804200,1.79880419921875,0.2629188299179077,1.170578956604004,1.0966906547546387
1780626035065799200,1.808799072265625,-0.059575632214546204,1.258882999420166,0.9728659391403198
1780626035075795200,1.818795166015625,-0.2933495044708252,1.4407840967178345,0.905683159828186
1780626035085790200,1.828790283203125,-0.41946449875831604,1.7040998935699463,0.8282821178436279
1780626035095785200,1.83878515625,-0.46898916363716125,2.0155997276306152,0.7013595700263977
1780626035105781200,1.84878125,-0.5148658752441406,2.31844162940979,0.6121237874031067
1780626035115776300,1.8587763671875,-0.5485948324203491,2.590615749359131,0.572191059589386
1780626035125772300,1.868772216796875,-0.5885669589042664,2.7700963020324707,0.5597386360168457
1780626035135767300,1.878767333984375,-0.6663450598716736,2.8708102703094482,0.5717753171920776
1780626035145762300,1.88876220703125,-0.818091630935669,2.8371896743774414,0.5658962726593018
1780626035155758000,1.898758056640625,-0.9980409145355225,2.552466630935669,0.5571523308753967
1780626035165753300,1.90875341796875,-1.1676031351089478,2.0354292392730713,0.6410108208656311
1780626035175749400,1.918749267578125,-1.4486823081970215,1.5267807245254517,0.9836936593055725
1780626035185744400,1.928744384765625,-1.7716538906097412,1.2654623985290527,1.5101388692855835
1780626035195739400,1.938739501953125,-1.8950538635253906,1.2218246459960938,1.9173468351364136
1780626035205735200,1.948735107421875,-1.6972723007202148,1.2768840789794922,1.9496331214904785
1780626035215730200,1.958730224609375,-1.3886390924453735,1.2847363948822021,1.6802189350128174
1780626035225725200,1.96872509765625,-1.260533094406128,1.2168314456939697,1.4263529777526855
1780626035235721500,1.978721435546875,-1.3814523220062256,0.9826192259788513,1.3708289861679077
1780626035245716200,1.98871630859375,-1.6769651174545288,0.705811619758606,1.5230118036270142
1780626035255712300,1.998712158203125,-1.9494632482528687,0.42935606837272644,1.7719342708587646
1780626035265707300,2.008707275390625,-1.9891357421875,0.22989512979984283,1.915150761604309
1780626035275702300,2.018702392578125,-1.6909059286117554,0.4358235001564026,1.8519660234451294
1780626035285698000,2.028697998046875,-1.180464506149292,0.6160144209861755,1.5616254806518555
1780626035295693000,2.038693115234375,-0.9216344356536865,0.6500988602638245,1.381978988647461
1780626035305689300,2.048689453125,-1.1261146068572998,0.7151287198066711,1.5350738763809204
1780626035315684400,2.058684326171875,-1.3509365320205688,0.5120989084243774,1.7122681140899658
1780626035325679400,2.068679443359375,-1.3398361206054688,0.1810048222541809,1.624891757965088
1780626035335675100,2.078675048828125,-0.872306227684021,-0.2537069618701935,0.8120795488357544
1780626035345670100,2.088670166015625,-0.16674889624118805,-0.47618556022644043,-0.6140857338905334
1780626035355666200,2.098666259765625,0.21704722940921783,-0.43896016478538513,-1.4230290651321411
1780626035365661200,2.1086611328125,0.07946662604808807,-0.595790684223175,-0.9147054553031921
1780626035375656400,2.118656494140625,-0.2219422310590744,-1.2499043941497803,0.015942279249429703
1780626035385652200,2.12865234375,-0.49381721019744873,-1.8964483737945557,0.7051537036895752
1780626035395647200,2.138647216796875,-0.5960010886192322,-2.2065396308898926,0.9099792838096619
1780626035405642200,2.148642333984375,-0.5909285545349121,-2.2894837856292725,0.857833981513977
1780626035415638300,2.15863818359375,-0.6111496686935425,-2.3166799545288086,0.7911942601203918
1780626035425633300,2.16863330078125,-0.6835796236991882,-2.3250973224639893,0.7737696170806885
1780626035435629300,2.17862939453125,-0.6927715539932251,-2.0517215728759766,0.6630502939224243
1780626035445623800,2.188623779296875,-0.5489863157272339,-1.4986445903778076,0.3348807692527771
1780626035455618800,2.198618896484375,-0.2941623032093048,-0.850507915019989,-0.07296077907085419
1780626035465614800,2.20861474609375,-0.14309300482273102,-0.30383384227752686,-0.4472416043281555
1780626035475609900,2.21860986328125,-0.1343626230955124,0.010121935978531837,-0.6239692568778992
1780626035485605600,2.228605712890625,-0.20478560030460358,-0.10026151686906815,-0.5407337546348572
1780626035495600600,2.2386005859375,-0.2640846073627472,-0.4246007204055786,-0.3419373035430908
1780626035505595600,2.248595703125,-0.3091350495815277,-0.5697223544120789,-0.18626870214939117
1780626035515592000,2.258592041015625,-0.33530139923095703,-0.5955590009689331,-0.14645791053771973
1780626035525587000,2.2685869140625,-0.3158194124698639,-0.5899658799171448,-0.19590242207050323
1780626035535582000,2.27858203125,-0.26844683289527893,-0.4764624238014221,-0.2853505611419678
1780626035545577700,2.28857763671875,-0.3061085641384125,-0.47026312351226807,-0.6038590669631958
1780626035555572700,2.29857275390625,-0.5392177104949951,-0.593330979347229,-0.5154000520706177
1780626035565568800,2.30856884765625,-0.40594345331192017,-0.25084105134010315,-0.21416132152080536
1780626035575563800,2.318563720703125,-0.27881479263305664,-0.14419741928577423,-0.028433265164494514
1780626035585558500,2.32855859375,-0.22785146534442902,-0.02917848899960518,-0.04155910015106201
1780626035595554800,2.338554931640625,-0.17019376158714294,0.04250422120094299,-0.10928328335285187
1780626035605549800,2.3485498046875,-0.10560139268636703,0.1497163474559784,-0.11243611574172974
1780626035615545900,2.3585458984375,-0.044948428869247437,0.21320796012878418,-0.0904940664768219
1780626035625540600,2.36854052734375,0.05993156135082245,0.22989337146282196,-0.09145119786262512
1780626035635535600,2.37853564453125,0.18119540810585022,0.19478411972522736,-0.1291985809803009
1780626035645531600,2.38853173828125,0.3415682315826416,0.1576145887374878,-0.20849376916885376
1780626035655527000,2.39852685546875,0.4590112566947937,0.1115805134177208,-0.3246227502822876
1780626035665522000,2.40852197265625,0.5771170258522034,-0.14177337288856506,-0.4062216579914093
1780626035675517700,2.418517578125,0.6016263961791992,-0.3850579261779785,-0.35525619983673096
1780626035685512700,2.4285126953125,0.5522812008857727,-0.4989822506904602,-0.2151845097541809
1780626035695508700,2.4385087890625,0.6380267143249512,-0.6426224708557129,-0.05825001746416092
1780626035705503700,2.448503662109375,0.8245603442192078,-1.0293762683868408,0.14524690806865692
1780626035715498800,2.458498779296875,0.9556030631065369,-1.4916183948516846,0.43020594120025635
1780626035725494800,2.468494873046875,1.0522218942642212,-1.8784105777740479,0.7532671093940735
1780626035735489800,2.47848974609375,1.206743597984314,-2.112743854522705,1.0278486013412476
1780626035745485800,2.48848583984375,1.4168438911437988,-2.217470407485962,1.0856976509094238
1780626035755480800,2.498480712890625,1.5837820768356323,-2.2211191654205322,1.023837924003601
1780626035765475800,2.508475830078125,1.6074049472808838,-2.0792236328125,0.9358522891998291
1780626035775471600,2.5184716796875,1.6098438501358032,-1.8960317373275757,0.7875568270683289
1780626035785466600,2.528466552734375,1.6191457509994507,-1.5949565172195435,0.5321988463401794
1780626035795463000,2.538462890625,1.3562006950378418,-1.0377007722854614,0.3158636689186096
1780626035805458000,2.5484580078125,1.0586124658584595,-0.4557507634162903,0.19080987572669983
1780626035815453000,2.558452880859375,0.8883169293403625,-0.08787716180086136,0.0575261190533638
1780626035825448700,2.56844873046875,0.8131250739097595,0.17287205159664154,-0.11756563186645508
1780626035835443700,2.578443603515625,0.6912558674812317,0.23229622840881348,-0.22997073829174042
1780626035845438700,2.588438720703125,0.5200508236885071,-0.012259379960596561,-0.19433754682540894
1780626035855434800,2.598434814453125,0.3788183033466339,-0.38474878668785095,-0.07735899835824966
1780626035865429800,2.6084296875,0.2258339822292328,-0.7201960682868958,0.050894845277071
1780626035875425800,2.61842578125,0.06152625381946564,-0.8153764009475708,0.11065857112407684
1780626035885420800,2.6284208984375,-0.0021701569203287363,-0.6082854270935059,0.04194032400846481
1780626035895415800,2.638415771484375,0.21243028342723846,-1.1158771514892578,-0.21571330726146698
1780626035905411800,2.648411865234375,0.660905659198761,-1.511228084564209,-0.4689660966396332
1780626035915406600,2.658406494140625,1.2815651893615723,-1.8015915155410767,-0.6365206837654114
1780626035925402600,2.668402587890625,1.8949611186981201,-2.1476452350616455,-0.6101663708686829
1780626035935398000,2.67839794921875,2.0485446453094482,-2.0749192237854004,-0.3005307614803314
1780626035945393000,2.688392822265625,1.675763726234436,-1.6712881326675415,0.19360743463039398
1780626035955388700,2.698388671875,0.9973034858703613,-1.3989108800888062,0.6267950534820557
1780626035965383700,2.7083837890625,0.4604155123233795,-1.5666338205337524,0.8945046067237854
1780626035975379700,2.718379638671875,0.28891780972480774,-1.7440807819366455,1.1018152236938477
1780626035985374700,2.728374755859375,0.3362360894680023,-1.870152235031128,1.1651477813720703
1780626035995369700,2.73836962890625,0.35373276472091675,-1.8360658884048462,1.0256307125091553
1780626036005365800,2.74836572265625,0.3010992109775543,-1.4697946310043335,0.758043110370636
1780626036015360800,2.75836083984375,0.28886839747428894,-1.0338466167449951,0.46268096566200256
1780626036025355800,2.768355712890625,0.38261881470680237,-0.8253704309463501,0.18260449171066284
1780626036035351800,2.778351806640625,0.42040640115737915,-0.7164530158042908,-0.009649636223912239
1780626036045346800,2.788346923828125,0.5541080236434937,-0.47800973057746887,-0.1550535261631012
1780626036055342600,2.798342529296875,0.7780724167823792,-0.33891761302948,-0.27697038650512695
1780626036065337600,2.808337646484375,1.056962013244629,-0.293522447347641,-0.3629899322986603
1780626036075332600,2.81833251953125,1.273838996887207,-0.2009461671113968,-0.3460248112678528
1780626036085329000,2.828328857421875,1.4150187969207764,-0.1428985297679901,-0.23107247054576874
1780626036095324000,2.838323974609375,1.4876258373260498,-0.22965872287750244,-0.017526641488075256
1780626036105319700,2.848319580078125,1.5174078941345215,-0.35862454771995544,0.23360171914100647
1780626036115314700,2.858314697265625,1.5328683853149414,-0.5638629198074341,0.4665084779262543
1780626036125309700,2.868309814453125,1.6314970254898071,-0.6200202703475952,0.7018710374832153
1780626036135305700,2.8783056640625,1.8779706954956055,-0.814373791217804,0.9661958813667297
1780626036145301000,2.888301025390625,2.225774049758911,-1.0795446634292603,1.241518259048462
1780626036155296800,2.898296875,2.5970256328582764,-1.19754159450531,1.5625369548797607
1780626036165291800,2.908291748046875,2.8691539764404297,-1.005246877670288,1.9990090131759644
1780626036175286800,2.918286865234375,2.9943416118621826,-0.5522831082344055,2.4821386337280273
1780626036185282800,2.92828271484375,3.148890733718872,-0.18512408435344696,2.9003093242645264
1780626036195277600,2.938277587890625,3.2935166358947754,-0.3416191339492798,2.885150909423828
1780626036205272600,2.9482724609375,3.1914234161376953,-0.7996829152107239,2.241126298904419
1780626036215268900,2.958268798828125,2.494198799133301,-1.1352978944778442,1.451755404472351
1780626036225263900,2.968263916015625,1.9083819389343262,-1.4365381002426147,0.9378596544265747
1780626036235259600,2.978259765625,1.3950380086898804,-0.844601035118103,0.375326544046402
1780626036245254700,2.988254638671875,0.974725067615509,-0.0369124561548233,-0.26324915885925293
1780626036255249700,2.998249755859375,0.6150270700454712,0.3039604425430298,-0.4916980266571045
1780626036265245700,3.00824560546875,0.32678166031837463,0.6284119486808777,-0.48717767000198364
1780626036275240700,3.01824072265625,0.1416834443807602,0.6942868232727051,-0.3827836215496063
1780626036285236700,3.02823681640625,0.05735011398792267,0.48900043964385986,-0.25864994525909424
1780626036295231700,3.038231689453125,0.13177268207073212,0.21126201748847961,-0.18444231152534485
1780626036305226800,3.048226806640625,0.13383916020393372,-0.06198132410645485,-0.11704932153224945
1780626036315222800,3.058222900390625,0.11854328960180283,-0.1855032593011856,-0.14102257788181305
1780626036325217800,3.0682177734375,0.16199053823947906,-0.273853063583374,-0.23038102686405182
1780626036335213600,3.078213623046875,0.3196829557418823,-0.5925242304801941,-0.4096757173538208
1780626036345208600,3.08820849609375,0.532808244228363,-1.3831177949905396,-0.7291784286499023
1780626036355203800,3.098203857421875,0.7233592867851257,-2.0887246131896973,-0.9579410552978516
1780626036365200000,3.108199951171875,1.1129947900772095,-2.558626890182495,-0.9026373624801636
1780626036375195000,3.11819482421875,1.7139477729797363,-2.783838987350464,-0.7660326361656189
1780626036385190000,3.12818994140625,2.080782175064087,-1.7511271238327026,-0.025102535262703896
1780626036395185700,3.138185546875,2.198591709136963,-0.4577779471874237,0.7796748876571655
1780626036405180700,3.1481806640625,2.382096529006958,-0.3872752785682678,0.9923461079597473
1780626036415177000,3.158177001953125,2.445093870162964,-0.7140288949012756,1.141045331954956
1780626036425172000,3.168171875,2.4692533016204834,-0.9661790132522583,1.424631118774414
1780626036435166700,3.178166748046875,2.6377010345458984,-1.1450406312942505,1.7683278322219849
1780626036445162800,3.188162841796875,2.9363880157470703,-1.3527770042419434,2.0628793239593506
1780626036455158800,3.19815869140625,3.247743844985962,-1.8445051908493042,2.248886823654175
1780626036465154600,3.208154541015625,3.4065794944763184,-2.381784200668335,2.293975830078125
1780626036475149600,3.218149658203125,3.315925121307373,-2.7190816402435303,1.938331961631775
1780626036485144600,3.22814453125,3.136650323867798,-2.8475751876831055,1.2959243059158325
1780626036495140900,3.238140869140625,3.118666172027588,-2.5371572971343994,0.7501325607299805
1780626036505135900,3.248135986328125,3.2702207565307617,-1.8206403255462646,0.3409750461578369
1780626036515131600,3.258131591796875,3.4106569290161133,-0.9128685593605042,0.005525678396224976
1780626036525126700,3.268126708984375,3.525242328643799,-0.1894185096025467,-0.2868918180465698
1780626036535121700,3.27812158203125,3.6817657947540283,0.1602577418088913,-0.4504927396774292
1780626036545117700,3.28811767578125,3.8004038333892822,0.16060402989387512,-0.44530045986175537
1780626036555112700,3.29811279296875,3.8920207023620605,-0.060170434415340424,-0.3083881437778473
1780626036565108700,3.308108642578125,3.968024492263794,-0.4131081998348236,-0.08355554938316345
1780626036575103700,3.318103759765625,4.024737358093262,-0.8525723814964294,0.164621502161026
1780626036585098800,3.3280986328125,4.041006088256836,-1.4155484437942505,0.3851858377456665
1780626036595094800,3.3380947265625,4.008266925811768,-1.9876899719238281,0.5598971843719482
1780626036605089800,3.34808984375,3.8834633827209473,-2.516855478286743,0.7337062954902649
1780626036615084500,3.35808447265625,3.726040840148926,-2.7458231449127197,0.9034769535064697
1780626036625080600,3.36808056640625,3.412355661392212,-2.9194867610931396,1.0792020559310913
1780626036635075600,3.37807568359375,2.996349811553955,-2.9261276721954346,1.3198186159133911
1780626036645072000,3.38807177734375,2.328557014465332,-2.6434760093688965,1.538070559501648
1780626036655066600,3.398066650390625,1.330328345298767,-2.441689968109131,1.7443382740020752
1780626036665061600,3.4080615234375,-0.0704534500837326,-2.3151345252990723,1.630471110343933
1780626036675057700,3.4180576171875,-1.7250014543533325,-2.1125142574310303,0.8882617354393005
1780626036685052700,3.428052734375,-2.8712191581726074,-1.6428381204605103,-0.27974483370780945
1780626036695048400,3.43804833984375,-2.7094478607177734,-1.01980721950531,-1.1360336542129517
1780626036705043700,3.448043701171875,-1.2868576049804688,-0.46892839670181274,-1.233891487121582
1780626036715038700,3.458038818359375,0.42101821303367615,-0.21896834671497345,-0.7335597276687622
1780626036725034800,3.46803466796875,2.0107052326202393,-0.6842965483665466,-0.04617852717638016
1780626036735029800,3.47802978515625,2.8919289112091064,-1.3304262161254883,0.30244630575180054
1780626036745025500,3.488025634765625,1.7618439197540283,-1.4877326488494873,0.1796061396598816
1780626036755020500,3.4980205078125,0.21229223906993866,-1.3994197845458984,-0.07587143778800964
1780626036765015600,3.508015625,-0.4954916536808014,-1.16704523563385,-0.17848826944828033
1780626036775011800,3.51801171875,-0.7628259062767029,-0.656441330909729,-0.08182751387357712
1780626036785006800,3.5280068359375,-0.8149961829185486,0.08239763975143433,0.11769118905067444
1780626036795002600,3.538002685546875,-0.6271016597747803,0.7180030941963196,0.3642413020133972
1780626036804997600,3.54799755859375,-0.3772393465042114,1.057404637336731,0.5069435238838196
1780626036814992600,3.55799267578125,-0.2082577645778656,1.1452289819717407,0.4795033633708954
1780626036824988700,3.56798876953125,-0.13622993230819702,1.1594280004501343,0.38151705265045166
1780626036834983700,3.577983642578125,-0.13758708536624908,1.1866707801818848,0.3022052049636841
1780626036844979700,3.587979736328125,-0.18766190111637115,1.233641505241394,0.269267737865448
1780626036854974700,3.597974609375,-0.2406228631734848,1.2831672430038452,0.2818698287010193
1780626036864969700,3.6079697265625,-0.27073362469673157,1.2774862051010132,0.3290219008922577
1780626036874965800,3.6179658203125,-0.27402716875076294,1.2323086261749268,0.3853336274623871
1780626036884960800,3.627960693359375,-0.24807412922382355,1.1805953979492188,0.4176270365715027
1780626036894955500,3.63795556640625,-0.20221316814422607,1.1200462579727173,0.40939414501190186
1780626036904951600,3.64795166015625,-0.15750478208065033,1.0383480787277222,0.36523574590682983
1780626036914946600,3.657946533203125,-0.10898838192224503,0.9535388946533203,0.3069455325603485
1780626036924942800,3.66794287109375,-0.05073314160108566,0.9083118438720703,0.25888949632644653
1780626036934937600,3.6779375,0.006009502336382866,0.8934932351112366,0.24885712563991547
1780626036944932600,3.6879326171875,0.05449887365102768,0.8603808283805847,0.2873910963535309
1780626036954928600,3.6979287109375,0.08792740106582642,0.8068821430206299,0.3652406334877014
1780626036964923600,3.707923583984375,0.11785116046667099,0.7457554340362549,0.478373646736145
1780626036974919700,3.717919677734375,0.12785372138023376,0.733201801776886,0.558542013168335
1780626036984914700,3.727914794921875,0.1422242522239685,0.7555594444274902,0.5533322691917419
1780626036994909700,3.73790966796875,0.18901492655277252,0.7288436889648438,0.48647066950798035
1780626037004905700,3.74790576171875,0.2478024959564209,0.6873595118522644,0.3844285309314728
1780626037014900700,3.757900634765625,0.29387518763542175,0.6606431603431702,0.26817673444747925
1780626037024896500,3.767896484375,0.32323354482650757,0.6743257641792297,0.16707374155521393
1780626037034891500,3.7778916015625,0.3210180699825287,0.6922693252563477,0.10633663088083267
1780626037044886500,3.787886474609375,0.31590864062309265,0.7069830298423767,0.09677791595458984
1780626037054882800,3.7978828125,0.26859384775161743,0.8863096833229065,0.1482461839914322
1780626037064877800,3.8078779296875,0.13096722960472107,1.1971970796585083,0.27680787444114685
1780626037074873600,3.81787353515625,0.0628717914223671,1.6200040578842163,0.5128409266471863
1780626037084868600,3.82786865234375,0.11024608463048935,2.0608603954315186,0.7165273427963257
1780626037094863600,3.837863525390625,0.17180904746055603,2.2936882972717285,0.8127308487892151
1780626037104859600,3.847859619140625,0.2071698158979416,2.2598679065704346,0.7516326308250427
1780626037114854700,3.857854736328125,0.25899386405944824,2.0278313159942627,0.6041225790977478
1780626037124850700,3.8678505859375,0.3336975872516632,1.628077745437622,0.42367392778396606
1780626037134845700,3.877845703125,0.42337578535079956,1.1576852798461914,0.28133007884025574
1780626037144840700,3.8878408203125,0.5181799530982971,0.7122805714607239,0.20723465085029602
1780626037154836700,3.897836669921875,0.578267514705658,0.34415578842163086,0.19613806903362274
1780626037164831700,3.907831787109375,0.6054524779319763,0.09491275995969772,0.1921917051076889
1780626037174826500,3.917826416015625,0.5934048295021057,0.0133680934086442,0.14537785947322845
1780626037184822500,3.927822509765625,0.515976071357727,0.12302562594413757,0.03430584445595741
1780626037194817800,3.93781787109375,0.3653666079044342,0.3863981366157532,-0.11255044490098953
1780626037204813800,3.947813720703125,0.20137524604797363,0.7150481939315796,-0.25684013962745667
1780626037214808600,3.95780859375,0.09631194919347763,1.0421698093414307,-0.3900376260280609
1780626037224804600,3.9678046875,0.08036557585000992,1.2909172773361206,-0.5520398616790771
1780626037234799600,3.977799560546875,0.12988758087158203,1.438360333442688,-0.7855474352836609
1780626037244794600,3.987794677734375,0.2484351545572281,1.462051510810852,-1.0637656450271606
1780626037254790700,3.997790771484375,0.3868468403816223,1.3771313428878784,-1.2744704484939575
1780626037264785700,4.00778564453125,0.4776741862297058,1.2291823625564575,-1.3207602500915527
1780626037274780700,4.01778076171875,0.4666111469268799,1.0529471635818481,-1.1894283294677734
1780626037284776700,4.027776611328125,0.3975942134857178,0.9110504388809204,-0.9357359409332275
1780626037294771700,4.037771728515625,0.32915282249450684,0.8526891469955444,-0.6502940654754639
1780626037304767500,4.047767578125,0.2582060694694519,0.8747696280479431,-0.4028097093105316
1780626037314762500,4.057762451171875,0.15820994973182678,0.9081600904464722,-0.23147204518318176
1780626037324757500,4.067757568359375,0.041468534618616104,0.9041696190834045,-0.15411324799060822
1780626037334753800,4.07775390625,-0.0670560821890831,0.8449225425720215,-0.177536278963089
1780626037344748800,4.087748779296875,-0.1431369036436081,0.750313401222229,-0.28941255807876587
1780626037354744600,4.09774462890625,-0.17567700147628784,0.6358686089515686,-0.44794121384620667
1780626037364739600,4.107739501953125,-0.15753772854804993,0.4919900596141815,-0.564493715763092
1780626037374734600,4.117734619140625,-0.10567771643400192,0.31415319442749023,-0.5798473358154297
1780626037384730600,4.127730712890625,-0.034666743129491806,0.13464203476905823,-0.49332547187805176
1780626037394725600,4.1377255859375,0.03805379942059517,0.012554485350847244,-0.3472321927547455
1780626037404721700,4.1477216796875,0.09756384044885635,-0.0066056521609425545,-0.1941823661327362
1780626037414716700,4.157716552734375,0.1437835395336151,0.05860717222094536,-0.08539383858442307
1780626037424711700,4.167711669921875,0.17174506187438965,0.17966815829277039,-0.04131239280104637
1780626037434707700,4.177707763671875,0.1881120502948761,0.31128159165382385,-0.07465863227844238
1780626037444702700,4.18770263671875,0.19547820091247559,0.3750740587711334,-0.15844149887561798
1780626037454698000,4.197697998046875,0.20341815054416656,0.3443600833415985,-0.2569372057914734
1780626037464693000,4.20769287109375,0.19762295484542847,0.22742658853530884,-0.33667436242103577
1780626037474688000,4.21768798828125,0.17117111384868622,0.0794360488653183,-0.39037325978279114
1780626037484684000,4.22768408203125,0.13281942903995514,-0.02854767069220543,-0.42201995849609375
1780626037494679000,4.237678955078125,0.09456578642129898,-0.04246268421411514,-0.449087530374527
1780626037504675000,4.247675048828125,0.041659481823444366,0.037171877920627594,-0.4665118157863617
1780626037514670000,4.257670166015625,-0.024224992841482162,0.1755198985338211,-0.4618062674999237
1780626037524665000,4.2676650390625,-0.09711014479398727,0.34279289841651917,-0.43272000551223755
1780626037534661000,4.2776611328125,-0.1593860387802124,0.5345942974090576,-0.39753833413124084
1780626037544656100,4.28765625,-0.1899331510066986,0.6719760894775391,-0.3596993684768677
1780626037554652000,4.29765185546875,-0.18598288297653198,0.6914195418357849,-0.318370521068573
1780626037564647000,4.30764697265625,-0.20088021457195282,0.7249167561531067,-0.2928789258003235
1780626037574642000,4.317641845703125,-0.24531212449073792,0.7872693538665771,-0.3133639693260193
1780626037584638200,4.32763818359375,-0.28767719864845276,0.7925205230712891,-0.3579927086830139
1780626037594633200,4.33763330078125,-0.3137820363044739,0.6423725485801697,-0.4325835704803467
1780626037604629000,4.34762890625,-0.30774185061454773,0.24352163076400757,-0.5352219939231873
1780626037614624000,4.3576240234375,-0.2815898656845093,-0.3825468122959137,-0.6421223282814026
1780626037624619000,4.367618896484375,-0.25811582803726196,-0.9987543821334839,-0.7029534578323364
1780626037634615000,4.377614990234375,-0.2562585175037384,-1.313692569732666,-0.7155110836029053
1780626037644610000,4.387610107421875,-0.2763034701347351,-1.22900390625,-0.696462094783783
1780626037654605000,4.39760498046875,-0.30687281489372253,-0.841688334941864,-0.6486091017723083
1780626037664601000,4.40760107421875,-0.3304175138473511,-0.3508915603160858,-0.5639746189117432
1780626037674596000,4.41759619140625,-0.3314705193042755,0.032236117869615555,-0.46092841029167175
1780626037684592000,4.427592041015625,-0.3252791464328766,0.23551660776138306,-0.35153675079345703
1780626037694587000,4.4375869140625,-0.32410043478012085,0.3321413993835449,-0.2509206533432007
1780626037704582000,4.447581787109375,-0.3298441171646118,0.400851845741272,-0.1607479751110077
1780626037714578200,4.457578125,-0.3344796299934387,0.4385923147201538,-0.10564238578081131
1780626037724573200,4.4675732421875,-0.33509862422943115,0.40991538763046265,-0.0913902148604393
1780626037734569000,4.47756884765625,-0.3307667374610901,0.2847098112106323,-0.11986047029495239
1780626037744564000,4.48756396484375,-0.31584712862968445,0.11793147772550583,-0.20525650680065155
1780626037754559000,4.49755908203125,-0.2807469367980957,-0.05127326399087906,-0.3228558301925659
1780626037764555000,4.507554931640625,-0.24768103659152985,-0.19014514982700348,-0.43174150586128235
1780626037774550000,4.517550048828125,-0.22473523020744324,-0.26232269406318665,-0.5113540291786194
1780626037784546000,4.527546142578125,-0.22575350105762482,-0.26666414737701416,-0.5704782605171204
1780626037794541000,4.537541015625,-0.23915745317935944,-0.2523358166217804,-0.6062114834785461
1780626037804536000,4.5475361328125,-0.2685757279396057,-0.24286220967769623,-0.6100396513938904
1780626037814532000,4.557531982421875,-0.2900458872318268,-0.28058135509490967,-0.5900877714157104
1780626037824527000,4.567527099609375,-0.2956753075122833,-0.33321407437324524,-0.5644328594207764
1780626037834523000,4.57752294921875,-0.2932571470737457,-0.3338409960269928,-0.5669633746147156
1780626037844518000,4.587517822265625,-0.2939490079879761,-0.2824600338935852,-0.6021261811256409
1780626037854513200,4.59751318359375,-0.2857067883014679,-0.27474379539489746,-0.6380966901779175
1780626037864509200,4.60750927734375,-0.2924661934375763,-0.30580002069473267,-0.6426421403884888
1780626037874504200,4.617504150390625,-0.29018545150756836,-0.33470624685287476,-0.6129779815673828
1780626037884500000,4.6275,-0.28402650356292725,-0.3684784173965454,-0.55093914270401
1780626037894495000,4.637494873046875,-0.2996819019317627,-0.35595011711120605,-0.458391398191452
1780626037904490000,4.647489990234375,-0.334086537361145,-0.2866273522377014,-0.35771432518959045
1780626037914486000,4.657486083984375,-0.3809128999710083,-0.20425470173358917,-0.2673514187335968
1780626037924481300,4.667481201171875,-0.4192326068878174,-0.16017983853816986,-0.19424974918365479
1780626037934477000,4.67747705078125,-0.46328848600387573,-0.22867581248283386,-0.15121519565582275
1780626037944472000,4.68747216796875,-0.5028524994850159,-0.4044928252696991,-0.1106494814157486
1780626037954467000,4.697467041015625,-0.5169307589530945,-0.6180629134178162,-0.08145271241664886
1780626037964463000,4.707463134765625,-0.5146170258522034,-0.7864124178886414,-0.0879063531756401
1780626037974457900,4.717457763671875,-0.5167765617370605,-0.8960102796554565,-0.15728941559791565
1780626037984454100,4.7274541015625,-0.5255990028381348,-1.0021246671676636,-0.2807002067565918
1780626037994449200,4.73744921875,-0.5382639169692993,-1.1386593580245972,-0.4200194776058197
1780626038004444200,4.747444091796875,-0.5343561172485352,-1.3033149242401123,-0.51963210105896
1780626038014440000,4.75743994140625,-0.5097525119781494,-1.4161897897720337,-0.5445443987846375
1780626038024435000,4.76743505859375,-0.48211273550987244,-1.4265426397323608,-0.5126345157623291
1780626038034431000,4.777430908203125,-0.46505412459373474,-1.3544394969940186,-0.42351293563842773
1780626038044426000,4.787426025390625,-0.4674721956253052,-1.2151544094085693,-0.28579553961753845
1780626038054421000,4.7974208984375,-0.4988122880458832,-0.9920597076416016,-0.1085299625992775
1780626038064417000,4.8074169921875,-0.5559355020523071,-0.6920300722122192,0.08454664051532745
1780626038074412000,4.817412109375,-0.5965108871459961,-0.3958977162837982,0.27890175580978394
1780626038084408000,4.827407958984375,-0.5452081561088562,-0.10905773937702179,0.4131847023963928
1780626038094403000,4.837403076171875,-0.3769248425960541,0.1787213236093521,0.38729000091552734
1780626038104398000,4.847398193359375,-0.18467605113983154,0.532821536064148,0.09146082401275635
1780626038114393900,4.857393798828125,-0.11202874779701233,0.9531431794166565,-0.33584630489349365
1780626038124388900,4.867388916015625,-0.2279476821422577,1.2356479167938232,-0.5856902599334717
1780626038134385200,4.87738525390625,-0.3903823792934418,1.2064075469970703,-0.5587132573127747
1780626038144380200,4.887380126953125,-0.41493961215019226,0.7821202278137207,-0.3522174656391144
1780626038154375200,4.897375244140625,-0.3047766089439392,0.07567169517278671,-0.05451945215463638
1780626038164371000,4.907370849609375,-0.139583557844162,-0.3552844524383545,0.2860700786113739
1780626038174366000,4.917365966796875,-0.02645675092935562,-0.326592355966568,0.5595940351486206
1780626038184362000,4.927362060546875,-0.035191118717193604,-0.1283901035785675,0.668868899345398
1780626038194357200,4.937357177734375,-0.12235824763774872,-0.03795342892408371,0.6134043335914612
1780626038204352300,4.947352294921875,-0.20440149307250977,-0.11247866600751877,0.4722136855125427
1780626038214348000,4.95734814453125,-0.25277966260910034,-0.28252628445625305,0.32987144589424133
1780626038224343000,4.967343017578125,-0.2674948573112488,-0.47640636563301086,0.25283676385879517
1780626038234339000,4.977339111328125,-0.2348245233297348,-0.7076265215873718,0.2499285787343979
1780626038244334000,4.987333984375,-0.1419680118560791,-0.9960146546363831,0.27552422881126404
1780626038254329000,4.9973291015625,-0.04704654961824417,-1.2861791849136353,0.2691076099872589
1780626038264325000,5.0073251953125,0.009578615427017212,-1.4292844533920288,0.19942902028560638
1780626038274320100,5.017320068359375,0.05181661620736122,-1.3566372394561768,0.10650306940078735
1780626038284315100,5.027315185546875,0.0715288519859314,-1.111596941947937,0.06714262068271637
1780626038294311200,5.037311279296875,0.036869946867227554,-0.7918943166732788,0.13949723541736603
1780626038304306000,5.047305908203125,-0.026840537786483765,-0.4586268961429596,0.2989294230937958
1780626038314302000,5.057302001953125,-0.0812920555472374,-0.15801911056041718,0.4488115906715393
1780626038324297000,5.067296875,-0.11145331710577011,0.07282578945159912,0.5329928398132324
1780626038334292000,5.0772919921875,-0.1081525981426239,0.22494155168533325,0.5273362994194031
1780626038344288000,5.0872880859375,-0.0840020701289177,0.30781495571136475,0.469564825296402
1780626038354283000,5.097282958984375,-0.06435459852218628,0.3044116795063019,0.4073925316333771
1780626038364279000,5.107279052734375,-0.07582224905490875,0.18354149162769318,0.34536561369895935
1780626038374274000,5.117274169921875,-0.1194205954670906,-0.005430559162050486,0.3004133403301239
1780626038384269000,5.12726904296875,-0.16534174978733063,-0.17308466136455536,0.3142014741897583
1780626038394264800,5.137264892578125,-0.18216972053050995,-0.22036908566951752,0.387070894241333
1780626038404260000,5.147260009765625,-0.17226985096931458,-0.13410580158233643,0.45233353972435
1780626038414256000,5.157256103515625,-0.1552583873271942,0.016229376196861267,0.48489469289779663
1780626038424251100,5.167251220703125,-0.12365858256816864,0.1766134351491928,0.4929195046424866
1780626038434246100,5.17724609375,-0.06762008368968964,0.3006858825683594,0.47997918725013733
1780626038444242000,5.187241943359375,-0.0112628024071455,0.34469905495643616,0.43727442622184753
1780626038454237400,5.197237548828125,0.02598869428038597,0.27828726172447205,0.36675819754600525
1780626038464233500,5.2072333984375,0.04470270127058029,0.1226900964975357,0.2776690721511841
1780626038474228500,5.217228515625,0.0513203926384449,0.008527304045855999,0.19526684284210205
1780626038484223500,5.227223388671875,0.051438312977552414,0.040816280990839005,0.152579665184021
1780626038494219300,5.23721923828125,0.04206931218504906,0.18861986696720123,0.15761516988277435
1780626038504214300,5.24721435546875,0.009998171590268612,0.35933825373649597,0.19172599911689758
1780626038514210600,5.25721044921875,-0.021971210837364197,0.4599969685077667,0.22950853407382965
1780626038524205600,5.26720556640625,-0.04824201762676239,0.4757396876811981,0.24581845104694366
1780626038534200300,5.277200439453125,-0.06765139847993851,0.46555280685424805,0.2283334583044052
1780626038544196400,5.2871962890625,-0.08637712895870209,0.48608511686325073,0.16584469377994537
1780626038554191400,5.29719140625,-0.11324096471071243,0.5686068534851074,0.07857317477464676
1780626038564187400,5.3071875,-0.12241531908512115,0.7027967572212219,-0.0021892301738262177
1780626038574182100,5.31718212890625,-0.07457136362791061,0.8492216467857361,-0.04609197378158569
1780626038584177400,5.327177490234375,-0.010889106430113316,0.916689932346344,-0.0471038855612278
1780626038594173400,5.33717333984375,0.034337226301431656,0.8574135899543762,-0.022653402760624886
1780626038604168400,5.34716845703125,0.07199988514184952,0.6976155042648315,0.0029180075507611036
1780626038614164500,5.35716455078125,0.11075686663389206,0.5136400461196899,0.015380535274744034
1780626038624159200,5.3671591796875,0.13447636365890503,0.3281334340572357,0.025509152561426163
1780626038634154200,5.377154296875,0.13697734475135803,0.15095466375350952,0.05299750342965126
1780626038644150500,5.387150634765625,0.11487595736980438,-0.015088816173374653,0.08433110266923904
1780626038654145500,5.3971455078125,0.07297990471124649,-0.11185476928949356,0.10846813023090363
1780626038664141300,5.407141357421875,0.036985792219638824,-0.082152359187603,0.12068688869476318
1780626038674136300,5.41713623046875,0.010755255818367004,0.033147066831588745,0.11723516881465912
1780626038684131300,5.42713134765625,-0.011705845594406128,0.16222836077213287,0.10347487777471542
1780626038694127400,5.43712744140625,-0.01827852614223957,0.29326707124710083,0.06245793402194977
1780626038704122400,5.447122314453125,0.0023265876807272434,0.43294528126716614,-0.008920637890696526
1780626038714118400,5.457118408203125,0.03765954449772835,0.5361406207084656,-0.08825460821390152
1780626038724113400,5.467113525390625,0.08175119012594223,0.5429506897926331,-0.14072838425636292
1780626038734108400,5.4771083984375,0.13550709187984467,0.4393601417541504,-0.14157526195049286
1780626038744104400,5.4871044921875,0.13307856023311615,0.16547080874443054,-0.17093528807163239
1780626038754099500,5.497099365234375,-0.23355217278003693,-0.8403622508049011,-0.6967063546180725
1780626038764095200,5.50709521484375,-0.4015015661716461,-1.6462129354476929,-1.1505552530288696
1780626038774090200,5.51709033203125,-0.14052776992321014,-1.3191968202590942,-0.985317051410675
1780626038784085200,5.527085205078125,0.0368342325091362,-0.6712275147438049,-0.7321006059646606
1780626038794081500,5.53708154296875,0.012604793533682823,-0.24561552703380585,-0.5950548648834229
1780626038804076500,5.54707666015625,-0.1859428584575653,-0.2041800618171692,-0.5393763184547424
1780626038814072300,5.557072265625,-0.42214450240135193,-0.48775026202201843,-0.5071227550506592
1780626038824067300,5.5670673828125,-0.5679739117622375,-0.9147024750709534,-0.49667486548423767
1780626038834062300,5.577062255859375,-0.6279957294464111,-1.173022985458374,-0.5061545968055725
1780626038844058400,5.587058349609375,-0.6069216728210449,-1.1887328624725342,-0.526355504989624
1780626038854053400,5.597053466796875,-0.526458740234375,-1.1336376667022705,-0.5339692234992981
1780626038864049400,5.60704931640625,-0.40432387590408325,-1.1167361736297607,-0.4962100386619568
1780626038874044400,5.61704443359375,-0.29688289761543274,-1.2310281991958618,-0.41748061776161194
1780626038884039400,5.627039306640625,-0.1676545888185501,-1.40078866481781,-0.32003819942474365
1780626038894035500,5.637035400390625,0.00506605114787817,-1.3863445520401,-0.22103813290596008
1780626038904030200,5.6470302734375,0.145239919424057,-0.9372799396514893,-0.05051592364907265
1780626038914026500,5.657026611328125,0.23367390036582947,-0.299536794424057,0.2010585218667984
1780626038924021500,5.667021484375,0.32967543601989746,0.32092273235321045,0.4755164384841919
1780626038934016500,5.6770166015625,0.43985894322395325,0.890516459941864,0.6385890245437622
1780626038944012300,5.68701220703125,0.5253486633300781,1.2839877605438232,0.726936399936676
1780626038954007300,5.69700732421875,0.5926499366760254,1.459365963935852,0.7860345840454102
1780626038964003300,5.70700341796875,0.6431372761726379,1.47733473777771,0.853556752204895
1780626038973998300,5.716998291015625,0.6577883958816528,1.4965089559555054,1.0119507312774658
1780626038983993300,5.726993408203125,0.6634116172790527,1.4236810207366943,1.216431975364685
1780626038993989400,5.7369892578125,0.725108802318573,1.1521437168121338,1.2899343967437744
1780626039003984400,5.746984375,0.8821151256561279,0.8691246509552002,1.165336012840271
1780626039013980400,5.75698046875,0.9891462326049805,0.5878192186355591,0.9071651101112366
1780626039023975400,5.766975341796875,0.7267407178878784,0.7134328484535217,0.7882969379425049
1780626039033970400,5.776970458984375,0.43832653760910034,1.27528715133667,0.8793176412582397
1780626039043966200,5.78696630859375,0.22513964772224426,1.6912474632263184,0.8948811292648315
1780626039053961200,5.796961181640625,0.07150348275899887,1.636068344116211,0.7619547247886658
1780626039063957500,5.80695751953125,0.01258162409067154,1.2906686067581177,0.5702821016311646
1780626039073952500,5.816952392578125,0.014706026762723923,0.6694506406784058,0.3598726689815521
1780626039083947500,5.826947509765625,0.04891347885131836,-0.009051498956978321,0.16264764964580536
1780626039093943300,5.836943359375,0.0667678490281105,-0.3502040505409241,0.009993134066462517
1780626039103938300,5.846938232421875,0.07970249652862549,-0.34964874386787415,-0.08473727852106094
1780626039113934300,5.856934326171875,0.08307192474603653,-0.21708643436431885,-0.1299569457769394
1780626039123929600,5.8669296875,0.07671480625867844,-0.08883868902921677,-0.1499389111995697
1780626039133924600,5.876924560546875,0.08405634015798569,0.041443418711423874,-0.16127891838550568
1780626039143920400,5.88692041015625,0.1068200021982193,0.1863638460636139,-0.17245666682720184
1780626039153915400,5.896915283203125,0.11920849233865738,0.32502132654190063,-0.18668965995311737
1780626039163911400,5.906911376953125,0.10090621560811996,0.38217222690582275,-0.21846933662891388
1780626039173906400,5.916906494140625,0.07408631592988968,0.33377301692962646,-0.26256728172302246
1780626039183901200,5.926901123046875,0.06442122161388397,0.24326199293136597,-0.30278724431991577
1780626039193897500,5.9368974609375,0.08082842826843262,0.16745299100875854,-0.3206208348274231
1780626039203892500,5.946892578125,0.10297783464193344,0.11887668818235397,-0.3039711117744446
1780626039213888500,5.956888427734375,0.11621055006980896,0.10686875879764557,-0.2413705587387085
1780626039223883300,5.96688330078125,0.114527128636837,0.16740675270557404,-0.15761983394622803
1780626039233878300,5.976878173828125,0.10878375172615051,0.2838771939277649,-0.08396665006875992
1780626039243874300,5.986874267578125,0.059781093150377274,0.3818901479244232,-0.018212493509054184
1780626039253869300,5.996869384765625,-0.006890876218676567,0.40309369564056396,0.024068117141723633
1780626039263865300,6.006865234375,-0.04436051473021507,0.37693506479263306,0.031936872750520706
1780626039273860400,6.0168603515625,-0.03668661788105965,0.34353822469711304,-0.00559212826192379
1780626039283855400,6.02685546875,0.005185757298022509,0.3377316892147064,-0.07575666159391403
1780626039293851400,6.036851318359375,0.059111304581165314,0.32760316133499146,-0.16439758241176605
1780626039303846400,6.046846435546875,0.10381128638982773,0.27059707045555115,-0.25805774331092834
1780626039313842200,6.05684228515625,0.12849640846252441,0.15785375237464905,-0.3410418629646301
1780626039323837200,6.066837158203125,0.14489874243736267,0.01857956312596798,-0.41083061695098877
1780626039333832400,6.07683251953125,0.14405451714992523,-0.09770230948925018,-0.4471404254436493
1780626039343828500,6.086828369140625,0.1358892321586609,-0.17038096487522125,-0.44023874402046204
1780626039353823500,6.096823486328125,0.12968780100345612,-0.14645487070083618,-0.401200532913208
1780626039363818500,6.106818603515625,0.12426508963108063,-0.05536356940865517,-0.33622118830680847
1780626039373814300,6.116814208984375,0.10805043578147888,0.06988462805747986,-0.25076085329055786
1780626039383809300,6.126809326171875,0.08846118301153183,0.18501143157482147,-0.17237737774848938
1780626039393805300,6.136805419921875,0.08230927586555481,0.2695145905017853,-0.12982912361621857
1780626039403800600,6.146800537109375,0.08961118757724762,0.3293417692184448,-0.12166005373001099
1780626039413795600,6.156795654296875,0.1031767949461937,0.3673085868358612,-0.12107256054878235
1780626039423791400,6.166791259765625,0.11715082824230194,0.3920927345752716,-0.12068187445402145
1780626039433786400,6.176786376953125,0.1333356648683548,0.41916778683662415,-0.1349519044160843
1780626039443782400,6.186782470703125,0.14126425981521606,0.4513891935348511,-0.17897909879684448
1780626039453777200,6.196777099609375,0.15918226540088654,0.49339574575424194,-0.233353391289711
1780626039463772200,6.206772216796875,0.16496607661247253,0.5854819416999817,-0.2911168336868286
1780626039473768200,6.216768310546875,0.1590554565191269,0.7380677461624146,-0.35449284315109253
1780626039483763200,6.22676318359375,0.13436773419380188,0.8809700012207031,-0.4330964982509613
1780626039493759200,6.23675927734375,0.1097223088145256,0.9091926217079163,-0.5061653852462769
1780626039503754200,6.246754150390625,0.0764775425195694,0.779536247253418,-0.53729248046875
1780626039513749200,6.256749267578125,0.060390714555978775,0.5685989260673523,-0.5004457831382751
1780626039523745000,6.2667451171875,0.07299646735191345,0.3981301486492157,-0.4029180109500885
1780626039533740000,6.276739990234375,0.10338792949914932,0.3154592514038086,-0.31428855657577515
1780626039543736300,6.286736328125,0.1336241066455841,0.31123116612434387,-0.27156901359558105
1780626039553731300,6.2967314453125,0.12822002172470093,0.357366681098938,-0.266859769821167
1780626039563726000,6.30672607421875,0.07248662412166595,0.42721569538116455,-0.29047098755836487
1780626039573722000,6.31672216796875,-0.019152479246258736,0.48865455389022827,-0.3441704213619232
1780626039583717000,6.326717041015625,-0.09922810643911362,0.5220749974250793,-0.4154816269874573
1780626039593713200,6.336713134765625,-0.11609097570180893,0.4860442876815796,-0.47235050797462463
1780626039603708000,6.3467080078125,-0.052804626524448395,0.3894796371459961,-0.5091885328292847
1780626039613703200,6.356703125,0.05445099249482155,0.23973435163497925,-0.5474797487258911
1780626039623699200,6.36669921875,0.1490999162197113,0.08776501566171646,-0.5849393606185913
1780626039633694200,6.376694091796875,0.19734680652618408,-0.01887914165854454,-0.6091568470001221
1780626039643690000,6.38668994140625,0.19915248453617096,-0.0771314799785614,-0.6073841452598572
1780626039653685000,6.39668505859375,0.17887544631958008,-0.1266700029373169,-0.5951640009880066
1780626039663680000,6.406679931640625,0.13906773924827576,-0.16044478118419647,-0.5818625688552856
1780626039673676300,6.41667626953125,0.09959569573402405,-0.18527023494243622,-0.562345564365387
1780626039683671300,6.42667138671875,0.07982587814331055,-0.19670023024082184,-0.5128912925720215
1780626039693667000,6.4366669921875,0.10347022116184235,-0.15650461614131927,-0.43519705533981323
1780626039703662000,6.446662109375,0.16065482795238495,-0.08945523947477341,-0.3655760586261749
1780626039713657000,6.456656982421875,0.21279072761535645,-0.05125671625137329,-0.3354090750217438
1780626039723653000,6.466653076171875,0.23129995167255402,-0.05167116969823837,-0.35212406516075134
1780626039733648100,6.476648193359375,0.2210763394832611,-0.05117076262831688,-0.3887731730937958
1780626039743644200,6.48664404296875,0.19556868076324463,-0.03613797202706337,-0.4074486494064331
1780626039753639200,6.49663916015625,0.1672683209180832,-0.016118990257382393,-0.40827661752700806
1780626039763634200,6.50663427734375,0.14339835941791534,-0.007041858974844217,-0.39927878975868225
1780626039773630200,6.516630126953125,0.12176816910505295,-0.011428085155785084,-0.37493136525154114
1780626039783625200,6.526625244140625,0.10546842217445374,-0.01844661310315132,-0.33588287234306335
1780626039793621000,6.53662109375,0.08973872661590576,-0.02511516585946083,-0.2892378866672516
1780626039803616000,6.546615966796875,0.07075390219688416,-0.018995234742760658,-0.25652503967285156
1780626039813611000,6.556611083984375,0.053316060453653336,-0.002898823469877243,-0.2516423761844635
1780626039823607300,6.566607177734375,0.04477867856621742,0.0033524963073432446,-0.28466275334358215
1780626039833602300,6.576602294921875,0.051667746156454086,-0.005570424720644951,-0.351993590593338
1780626039843598000,6.58659814453125,0.07644601166248322,-0.025301899760961533,-0.4373912811279297
1780626039853593000,6.596593017578125,0.10660098493099213,-0.029648179188370705,-0.5086276531219482
1780626039863588000,6.606588134765625,0.12027472257614136,0.004865121562033892,-0.5486295223236084
1780626039873584000,6.616584228515625,0.1209290623664856,0.05911717563867569,-0.5533294677734375
1780626039883579100,6.6265791015625,0.10469530522823334,0.11550746113061905,-0.5222298502922058
1780626039893575200,6.6365751953125,0.07299943268299103,0.16218414902687073,-0.46793094277381897
1780626039903570200,6.646570068359375,0.031021133065223694,0.18743909895420074,-0.4060742259025574
1780626039913565200,6.656565185546875,-0.0021823574788868427,0.18564413487911224,-0.35906195640563965
1780626039923561200,6.666561279296875,-0.022061068564653397,0.16556903719902039,-0.34735506772994995
1780626039933556000,6.676555908203125,-0.01991136372089386,0.11516525596380234,-0.35786575078964233
1780626039943552000,6.686552001953125,0.008031239733099937,0.03899386525154114,-0.3666558563709259
1780626039953547300,6.69654736328125,0.040992118418216705,-0.04704248160123825,-0.3704468607902527
1780626039963542300,6.706542236328125,0.06637385487556458,-0.1478801965713501,-0.37215325236320496
1780626039973538000,6.7165380859375,0.07360406965017319,-0.2544196844100952,-0.38185355067253113
1780626039983533000,6.726532958984375,0.06710299849510193,-0.36409297585487366,-0.3999185860157013
1780626039993529000,6.736529052734375,0.06074976548552513,-0.4827410876750946,-0.4048062860965729
1780626040003524000,6.746524169921875,0.04752757027745247,-0.6023949980735779,-0.3838755786418915
1780626040013519000,6.75651904296875,0.019592076539993286,-0.6875775456428528,-0.3392775058746338
1780626040023515100,6.76651513671875,0.0013578864745795727,-0.6844186186790466,-0.26907578110694885
1780626040033510100,6.77651025390625,-0.0022826548665761948,-0.625664472579956,-0.17142273485660553
1780626040043506200,6.786506103515625,-0.002397351199761033,-0.5052244663238525,-0.0599517747759819
1780626040053501200,6.796501220703125,0.007529315538704395,-0.2812572121620178,0.029159992933273315
1780626040063496200,6.80649609375,0.030780840665102005,0.02048155665397644,0.05901491641998291
1780626040073492000,6.816491943359375,0.059054020792245865,0.2706836760044098,0.031536687165498734
1780626040083487000,6.826487060546875,0.06986451148986816,0.33347225189208984,-0.03228197619318962
1780626040093483300,6.836483154296875,0.06680134683847427,0.21172475814819336,-0.10195639729499817
1780626040103478300,6.846478271484375,0.06236755847930908,0.07672204077243805,-0.1554947942495346
1780626040113473300,6.856473388671875,0.05351867154240608,0.027789924293756485,-0.16577087342739105
1780626040123469000,6.866468994140625,0.030186450108885765,0.03368183970451355,-0.1098494678735733
1780626040133464000,6.876464111328125,-0.0003685285337269306,0.06073981896042824,-0.036809615790843964
1780626040143460000,6.886460205078125,-0.037722423672676086,0.10721946507692337,0.007588833104819059
1780626040153455000,6.896455078125,-0.08714350312948227,0.18234510719776154,0.007527846377342939
1780626040163450400,6.906450439453125,-0.13018208742141724,0.24442945420742035,0.001931212143972516
1780626040173446100,6.916446044921875,-0.14820130169391632,0.2548847794532776,0.03208751603960991
1780626040183441200,6.926441162109375,-0.1617734730243683,0.23020662367343903,0.10928528010845184
1780626040193437200,6.936437255859375,-0.20917774736881256,0.34141650795936584,0.20299018919467926
1780626040203432200,6.94643212890625,-0.2854183614253998,0.5885623097419739,0.2988109886646271
1780626040213427000,6.956427001953125,-0.3645656406879425,0.790577232837677,0.39571940898895264
1780626040223423200,6.96642333984375,-0.4034523069858551,0.826678454875946,0.4692325294017792
1780626040233418200,6.976418212890625,-0.37711575627326965,0.6603783965110779,0.512609601020813
1780626040243414300,6.986414306640625,-0.30475977063179016,0.32151198387145996,0.4885566830635071
1780626040253409000,6.996408935546875,-0.19422632455825806,-0.06891459971666336,0.37202954292297363
1780626040263404000,7.006404052734375,-0.06679937988519669,-0.4181671440601349,0.19673745334148407
1780626040273400000,7.016400146484375,0.04530612379312515,-0.6800922155380249,0.06859678775072098
1780626040283395000,7.02639501953125,0.09320326149463654,-0.6614317297935486,0.027563339099287987
1780626040293391000,7.03639111328125,0.06981457769870758,-0.3344740867614746,0.0610179677605629
1780626040303386000,7.04638623046875,0.0278767179697752,0.04790604114532471,0.1940612494945526
1780626040313381000,7.056381103515625,0.0018429872579872608,0.29348623752593994,0.4149928092956543
1780626040323377200,7.066377197265625,-0.014202026650309563,0.42473140358924866,0.6391624808311462
1780626040333372200,7.0763720703125,-0.019165627658367157,0.4359273314476013,0.8021143674850464
1780626040343368000,7.086367919921875,-0.00883575715124607,0.29447513818740845,0.8671256303787231
1780626040353363000,7.096363037109375,0.02276531234383583,0.025833558291196823,0.8311724066734314
1780626040363358000,7.10635791015625,0.07478023320436478,-0.2883955240249634,0.737266480922699
1780626040373354200,7.116354248046875,0.1234564334154129,-0.5467146635055542,0.6306907534599304
1780626040383349200,7.126349365234375,0.15658460557460785,-0.7129836678504944,0.5304728150367737
1780626040393345000,7.136344970703125,0.17407304048538208,-0.8017212748527527,0.42537567019462585
1780626040403340000,7.146340087890625,0.1766364425420761,-0.8378650546073914,0.27382132411003113
1780626040413335000,7.1563349609375,0.1763344407081604,-0.837363064289093,0.058958545327186584
1780626040423331000,7.1663310546875,0.17753976583480835,-0.7910342216491699,-0.20466360449790955
1780626040433326300,7.176326416015625,0.1518527865409851,-0.6771308183670044,-0.49191001057624817
1780626040443322000,7.186322021484375,0.0899898111820221,-0.48745298385620117,-0.7595861554145813
1780626040453316900,7.19631689453125,0.011954929679632187,-0.24025115370750427,-0.907640814781189
1780626040463312000,7.206311767578125,-0.019389813765883446,0.0405801385641098,-0.8728623390197754
1780626040473308200,7.21630810546875,0.021118730306625366,0.29371145367622375,-0.6730895638465881
1780626040483303200,7.22630322265625,0.07688932120800018,0.5016655325889587,-0.37141290307044983
1780626040493298200,7.236298095703125,0.08662024140357971,0.6812243461608887,-0.00826212577521801
1780626040503294000,7.2462939453125,0.021975498646497726,0.8909570574760437,0.41035252809524536
1780626040513289000,7.2562890625,-0.11103980988264084,1.2041733264923096,0.8248924612998962
1780626040523285000,7.266284912109375,-0.29730960726737976,1.6296319961547852,1.154579997062683
1780626040533280000,7.276280029296875,-0.49358832836151123,1.9383227825164795,1.3466538190841675
1780626040543275000,7.28627490234375,-0.5715338587760925,1.7598296403884888,1.3027619123458862
1780626040553271000,7.29627099609375,-0.41681966185569763,1.0319832563400269,0.9127283692359924
1780626040563266000,7.30626611328125,-0.1785418838262558,0.05489981174468994,0.1710525006055832
1780626040573262000,7.316261962890625,-0.059206441044807434,-0.6300820112228394,-0.5977155566215515
1780626040583256800,7.3262568359375,-0.20475301146507263,-0.6166900992393494,-0.920157790184021
1780626040593251800,7.336251953125,-0.4805654287338257,-0.3753589689731598,-0.7066598534584045
1780626040603248000,7.346248046875,-0.6054892539978027,-0.3177086412906647,-0.2777963876724243
1780626040613243100,7.3562431640625,-0.5536481142044067,-0.4662856161594391,-0.03306254372000694
1780626040623239200,7.3662392578125,-0.4136871099472046,-0.5937201976776123,-0.053809188306331635
1780626040633234000,7.37623388671875,-0.2668076455593109,-0.6226357221603394,-0.12309371680021286
1780626040643229000,7.38622900390625,-0.21625307202339172,-0.6309640407562256,-0.09076161682605743
1780626040653225000,7.396224853515625,-0.2593289315700531,-0.5866761803627014,0.0437016524374485
1780626040663220000,7.406219970703125,-0.3360349237918854,-0.43781277537345886,0.1666242927312851
1780626040673216000,7.416216064453125,-0.38581767678260803,-0.19341155886650085,0.19568416476249695
1780626040683211000,7.4262109375,-0.4044645428657532,0.040996190160512924,0.1654910147190094
1780626040693206000,7.4362060546875,-0.4117056727409363,0.052742328494787216,0.1828622817993164
1780626040703202000,7.4462021484375,-0.41347911953926086,-0.12637048959732056,0.23158207535743713
1780626040713197000,7.456197021484375,-0.39441463351249695,-0.2507246434688568,0.24077850580215454
1780626040723192800,7.46619287109375,-0.3794543147087097,-0.28469187021255493,0.21240900456905365
1780626040733187800,7.476187744140625,-0.3917778432369232,-0.28447669744491577,0.2245279848575592
1780626040743182800,7.486182861328125,-0.4278424084186554,-0.25603440403938293,0.28955501317977905
1780626040753179100,7.49617919921875,-0.4646318554878235,-0.19419153034687042,0.36259007453918457
1780626040763174100,7.506174072265625,-0.501179575920105,-0.10042699426412582,0.3705124258995056
1780626040773170000,7.516169921875,-0.5415964722633362,0.020419003441929817,0.3008928894996643
1780626040783165000,7.5261650390625,-0.5743675231933594,0.10920034348964691,0.25431400537490845
1780626040793160000,7.536159912109375,-0.6000452041625977,0.1936073750257492,0.28155282139778137
1780626040803156000,7.546156005859375,-0.6251937747001648,0.326463907957077,0.35310494899749756
1780626040813151200,7.556151123046875,-0.6496791243553162,0.4899276793003082,0.42572081089019775
1780626040823147000,7.56614697265625,-0.6709309816360474,0.6132152676582336,0.4500809609889984
1780626040833142000,7.57614208984375,-0.6803138256072998,0.6119660139083862,0.37774205207824707
1780626040843137000,7.586136962890625,-0.6679080724716187,0.5061513185501099,0.24210919439792633
1780626040853133000,7.596133056640625,-0.6298664212226868,0.27226898074150085,0.1283501386642456
1780626040863128000,7.606128173828125,-0.5885549783706665,-0.05681559816002846,0.10444507002830505
1780626040873124000,7.6161240234375,-0.5552699565887451,-0.23607829213142395,0.17519406974315643
1780626040883119000,7.626119140625,-0.5333041548728943,-0.23841385543346405,0.2572951316833496
1780626040893114000,7.636114013671875,-0.5129847526550293,-0.14023935794830322,0.2833120822906494
1780626040903110100,7.646110107421875,-0.4674588143825531,-0.026804720982909203,0.2382207214832306
1780626040913105000,7.65610498046875,-0.3918628692626953,0.06207481771707535,0.1435631811618805
1780626040923101000,7.666100830078125,-0.29679420590400696,0.1057499349117279,0.04418093338608742
1780626040933096000,7.676095947265625,-0.20146502554416656,0.06329275667667389,0.009203242138028145
1780626040943091000,7.686091064453125,-0.16248589754104614,-0.029135577380657196,0.07956688106060028
1780626040953087000,7.6960869140625,-0.187228262424469,-0.10451848059892654,0.21874848008155823
1780626040963082000,7.70608203125,-0.23570269346237183,-0.14257709681987762,0.34421539306640625
1780626040973078000,7.716078125,-0.2642076015472412,-0.1452128291130066,0.3867657780647278
1780626040983073000,7.726072998046875,-0.2675361633300781,-0.142918199300766,0.3462503254413605
1780626040993068000,7.736068115234375,-0.2609962224960327,-0.1385815143585205,0.26826900243759155
1780626041003063800,7.746063720703125,-0.2636870741844177,-0.07778327167034149,0.20292210578918457
1780626041013058800,7.756058837890625,-0.2899618446826935,0.03250434994697571,0.2145894169807434
1780626041023055000,7.76605517578125,-0.34330400824546814,0.16019569337368011,0.3049551844596863
1780626041033050000,7.776050048828125,-0.4145345091819763,0.24061623215675354,0.38387954235076904
1780626041043045000,7.786045166015625,-0.46927863359451294,0.2480754554271698,0.37387993931770325
1780626041053041000,7.796041015625,-0.4878312647342682,0.23260913789272308,0.27219778299331665
1780626041063036000,7.806035888671875,-0.4596048891544342,0.18074719607830048,0.13970470428466797
1780626041073032000,7.816031982421875,-0.40685275197029114,0.11833468824625015,0.038589537143707275
1780626041083027200,7.826027099609375,-0.3619942367076874,0.08864545822143555,0.0041680894792079926
1780626041093022200,7.836022216796875,-0.32393741607666016,0.09869249910116196,0.027667555958032608
1780626041103018000,7.84601806640625,-0.26012954115867615,0.12360640615224838,0.019215216860175133
1780626041113013000,7.856012939453125,-0.14560909569263458,0.11344192177057266,-0.07373150438070297
1780626041123009000,7.866009033203125,0.017407100647687912,0.04062214493751526,-0.252598375082016
1780626041133004000,7.876004150390625,0.21805976331233978,-0.019585803151130676,-0.49169617891311646
1780626041142999000,7.8859990234375,0.41437289118766785,0.03720182180404663,-0.632014274597168
1780626041152995000,7.8959951171875,0.5549103021621704,0.36325448751449585,-0.5798531174659729
1780626041162990000,7.905989990234375,0.6245003342628479,0.8894478678703308,-0.4331761300563812
1780626041172985000,7.915985107421875,0.613820493221283,1.3290646076202393,-0.3312375247478485
1780626041182981000,7.925981201171875,0.5543777942657471,1.5373586416244507,-0.31063324213027954
1780626041192976000,7.935975830078125,0.47713330388069153,1.574548602104187,-0.31328150629997253
1780626041202972000,7.945971923828125,0.35197582840919495,1.4143688678741455,-0.3209225535392761
1780626041212967000,7.955966796875,0.14065267145633698,1.2350372076034546,-0.33503463864326477
1780626041222962000,7.9659619140625,-0.1400848925113678,1.1984745264053345,-0.3908194601535797
1780626041232958000,7.9759580078125,-0.4300490617752075,1.106324315071106,-0.5076480507850647
1780626041242953000,7.985952880859375,-0.6062399744987488,0.6564167737960815,-0.5909519195556641
1780626041252949000,7.995948974609375,-0.6127450466156006,0.108101986348629,-0.6383956074714661
1780626041262944000,8.005944091796875,-0.450528085231781,-0.22661636769771576,-0.6311296820640564
1780626041272939000,8.01593896484375,-0.2197744995355606,-0.36875271797180176,-0.6134606599807739
1780626041282934800,8.025934814453125,0.009973719716072083,-0.5028040409088135,-0.6238789558410645
1780626041292930000,8.035929931640625,0.1840163618326187,-0.5623201131820679,-0.6778894662857056
1780626041302926000,8.045926025390624,0.24776986241340637,-0.32439613342285156,-0.7338080406188965
1780626041312921000,8.055921142578125,0.18166033923625946,-0.08367060869932175,-0.7773640751838684
1780626041322916000,8.065916015625,0.03628719225525856,-0.06186491996049881,-0.7266576290130615
1780626041332911900,8.075911865234374,-0.11639183014631271,-0.05520568788051605,-0.5717948079109192
1780626041342907000,8.085906982421875,-0.21294854581356049,0.030770165845751762,-0.40469440817832947
1780626041352903000,8.09590283203125,-0.25679829716682434,0.08107700943946838,-0.32858553528785706
1780626041362898200,8.105898193359375,-0.2522910535335541,-0.013878758065402508,-0.4163031578063965
1780626041372893200,8.11589306640625,-0.18883724510669708,-0.11998602002859116,-0.525802493095398
1780626041382889000,8.125888916015626,-0.07726826518774033,-0.047857992351055145,-0.4565104842185974
1780626041392884000,8.135884033203125,0.04504246637225151,0.2034573256969452,-0.25405430793762207
1780626041402880000,8.1458798828125,0.09054185450077057,0.3950320780277252,-0.05478622019290924
1780626041412875000,8.155875,0.052005648612976074,0.23041142523288727,0.07404659688472748
1780626041422870000,8.1658701171875,0.0075352806597948074,-0.032410915940999985,0.0828709751367569
1780626041432866000,8.175865966796875,-0.01152336597442627,-0.27812907099723816,-0.07386617362499237
1780626041442861000,8.185861083984374,0.02468675561249256,-0.4325784742832184,-0.3245227038860321
1780626041452857900,8.19585791015625,0.13285502791404724,-0.5092066526412964,-0.5518008470535278
1780626041462852600,8.2058525390625,0.26767826080322266,-0.5088328719139099,-0.6192083358764648
1780626041472847600,8.21584765625,0.3537207245826721,-0.22039549052715302,-0.4056054949760437
1780626041482843600,8.22584375,0.3215259313583374,0.2675931453704834,-0.10350963473320007
1780626041492838700,8.235838623046876,0.1835678070783615,0.7158611416816711,0.12801119685173035
1780626041502834400,8.24583447265625,0.0653608962893486,0.8572812676429749,0.20325012505054474
1780626041512829400,8.255829345703125,0.04855874553322792,0.6626933813095093,0.1317056268453598
1780626041522824400,8.265824462890626,0.08785557746887207,0.3525913953781128,0.06301489472389221
1780626041532820700,8.27582080078125,0.11988728493452072,0.14494630694389343,0.06627807021141052
1780626041542815700,8.285815673828125,0.13268861174583435,0.0730985477566719,0.0637098029255867
1780626041552811500,8.2958115234375,0.13188114762306213,0.1018148809671402,-0.0156641136854887
1780626041562806500,8.305806640625,0.11955555528402328,0.16641449928283691,-0.08863463997840881
1780626041572801500,8.315801513671875,0.10722246021032333,0.22102154791355133,-0.0783415213227272
1780626041582797600,8.325797607421874,0.11550725996494293,0.20552410185337067,-0.054209914058446884
1780626041592792800,8.335792724609375,0.16270913183689117,0.25896891951560974,0.02867085672914982
1780626041602787800,8.345787841796875,0.23381160199642181,0.2511986792087555,0.1495942622423172
1780626041612783600,8.35578369140625,0.2953338325023651,0.2359587401151657,0.2840934693813324
1780626041622778600,8.365778564453125,0.30156034231185913,0.14381395280361176,0.3407946825027466
1780626041632774700,8.375774658203126,0.25960224866867065,-0.12100439518690109,0.24041932821273804
1780626041642769700,8.385769775390624,0.2267504632472992,-0.21942846477031708,0.10349050164222717
1780626041652764700,8.3957646484375,0.22774754464626312,-0.21462412178516388,-0.014809773303568363
1780626041662760700,8.4057607421875,0.24149179458618164,-0.268099308013916,-0.05377945303916931
1780626041672755700,8.415755615234374,0.26228630542755127,-0.30758681893348694,-0.011008820496499538
1780626041682751700,8.425751708984375,0.27274027466773987,-0.3204088509082794,0.09048886597156525
1780626041692746800,8.435746826171876,0.2524411380290985,-0.18410536646842957,0.2620939016342163
1780626041702741500,8.445741455078124,0.19527338445186615,0.006781785748898983,0.44121253490448
1780626041712737500,8.455737548828125,0.18393364548683167,-0.09649080783128738,0.47110915184020996
1780626041722732500,8.465732666015626,0.2396555095911026,-0.18494898080825806,0.39086467027664185
1780626041732728800,8.475728759765625,0.2828251123428345,-0.12809714674949646,0.26630276441574097
1780626041742723600,8.4857236328125,0.31879302859306335,-0.23725441098213196,0.09916482120752335
1780626041752718600,8.495718505859376,0.32086870074272156,-0.2724984288215637,0.033982619643211365
1780626041762714600,8.505714599609375,0.23486079275608063,-0.08733640611171722,0.027620511129498482
1780626041772709600,8.515709716796875,0.12864167988300323,0.04953755438327789,0.0850776806473732
1780626041782705700,8.52570556640625,0.09824589639902115,0.008185068145394325,0.18915463984012604
1780626041792700400,8.535700439453125,0.1298176795244217,-0.14840932190418243,0.20320548117160797
1780626041802695700,8.54569580078125,0.19786091148853302,-0.22308604419231415,0.15621913969516754
1780626041812691700,8.555691650390624,0.32922613620758057,-0.27009403705596924,0.11063914000988007
1780626041822686700,8.565686767578125,0.4835992753505707,-0.3660207986831665,0.1127406433224678
1780626041832682500,8.5756826171875,0.6467663645744324,-0.4426122307777405,0.16530637443065643
1780626041842677500,8.585677490234374,0.7714678645133972,-0.3923867344856262,0.28474515676498413
1780626041852672500,8.595672607421875,0.7490296363830566,-0.1392359733581543,0.44042450189590454
1780626041862668500,8.60566845703125,0.5040393471717834,0.13430023193359375,0.5599695444107056
1780626041872663800,8.615663818359375,0.17170053720474243,0.2689155638217926,0.609620988368988
1780626041882659600,8.62565966796875,0.009362652897834778,0.2805972397327423,0.608062207698822
1780626041892654600,8.635654541015626,0.0226153414696455,0.18374790251255035,0.5329219102859497
1780626041902649600,8.645649658203125,0.09805402159690857,0.00999805424362421,0.38167667388916016
1780626041912645600,8.655645751953125,0.154249906539917,-0.17510388791561127,0.19665275514125824
1780626041922640600,8.665640625,0.147905170917511,-0.2939448654651642,0.06981092691421509
1780626041932636700,8.67563671875,0.11713367700576782,-0.30501988530158997,0.03698054328560829
1780626041942631700,8.685631591796875,0.07218724489212036,-0.1685766726732254,0.09321567416191101
1780626041952626700,8.695626708984374,0.022738203406333923,-0.02138776332139969,0.16867022216320038
1780626041962622700,8.705622802734375,-0.016426702961325645,-0.007191663607954979,0.2141270935535431
1780626041972617700,8.71561767578125,-0.009203411638736725,-0.031068766489624977,0.23162992298603058
1780626041982613500,8.725613525390624,0.05070000886917114,-0.01563665270805359,0.23954367637634277
1780626041992608500,8.7356083984375,0.15176111459732056,0.02058260329067707,0.23037734627723694
1780626042002603500,8.745603515625,0.2290189266204834,0.02834584191441536,0.19144520163536072
1780626042012599800,8.755599853515625,0.2213524878025055,-0.055146120488643646,0.13779263198375702
1780626042022594800,8.7655947265625,0.14276884496212006,-0.10928015410900116,0.09804815798997879
1780626042032590600,8.775590576171876,0.06610628962516785,-0.07156899571418762,0.07491221278905869
1780626042042585600,8.785585693359375,0.027641456574201584,0.009199948981404305,0.07720217853784561
1780626042052580600,8.79558056640625,0.019867155700922012,0.03895172104239464,0.07280556857585907
1780626042062576600,8.80557666015625,0.029987404122948647,-0.03778799995779991,0.0442749448120594
1780626042072571400,8.8155712890625,0.033358968794345856,-0.17566357553005219,-0.004897128790616989
1780626042082566700,8.825566650390625,0.02936321124434471,-0.22461581230163574,-0.05716690793633461
1780626042092562700,8.835562744140624,0.02653120830655098,-0.1509312093257904,-0.05282462388277054
1780626042102557700,8.8455576171875,0.025207672268152237,-0.036268483847379684,0.014610965736210346
1780626042112553500,8.855553466796875,0.024416713044047356,0.12107186764478683,0.09753594547510147
1780626042122548500,8.865548583984374,0.011775936931371689,0.2913103997707367,0.16548126935958862
1780626042132543500,8.87554345703125,-0.00357505539432168,0.3833385705947876,0.19790364801883698
1780626042142539800,8.885539794921876,-0.001422607572749257,0.3071727752685547,0.15823045372962952
1780626042152534800,8.89553466796875,0.014064207673072815,0.15107877552509308,0.07063402235507965
1780626042162530600,8.905530517578125,0.02383318915963173,0.10154931247234344,0.0033446415327489376
1780626042172525600,8.915525634765626,0.006156455725431442,0.1460864096879959,-0.02810782380402088
1780626042182520600,8.9255205078125,-0.008634157478809357,0.21827077865600586,0.007915422320365906
1780626042192516600,8.9355166015625,-0.021185901015996933,0.2899295389652252,0.11626453697681427
1780626042202511600,8.94551171875,-0.05508818477392197,0.2910885214805603,0.19161078333854675
1780626042212507600,8.955507568359375,-0.10211002081632614,0.2172667682170868,0.20213931798934937
1780626042222502700,8.965502685546875,-0.15792395174503326,0.1759737730026245,0.14220941066741943
1780626042232497700,8.97549755859375,-0.17694345116615295,0.12175234407186508,0.07767116278409958
1780626042242493700,8.98549365234375,-0.1394868940114975,0.07742376625537872,0.041598379611968994
1780626042252488700,8.99548876953125,-0.09026741981506348,0.066141277551651,0.01536011602729559
1780626042262484500,9.005484375,-0.060868412256240845,0.13982312381267548,0.00953728798776865
1780626042272479500,9.0154794921875,-0.0641411691904068,0.2214423567056656,0.01762344501912594
1780626042282474500,9.025474609375,-0.08485858142375946,0.2054784744977951,0.03903525322675705
1780626042292470800,9.035470703125,-0.10699796676635742,0.2002781331539154,0.08838948607444763
1780626042302465800,9.0454658203125,-0.13524368405342102,0.2760949730873108,0.12308800220489502
1780626042312461600,9.055461669921876,-0.17301051318645477,0.3084063231945038,0.14438103139400482
1780626042322456600,9.06545654296875,-0.2106860876083374,0.21144111454486847,0.15294335782527924
1780626042332451600,9.07545166015625,-0.22648555040359497,0.09822215139865875,0.13753750920295715
1780626042342447600,9.085447509765626,-0.22048678994178772,0.1424378752708435,0.11012923717498779
1780626042352442600,9.095442626953124,-0.2013799399137497,0.14957648515701294,0.0682009607553482
1780626042362438700,9.105438720703125,-0.1389530450105667,-0.05980343371629715,0.03016018494963646
1780626042372433700,9.11543359375,-0.05766644328832626,-0.20015308260917664,0.044226471334695816
1780626042382428700,9.1254287109375,-0.03256803750991821,-0.1398995965719223,0.08759462833404541
1780626042392424700,9.1354248046875,-0.08319871872663498,0.028580758720636368,0.13378235697746277
1780626042402419500,9.14541943359375,-0.1697085052728653,0.1548628956079483,0.17418339848518372
1780626042412414500,9.15541455078125,-0.2222883552312851,0.048156432807445526,0.16632841527462006
1780626042422410800,9.16541064453125,-0.1974591463804245,-0.09190221130847931,0.125654399394989
1780626042432405800,9.17540576171875,-0.13586528599262238,-0.19818469882011414,0.054045457392930984
1780626042442401500,9.185401611328125,-0.12016446143388748,-0.281935453414917,0.021833986043930054
1780626042452396500,9.195396484375,-0.13966678082942963,-0.3227044343948364,0.05167124420404434
1780626042462391600,9.2053916015625,-0.13333244621753693,-0.40606412291526794,0.05604362487792969
1780626042472387600,9.2153876953125,-0.08875298500061035,-0.458811491727829,0.004946354776620865
1780626042482382600,9.225382568359375,-0.028050227090716362,-0.36852559447288513,-0.008324090391397476
1780626042492378600,9.235378662109374,0.04170754924416542,-0.3917824327945709,-0.020302724093198776
1780626042502373600,9.24537353515625,0.1012641116976738,-0.3618335425853729,0.004504092503339052
1780626042512368600,9.25536865234375,0.12726162374019623,-0.21665076911449432,0.07709839940071106
1780626042522364700,9.26536474609375,0.13611750304698944,-0.07894313335418701,0.17977461218833923
1780626042532359700,9.275359619140625,0.13621923327445984,0.12397908419370651,0.28675833344459534
1780626042542355500,9.28535546875,0.11950822919607162,0.29124364256858826,0.3328080475330353
1780626042552350500,9.2953505859375,0.09805833548307419,0.32192298769950867,0.36390310525894165
1780626042562345700,9.305345703125,0.1173715814948082,0.3083658218383789,0.37698090076446533
1780626042572341800,9.315341796875,0.17477548122406006,0.20502904057502747,0.3265906870365143
1780626042582336800,9.325336669921874,0.24416840076446533,0.12419817596673965,0.22719399631023407
1780626042592332500,9.33533251953125,0.3103639483451843,0.10640666633844376,0.13076838850975037
1780626042602327600,9.34532763671875,0.387111097574234,0.13421787321567535,0.06308485567569733
1780626042612322600,9.355322509765625,0.45464593172073364,0.20774827897548676,0.04461902752518654
1780626042622318800,9.36531884765625,0.47474613785743713,0.49947434663772583,0.13737168908119202
1780626042632313900,9.37531396484375,0.46479684114456177,0.7951781749725342,0.23807671666145325
1780626042642309600,9.3853095703125,0.44370198249816895,0.9350102543830872,0.26737985014915466
1780626042652304600,9.3953046875,0.3897972106933594,0.8779181838035583,0.2033877968788147
1780626042662299600,9.405299560546876,0.31065550446510315,0.6147201061248779,0.1487036943435669
1780626042672295700,9.415295654296875,0.2860388457775116,0.33872100710868835,0.13895227015018463
1780626042682290400,9.42529052734375,0.37215888500213623,0.238983154296875,0.12313992530107498
1780626042692286700,9.43528662109375,0.5344074368476868,0.24358908832073212,0.15884439647197723
1780626042702281700,9.44528173828125,0.6748848557472229,0.2637099027633667,0.2286924421787262
1780626042712276700,9.45527685546875,0.7770053744316101,0.376512348651886,0.30196133255958557
1780626042722272500,9.4652724609375,0.7916864156723022,0.7419189810752869,0.2828423082828522
1780626042732267500,9.475267578125,0.6811511516571045,0.7155113220214844,0.20879660546779633
1780626042742262500,9.485262451171875,0.5353421568870544,0.33010607957839966,0.14766809344291687
1780626042752258600,9.495258544921874,0.4316410422325134,-0.03248010203242302,0.04878997802734375
1780626042762253600,9.505253662109375,0.4206141531467438,-0.14097119867801666,-0.03524118661880493
1780626042772249600,9.51524951171875,0.46811535954475403,-0.06553396582603455,-0.05700107663869858
1780626042782244600,9.52524462890625,0.6334837675094604,-0.028647050261497498,0.13168752193450928
1780626042792239600,9.535239501953125,0.8240678310394287,0.0981961190700531,0.38874539732933044
1780626042802235600,9.545235595703126,0.9883270859718323,0.18868298828601837,0.5008198022842407
1780626042812230700,9.555230712890625,1.1387014389038086,-0.05302124470472336,0.43149080872535706
1780626042822226400,9.565226318359375,1.2808045148849487,-0.3881208598613739,0.23828116059303284
1780626042832221700,9.5752216796875,1.3086694478988647,-0.5877072215080261,0.12494474649429321
1780626042842216700,9.585216796875,1.125835657119751,-0.4109569787979126,0.13518282771110535
1780626042852212700,9.595212646484375,0.8176144957542419,-0.03432237729430199,0.18759889900684357
1780626042862207700,9.605207763671874,0.5167323350906372,0.19818232953548431,0.2532408535480499
1780626042872203500,9.61520361328125,0.2773290276527405,0.16883455216884613,0.32334908843040466
1780626042882198500,9.625198486328125,0.05157986283302307,0.12785494327545166,0.23607508838176727
1780626042892193500,9.635193603515624,-0.19428636133670807,0.33763453364372253,0.046799175441265106
1780626042902189800,9.64518994140625,-0.36241966485977173,0.7394894957542419,-0.13216426968574524
1780626042912184800,9.655184814453126,-0.4348451495170593,1.0392911434173584,-0.4782199561595917
1780626042922180600,9.6651806640625,-0.475736528635025,1.0923008918762207,-1.1683611869812012
1780626042932175600,9.675175537109375,-0.5183138251304626,0.923236608505249,-1.9758540391921997
1780626042942170600,9.685170654296876,-0.5535303950309753,0.7399708032608032,-2.484194755554199
1780626042952166700,9.695166748046875,-0.6018018126487732,0.6768754720687866,-2.5405495166778564
1780626042962161700,9.70516162109375,-0.6691949367523193,0.7687928080558777,-2.3218767642974854
1780626042972157700,9.71515771484375,-0.7684842348098755,1.0111186504364014,-2.0287365913391113
1780626042982152700,9.725152587890625,-0.9269111752510071,1.3985884189605713,-1.829487681388855
1780626042992147700,9.735147705078125,-1.1161450147628784,1.8156729936599731,-1.7992697954177856
1780626043002143700,9.745143798828124,-1.2947524785995483,2.092407703399658,-1.8684155941009521
1780626043012138500,9.755138427734375,-1.4245022535324097,2.1927547454833984,-1.9683200120925903
1780626043022134500,9.765134521484375,-1.4915714263916016,2.1452713012695312,-2.005113124847412
1780626043032129500,9.775129638671874,-1.52772057056427,2.095824718475342,-1.8986927270889282
1780626043042124800,9.785124755859375,-1.5807912349700928,2.1891531944274902,-1.7175624370574951
1780626043052120600,9.79512060546875,-1.7011765241622925,2.489650011062622,-1.5736500024795532
1780626043062115600,9.805115478515624,-1.8520525693893433,2.5308706760406494,-1.422627329826355
1780626043072110600,9.815110595703125,-2.035806655883789,2.3242347240448,-1.2113323211669922
1780626043082106600,9.825106689453126,-2.227353572845459,2.1766676902770996,-1.0336711406707764
1780626043092101600,9.8351015625,-2.3970940113067627,2.2174952030181885,-0.953386127948761
1780626043102097700,9.84509765625,-2.5253050327301025,2.272911310195923,-0.9790862798690796
1780626043112092700,9.8550927734375,-2.604336738586426,2.4590280055999756,-1.146523356437683
1780626043122087700,9.865087646484374,-2.615543842315674,2.654005289077759,-1.4092040061950684
1780626043132083700,9.875083740234375,-2.5880911350250244,2.4385085105895996,-1.5429551601409912
1780626043142078700,9.88507861328125,-2.5873656272888184,2.1433041095733643,-1.301607370376587
1780626043152074500,9.895074462890625,-2.741633415222168,2.1539084911346436,-0.7447449564933777
1780626043162069500,9.905069580078125,-3.05828857421875,2.2607839107513428,-0.18446050584316254
1780626043172064500,9.915064453125,-3.3554677963256836,2.2450592517852783,0.12819381058216095
1780626043182060800,9.925060791015625,-3.56823992729187,2.0471270084381104,0.10680294036865234
1780626043192055800,9.935055908203125,-3.632253408432007,1.4592669010162354,-0.04384249076247215
1780626043202051600,9.945051513671874,-3.6369988918304443,0.7308467626571655,-0.1097346842288971
1780626043212046600,9.955046630859375,-3.6226038932800293,0.19068290293216705,-0.07360038161277771
1780626043222041600,9.96504150390625,-3.5557737350463867,-0.08263899385929108,-0.14360469579696655
1780626043232037600,9.97503759765625,-3.394439220428467,-0.20820064842700958,-0.45835810899734497
1780626043242032600,9.98503271484375,-3.0722105503082275,-0.4084315001964569,-0.8077185153961182
1780626043252028700,9.995028564453126,-2.742429733276367,-0.6224655508995056,-1.0169785022735596
1780626043262023700,10.005023681640624,-2.6484713554382324,-0.702241837978363,-1.089685320854187
1780626043272018700,10.015018798828125,-2.738218069076538,-0.6533531546592712,-1.0065875053405762
1780626043282014700,10.0250146484375,-2.821057081222534,-0.4687202572822571,-0.858791172504425
1780626043292009500,10.035009521484374,-2.8219223022460938,-0.2157769352197647,-0.7954984903335571
1780626043302004500,10.04500439453125,-2.719832420349121,-0.006003309041261673,-0.8412646055221558
1780626043312000800,10.055000732421876,-2.4746477603912354,0.17742589116096497,-0.9742953777313232
1780626043321995800,10.064995849609375,-2.158329486846924,0.3712131977081299,-1.1318864822387695
1780626043331991600,10.074991455078125,-2.0313050746917725,0.6098183393478394,-1.299304485321045
1780626043341986600,10.084986572265626,-2.028773546218872,0.7312909364700317,-1.440165638923645
1780626043351981600,10.094981689453125,-1.9595985412597656,0.6396092176437378,-1.439163327217102
1780626043361977600,10.1049775390625,-1.9179413318634033,0.5370074510574341,-1.3604381084442139
1780626043371972600,10.11497265625,-1.9458696842193604,0.6164767146110535,-1.4515477418899536
1780626043381968600,10.12496875,-1.9008214473724365,0.5701238512992859,-1.627739667892456
1780626043391963600,10.134963623046875,-1.7533526420593262,0.3730888366699219,-1.694839358329773
1780626043401958700,10.144958740234374,-1.5855356454849243,0.4246862828731537,-1.7035917043685913
1780626043411954700,10.15495458984375,-1.4846417903900146,0.5916486978530884,-1.6389988660812378
1780626043421949700,10.16494970703125,-1.4484502077102661,0.6735286116600037,-1.50260329246521
1780626043431945500,10.174945556640624,-1.453471064567566,0.7529853582382202,-1.3852084875106812
1780626043441940500,10.1849404296875,-1.4715102910995483,0.779669463634491,-1.2941442728042603
1780626043451935500,10.194935546875,-1.4313788414001465,0.7195866703987122,-1.2080658674240112
1780626043461931500,10.204931640625,-1.3649821281433105,0.6229448318481445,-1.1142899990081787
1780626043471926500,10.214926513671875,-1.2791005373001099,0.47937408089637756,-1.0998340845108032
1780626043481921500,10.224921630859376,-1.1825120449066162,0.34795501828193665,-1.1824673414230347
1780626043491917300,10.234917236328124,-1.1147228479385376,0.3237908184528351,-1.276838779449463
1780626043501912300,10.244912353515625,-1.0853002071380615,0.28381073474884033,-1.3166494369506836
1780626043511908600,10.25490869140625,-1.0709593296051025,0.3462466895580292,-1.3038043975830078
1780626043521903600,10.264903564453125,-1.0383764505386353,0.48855817317962646,-1.2989088296890259
1780626043531898600,10.274898681640625,-1.0301589965820312,0.5776411890983582,-1.3000544309616089
1780626043541894400,10.284894287109376,-1.0240238904953003,0.5176787972450256,-1.3431966304779053
1780626043551889400,10.294889404296875,-0.9400206208229065,0.24449676275253296,-1.3714245557785034
1780626043561885400,10.304885498046875,-0.7756447196006775,0.22175757586956024,-1.4366722106933594
1780626043571880400,10.31488037109375,-0.6209076046943665,0.23545554280281067,-1.583879828453064
1780626043581875200,10.324875244140625,-0.5832557082176208,0.08464271575212479,-1.7340983152389526
1780626043591871500,10.33487158203125,-0.6508467793464661,-0.10914485901594162,-1.7260087728500366
1780626043601866500,10.344866455078124,-0.6845362186431885,-0.18904471397399902,-1.5668680667877197
1780626043611862500,10.354862548828125,-0.6242920160293579,-0.12734699249267578,-1.3547486066818237
1780626043621857300,10.364857177734375,-0.49647971987724304,-0.1203484833240509,-1.1373920440673828
1780626043631852300,10.374852294921874,-0.3479975759983063,-0.15392214059829712,-0.909877598285675
1780626043641848300,10.384848388671875,-0.21069097518920898,-0.12590500712394714,-0.7077730298042297
1780626043651843300,10.39484326171875,-0.12688609957695007,-0.1832955926656723,-0.5514931082725525
1780626043661838600,10.404838623046874,-0.15800286829471588,-0.2921554446220398,-0.4065486192703247
1780626043671834400,10.41483447265625,-0.22296828031539917,-0.4839155673980713,-0.2648407518863678
1780626043681829400,10.424829345703126,-0.26738879084587097,-0.6418152451515198,-0.13967297971248627
1780626043691825400,10.434825439453125,-0.20897075533866882,-0.8197786211967468,0.0230935737490654
1780626043701820400,10.4448203125,-0.0924244150519371,-0.8478212952613831,0.24417731165885925
1780626043711815400,10.4548154296875,0.028386687859892845,-0.6272777318954468,0.4681033492088318
1780626043721811500,10.4648115234375,0.14688649773597717,-0.36835092306137085,0.6540316939353943
1780626043731806500,10.474806396484375,0.2096950113773346,-0.23975643515586853,0.8063690662384033
1780626043741802500,10.484802490234374,0.18287265300750732,-0.24657045304775238,0.8718648552894592
1780626043751797500,10.494797607421875,0.12427299469709396,-0.31723690032958984,0.8513518571853638
1780626043761792500,10.50479248046875,0.08536220341920853,-0.46742165088653564,0.7719869017601013
1780626043771788300,10.514788330078124,0.07288236916065216,-0.6500183343887329,0.6381864547729492
1780626043781783300,10.524783203125,0.06338757276535034,-0.792830228805542,0.5009082555770874
1780626043791779600,10.534779541015626,0.11512080579996109,-0.8952932357788086,0.42447471618652344
1780626043801774600,10.544774658203124,0.2615395486354828,-0.8772093653678894,0.4320574700832367
1780626043811769600,10.55476953125,0.43715426325798035,-0.8306975364685059,0.5250052809715271
1780626043821765400,10.564765380859376,0.6264947056770325,-0.6277254223823547,0.5936733484268188
1780626043831760400,10.574760498046874,0.8659150004386902,-0.19418278336524963,0.5936791896820068
1780626043841755400,10.58475537109375,1.0794739723205566,0.2636105716228485,0.36654922366142273
1780626043851751400,10.59475146484375,1.2029554843902588,0.5104408860206604,-0.026861730962991714
1780626043861746400,10.604746337890624,1.2571723461151123,0.6006425619125366,-0.306278795003891
1780626043871742500,10.614742431640625,1.1928184032440186,0.7170264720916748,-0.4866190254688263
1780626043881737500,10.624737548828126,1.0513540506362915,0.7720487117767334,-0.7329192757606506
1780626043891732500,10.634732421875,0.8780800104141235,0.7711373567581177,-0.9818241596221924
1780626043901728500,10.644728515625,0.7043439149856567,0.8000391125679016,-1.15907883644104
1780626043911723300,10.65472314453125,0.5587332248687744,0.7601401805877686,-1.2740023136138916
1780626043921719300,10.66471923828125,0.4543725550174713,0.6294199228286743,-1.360891342163086
1780626043931714600,10.674714599609375,0.33706432580947876,0.6580499410629272,-1.455993413925171
1780626043941709600,10.68470947265625,0.20082557201385498,0.7765028476715088,-1.5014457702636719
1780626043951705300,10.694705322265625,0.09615347534418106,0.7979074716567993,-1.4623994827270508
1780626043961700400,10.704700439453125,0.08188001811504364,0.7523524761199951,-1.3870162963867188
1780626043971695400,10.7146953125,0.14882495999336243,0.7303372025489807,-1.3168236017227173
1780626043981691400,10.72469140625,0.26184070110321045,0.7844282984733582,-1.2693870067596436
1780626043991686400,10.734686279296875,0.38440176844596863,0.9070958495140076,-1.208107590675354
1780626044001682400,10.744682373046874,0.49201247096061707,1.0973808765411377,-1.0978736877441406
1780626044011677400,10.754677490234375,0.5804323554039001,1.293328046798706,-0.9529517889022827
1780626044021672400,10.76467236328125,0.6691475510597229,1.411012053489685,-0.8183456659317017
1780626044031668500,10.77466845703125,0.7051950097084045,1.4750014543533325,-0.7443529367446899
1780626044041663500,10.78466357421875,0.6459413170814514,1.4496673345565796,-0.7982887029647827
1780626044051659300,10.7946591796875,0.5325910449028015,1.2836618423461914,-0.9330313205718994
1780626044061654300,10.804654296875,0.47460615634918213,1.0901368856430054,-1.0070170164108276
1780626044071649300,10.814649169921875,0.5004926323890686,1.0718175172805786,-0.9599770307540894
1780626044081645600,10.8246455078125,0.5860608220100403,1.1009583473205566,-0.8600978851318359
1780626044091640600,10.834640625,0.6371673941612244,1.0679394006729126,-0.80635666847229
1780626044101635600,10.844635498046875,0.6576817035675049,1.0426502227783203,-0.7564839720726013
1780626044111631400,10.85463134765625,0.6899663805961609,1.0279780626296997,-0.6776996850967407
1780626044121626400,10.86462646484375,0.7369858622550964,0.9694570899009705,-0.5954344868659973
1780626044131622400,10.874622314453125,0.7647096514701843,0.8431585431098938,-0.5466509461402893
1780626044141617700,10.88461767578125,0.7657766938209534,0.7009058594703674,-0.4938289225101471
1780626044151612400,10.8946123046875,0.7813340425491333,0.640193521976471,-0.43913185596466064
1780626044161608400,10.9046083984375,0.8226595520973206,0.5501492619514465,-0.33448684215545654
1780626044171603500,10.914603515625,0.8810099363327026,0.47822126746177673,-0.2798536717891693
1780626044181599500,10.924599609375,0.9134762287139893,0.4182976186275482,-0.2881440222263336
1780626044191594200,10.93459423828125,0.8969835042953491,0.3689013123512268,-0.31665369868278503
1780626044201589200,10.94458935546875,0.9029953479766846,0.3130672872066498,-0.2845359742641449
1780626044211585500,10.95458544921875,0.9242106676101685,0.26799967885017395,-0.1785552203655243
1780626044221580500,10.96458056640625,0.8644327521324158,0.2136075645685196,-0.03776746988296509
1780626044231575600,10.974575439453124,0.7006496787071228,0.19285620748996735,0.10535267740488052
1780626044241571300,10.9845712890625,0.5228146910667419,0.1552278697490692,0.25148093700408936
1780626044251566300,10.99456640625,0.40342840552330017,0.03221325948834419,0.38885852694511414
1780626044261562400,11.004562255859375,0.3333313763141632,-0.01565900444984436,0.40011197328567505
1780626044271557400,11.014557373046875,0.22827419638633728,0.2186238020658493,0.2328055202960968
1780626044281552400,11.024552490234376,0.11148327589035034,0.5908951759338379,0.021494347602128983
1780626044291548400,11.03454833984375,0.01437669713050127,0.6269240379333496,-0.07844583690166473
1780626044301543400,11.04454345703125,-0.0897206962108612,0.36985641717910767,-0.09786756336688995
1780626044311539500,11.05453955078125,-0.19610653817653656,0.2705173194408417,-0.12131190299987793
1780626044321534500,11.064534423828125,-0.2631572484970093,0.28654205799102783,-0.13133496046066284
1780626044331529500,11.074529541015625,-0.301248162984848,0.2726081311702728,-0.112399622797966
1780626044341525200,11.084525146484374,-0.37184908986091614,0.18852080404758453,-0.12296172976493835
1780626044351520500,11.0945205078125,-0.4084276258945465,0.1757030040025711,-0.186428040266037
1780626044361515500,11.104515625,-0.44439274072647095,0.2571524977684021,-0.22443659603595734
1780626044371511600,11.114511474609374,-0.511181116104126,0.30745428800582886,-0.1728202849626541
1780626044381506600,11.124506591796875,-0.5427625179290771,0.2419278472661972,-0.09431472420692444
1780626044391502300,11.13450244140625,-0.4790804982185364,0.17700903117656708,-0.06350221484899521
1780626044401497300,11.144497314453124,-0.4133776128292084,0.11046621203422546,-0.06364744901657104
1780626044411492400,11.154492431640625,-0.41361916065216064,0.077305868268013,-0.07882879674434662
1780626044421488600,11.164488525390626,-0.4508413076400757,0.08831163495779037,-0.15387339890003204
1780626044431483400,11.1744833984375,-0.4956516623497009,0.09759408235549927,-0.2295260727405548
1780626044441479400,11.1844794921875,-0.5536947846412659,0.05783862620592117,-0.23167826235294342
1780626044451474400,11.194474365234376,-0.6009059548377991,-0.032098717987537384,-0.20622509717941284
1780626044461469200,11.20446923828125,-0.5727736949920654,-0.1526879221200943,-0.1770758181810379
1780626044471465500,11.214465576171875,-0.5383222699165344,-0.20813199877738953,-0.15440300107002258
1780626044481460200,11.224460205078126,-0.5464003682136536,-0.1281530112028122,-0.16787824034690857
1780626044491455200,11.234455322265624,-0.584020733833313,-0.05823811888694763,-0.23596595227718353
1780626044501451300,11.244451171875,-0.6372408270835876,-0.047940533608198166,-0.329789400100708
1780626044511446300,11.2544462890625,-0.6843401789665222,-0.14587001502513885,-0.3665599226951599
1780626044521442000,11.264442138671875,-0.697935163974762,-0.3567816913127899,-0.36707833409309387
1780626044531437000,11.27443701171875,-0.6691187024116516,-0.5659942626953125,-0.39480769634246826
1780626044541432000,11.28443212890625,-0.6641868948936462,-0.6188234686851501,-0.46113863587379456
1780626044551428400,11.294428466796875,-0.6832878589630127,-0.5542524456977844,-0.4887737035751343
1780626044561423400,11.30442333984375,-0.6910310387611389,-0.5013342499732971,-0.4358772039413452
1780626044571418400,11.31441845703125,-0.6891779899597168,-0.47133880853652954,-0.3662981390953064
1780626044581414100,11.3244140625,-0.6755744218826294,-0.48358166217803955,-0.30989378690719604
1780626044591409200,11.3344091796875,-0.6296953558921814,-0.6110384464263916,-0.27595019340515137
1780626044601405200,11.3444052734375,-0.5642129778862,-0.7467917799949646,-0.30714115500450134
1780626044611400400,11.354400390625,-0.5103598833084106,-0.7683510780334473,-0.42102885246276855
1780626044621395500,11.3643955078125,-0.46448367834091187,-0.7578558325767517,-0.5005931854248047
1780626044631391200,11.37439111328125,-0.47268062829971313,-0.7341862320899963,-0.4792031943798065
1780626044641386200,11.38438623046875,-0.5298234224319458,-0.6702578067779541,-0.3943203389644623
1780626044651382300,11.39438232421875,-0.5910217761993408,-0.5628408193588257,-0.3339041471481323
1780626044661377300,11.404377197265624,-0.6159965395927429,-0.4867950677871704,-0.3231942653656006
1780626044671372300,11.414372314453125,-0.5952680706977844,-0.5065985918045044,-0.32655197381973267
1780626044681368300,11.424368408203126,-0.575472891330719,-0.5575934648513794,-0.346088171005249
1780626044691363300,11.43436328125,-0.5988693237304688,-0.6352403163909912,-0.358381062746048
1780626044701358300,11.4443583984375,-0.6665130853652954,-0.6968229413032532,-0.3621366620063782
1780626044711354400,11.454354248046876,-0.749254584312439,-0.7403962016105652,-0.3407647907733917
1780626044721349000,11.46434912109375,-0.832233190536499,-0.7125467658042908,-0.2739103436470032
1780626044731345200,11.47434521484375,-0.9126854538917542,-0.5998737215995789,-0.14874041080474854
1780626044741340200,11.484340087890626,-0.9590524435043335,-0.4733844995498657,-0.0111974673345685
1780626044751335200,11.494335205078125,-0.9578753709793091,-0.38165512681007385,0.09994583576917648
1780626044761331200,11.504331298828125,-0.9105422496795654,-0.3255297541618347,0.14878208935260773
1780626044771326200,11.514326171875,-0.8185276389122009,-0.30309024453163147,0.14228849112987518
1780626044781321200,11.5243212890625,-0.7162637710571289,-0.33643603324890137,0.09265675395727158
1780626044791317200,11.534317138671875,-0.6204445362091064,-0.5217939019203186,0.036926914006471634
1780626044801312300,11.544312255859374,-0.5181914567947388,-0.8104152679443359,-0.04414227977395058
1780626044811308000,11.55430810546875,-0.4465515911579132,-1.082097053527832,-0.14681938290596008
1780626044821303300,11.56430322265625,-0.475885272026062,-1.215614676475525,-0.2009146809577942
1780626044831298300,11.57429833984375,-0.6119978427886963,-1.177811861038208,-0.1808839738368988
1780626044841294300,11.58429443359375,-0.7640200257301331,-0.9330666065216064,-0.09212019294500351
1780626044851289300,11.594289306640626,-0.8619827628135681,-0.5564059019088745,0.028817415237426758
1780626044861285000,11.60428515625,-0.9183744788169861,-0.2642346918582916,0.09829218685626984
1780626044871280000,11.614280029296875,-0.9377811551094055,-0.14417912065982819,0.09115651249885559
1780626044881275100,11.624275146484376,-0.9080044627189636,-0.19703951478004456,-0.0007150003220885992
1780626044891271400,11.634271484375,-0.8448076844215393,-0.33903074264526367,-0.1469169408082962
1780626044901266400,11.644266357421875,-0.7631055116653442,-0.5129235982894897,-0.2639259696006775
1780626044911261400,11.654261474609376,-0.6793475151062012,-0.6849595308303833,-0.3072150945663452
1780626044921257200,11.66425732421875,-0.6264978051185608,-0.7847222685813904,-0.3149464428424835
1780626044931252200,11.674252197265625,-0.6144193410873413,-0.7317078113555908,-0.3215976655483246
1780626044941248300,11.684248291015624,-0.6294832825660706,-0.5535290837287903,-0.30008307099342346
1780626044951243300,11.6942431640625,-0.6515797972679138,-0.35074108839035034,-0.23858588933944702
1780626044961238300,11.70423828125,-0.6670538187026978,-0.21148374676704407,-0.16333134472370148
1780626044971234300,11.714234375,-0.6586805582046509,-0.1538422852754593,-0.0917077586054802
1780626044981229300,11.724229248046875,-0.6365849375724792,-0.19955980777740479,-0.029741942882537842
1780626044991224300,11.734224365234375,-0.6388357877731323,-0.30878081917762756,0.011448635719716549
1780626045001220400,11.744220458984374,-0.683761715888977,-0.38760921359062195,0.036842938512563705
1780626045011215000,11.754215087890625,-0.7657269239425659,-0.3661915361881256,0.06140926852822304
1780626045021211100,11.764211181640626,-0.8668577671051025,-0.28176286816596985,0.11421877145767212
1780626045031206400,11.774206298828124,-0.9695972204208374,-0.15153750777244568,0.1935918927192688
1780626045041201400,11.784201416015625,-1.0821049213409424,0.0941748395562172,0.3040240406990051
1780626045051197200,11.794197265625,-1.1521899700164795,0.27343833446502686,0.3920249938964844
1780626045061192200,11.804192138671874,-1.2482081651687622,0.4387531876564026,0.5324183702468872
1780626045071187200,11.814187255859375,-1.3739341497421265,0.539872407913208,0.7054718732833862
1780626045081183200,11.824183349609376,-1.5872007608413696,0.7813601493835449,0.9827114343643188
1780626045091178200,11.83417822265625,-1.8494986295700073,1.0389586687088013,1.278483510017395
1780626045101174300,11.84417431640625,-1.9813969135284424,0.9691757559776306,1.3519377708435059
1780626045111169300,11.854169189453126,-1.881980299949646,0.6432005763053894,1.1517915725708008
1780626045121164300,11.864164306640625,-1.6531189680099487,0.2989955544471741,0.8808059096336365
1780626045131160300,11.874160400390625,-1.5049121379852295,0.12338006496429443,0.7159519791603088
1780626045141155300,11.8841552734375,-1.4392518997192383,0.031545329838991165,0.655785322189331
1780626045151151000,11.894151123046875,-1.3805592060089111,-0.1150832548737526,0.6412047743797302
1780626045161146000,11.90414599609375,-1.3193141222000122,-0.2832910120487213,0.6234322190284729
1780626045171141000,11.91414111328125,-1.2910068035125732,-0.3145346939563751,0.5852944254875183
1780626045181137400,11.924137451171875,-1.2770713567733765,-0.17512650787830353,0.5190446376800537
1780626045191132400,11.93413232421875,-1.2417179346084595,0.04383061081171036,0.4406640827655792
1780626045201127200,11.944127197265624,-1.1815745830535889,0.14044184982776642,0.44462794065475464
1780626045211123200,11.954123291015625,-1.1245073080062866,0.06616656482219696,0.5146099328994751
1780626045221118200,11.9641181640625,-1.1078368425369263,0.024522481486201286,0.5547659993171692
1780626045231114200,11.9741142578125,-1.119516134262085,0.08604896068572998,0.5523552894592285
1780626045241109200,11.984109130859375,-1.1215763092041016,0.16278068721294403,0.5305709838867188
1780626045251104300,11.994104248046876,-1.087838053703308,0.1759265810251236,0.5129328370094299
1780626045261100300,12.004100341796875,-1.0469262599945068,0.0854976549744606,0.5194441080093384
1780626045271095300,12.01409521484375,-0.9897111058235168,-0.030679553747177124,0.5498382449150085
1780626045281090300,12.02409033203125,-0.9275403618812561,-0.12367629259824753,0.5697466135025024
1780626045291086000,12.034086181640625,-0.8608606457710266,-0.14367184042930603,0.5579813122749329
1780626045301081000,12.0440810546875,-0.7776827812194824,-0.1118202805519104,0.5040647387504578
1780626045311077400,12.054077392578124,-0.6768589615821838,-0.08116383105516434,0.4226348400115967
1780626045321072400,12.064072265625,-0.5693099498748779,-0.09353411942720413,0.34288710355758667
1780626045331067400,12.0740673828125,-0.47458770871162415,-0.1352216601371765,0.29093149304389954
1780626045341063200,12.084063232421874,-0.41154050827026367,-0.10936084389686584,0.2705693244934082
1780626045351058200,12.09405810546875,-0.37213239073753357,-0.016593359410762787,0.2438969612121582
1780626045361053200,12.10405322265625,-0.3408934772014618,0.1132723018527031,0.20848721265792847
1780626045371049200,12.11404931640625,-0.3168147802352905,0.22935602068901062,0.17977167665958405
1780626045381044200,12.124044189453125,-0.29457759857177734,0.2532075345516205,0.1640864759683609
1780626045391040300,12.134040283203126,-0.27400708198547363,0.20052756369113922,0.14615780115127563
1780626045401035300,12.14403515625,-0.24838463962078094,0.11544670909643173,0.1206822618842125
1780626045411030300,12.1540302734375,-0.24086172878742218,0.020856551826000214,0.10648202151060104
1780626045421026300,12.1640263671875,-0.2726006805896759,-0.019753670319914818,0.06930758059024811
1780626045431021300,12.174021240234374,-0.3535674512386322,0.0013284458545967937,0.01686088554561138
1780626045441016300,12.184016357421875,-0.45568662881851196,0.03036462515592575,-0.012192336842417717
1780626045451012400,12.194012451171876,-0.5434744954109192,0.001213929965160787,0.008073253557085991
1780626045461007400,12.20400732421875,-0.591896653175354,-0.05883875489234924,0.060637928545475006
1780626045471003400,12.21400341796875,-0.6028432846069336,-0.10360436141490936,0.1176263764500618
1780626045480998400,12.223998291015626,-0.5836488008499146,-0.08874766528606415,0.16402894258499146
1780626045490993400,12.233993408203125,-0.5249269008636475,-0.06954627484083176,0.22665317356586456
1780626045500989400,12.243989501953125,-0.4226759076118469,-0.1416637897491455,0.32630211114883423
1780626045510984400,12.253984375,-0.3630184233188629,-0.25830838084220886,0.36595338582992554
1780626045520979500,12.2639794921875,-0.38276639580726624,-0.27809765934944153,0.26511329412460327
1780626045530975200,12.273975341796875,-0.4225257933139801,-0.23884934186935425,0.12416737526655197
1780626045540970200,12.28397021484375,-0.40477097034454346,-0.32329145073890686,0.127443328499794
1780626045550966500,12.293966552734375,-0.2965715229511261,-0.6410217881202698,0.3292345106601715
1780626045560961500,12.30396142578125,-0.16385352611541748,-0.9583181738853455,0.5780310034751892
1780626045570956500,12.31395654296875,-0.11991694569587708,-0.9476138353347778,0.6978650093078613
1780626045580952300,12.323952392578125,-0.1936519593000412,-0.6520304679870605,0.6703262329101562
1780626045590947300,12.333947265625,-0.3264307677745819,-0.3150191605091095,0.5441442728042603
1780626045600943400,12.343943359375,-0.4439123570919037,-0.17546047270298004,0.40169164538383484
1780626045610938400,12.3539384765625,-0.4677351415157318,-0.32758238911628723,0.3394881784915924
1780626045620933400,12.363933349609376,-0.3747361898422241,-0.6756109595298767,0.36236074566841125
1780626045630929400,12.373929443359375,-0.19760721921920776,-0.9858002662658691,0.3388655483722687
1780626045640924400,12.38392431640625,0.029669657349586487,-1.1081328392028809,0.2999971807003021
1780626045650919400,12.39391943359375,0.2543288767337799,-0.9931543469429016,0.3722127676010132
1780626045660915500,12.40391552734375,0.40216127038002014,-0.6604715585708618,0.5436501502990723
1780626045670910500,12.413910400390625,0.4602770507335663,-0.246829092502594,0.7536883354187012
1780626045680905200,12.4239052734375,0.465297669172287,0.11374897509813309,0.9236693382263184
1780626045690901200,12.4339013671875,0.46136948466300964,0.362103134393692,1.030758261680603
1780626045700896500,12.443896484375,0.46610549092292786,0.4961984157562256,1.1453192234039307
