time,seconds_elapsed,z,y,x
1780626033312857600,0.055857666015625,-0.15291498601436615,-0.32226353883743286,-0.06160983443260193
1780626033322853600,0.065853515625,-0.28527435660362244,-0.473517507314682,0.22182294726371765
1780626033332849000,0.075848876953125,-0.41910111904144287,-0.5928665399551392,0.4705163836479187
1780626033342843600,0.08584375,-0.5590611696243286,-0.638455867767334,0.6632741093635559
1780626033352839700,0.095839599609375,-0.7196444272994995,-0.6377021670341492,0.7843030691146851
1780626033362834700,0.105834716796875,-0.8557857871055603,-0.6242020726203918,0.8123445510864258
1780626033372830700,0.115830810546875,-0.8959276080131531,-0.4470115900039673,0.7525688409805298
1780626033382825700,0.12582568359375,-0.7374522089958191,0.03099546581506729,0.6195799112319946
1780626033392820500,0.135820556640625,-0.46792298555374146,0.5028652548789978,0.45182791352272034
1780626033402816800,0.145816650390625,-0.26583433151245117,0.5885916352272034,0.31653666496276855
1780626033412811800,0.155811767578125,-0.275897353887558,0.2310207039117813,0.2941370904445648
1780626033422806800,0.165806884765625,-0.4408514201641083,-0.38926199078559875,0.3962048590183258
1780626033432802600,0.175802490234375,-0.43360522389411926,-1.034390926361084,0.5583003163337708
1780626033442797000,0.185797119140625,-0.24744655191898346,-1.3797632455825806,0.7430893182754517
1780626033452793000,0.19579296875,-0.16365018486976624,-1.412394404411316,0.8666107058525085
1780626033462788000,0.2057880859375,-0.10756614059209824,-1.251529335975647,0.9635460376739502
1780626033472783000,0.215783203125,-0.03826456516981125,-0.9007026553153992,1.0071516036987305
1780626033482779100,0.225779052734375,0.11638972908258438,-0.3837559223175049,0.9481114149093628
1780626033492774000,0.23577392578125,0.335632860660553,0.1270407736301422,0.7973480224609375
1780626033502770000,0.24577001953125,0.543724000453949,0.5030479431152344,0.5839260220527649
1780626033512765000,0.255764892578125,0.6183596253395081,0.6279712319374084,0.39561229944229126
1780626033522760000,0.265760009765625,0.6752876043319702,0.5561953186988831,0.2116137146949768
1780626033532756000,0.275755859375,0.8813896775245667,0.4127814471721649,0.043164514005184174
1780626033542751000,0.2857509765625,1.2401363849639893,0.26591238379478455,-0.08777938783168793
1780626033552746000,0.29574609375,1.613732099533081,0.042578887194395065,-0.22712743282318115
1780626033562742000,0.305741943359375,1.8917850255966187,-0.0326242558658123,-0.3104950189590454
1780626033572737000,0.315737060546875,2.049038887023926,0.21402306854724884,-0.20799793303012848
1780626033582732800,0.32573291015625,1.9942584037780762,0.474793940782547,-0.019117502495646477
1780626033592727800,0.335727783203125,1.6577030420303345,0.502780020236969,0.13025707006454468
1780626033602723000,0.34572314453125,1.0990955829620361,0.45072829723358154,0.25335636734962463
1780626033612719000,0.355718994140625,0.47033074498176575,0.38065385818481445,0.36254358291625977
1780626033622714000,0.365714111328125,-0.0263607669621706,0.3060310184955597,0.43710756301879883
1780626033632710000,0.3757099609375,-0.2975222170352936,0.2599354386329651,0.44689786434173584
1780626033642705000,0.385704833984375,-0.39693349599838257,0.28295475244522095,0.3898470997810364
1780626033652700000,0.395699951171875,-0.38970568776130676,0.3791406452655792,0.24856427311897278
1780626033662696200,0.4056962890625,-0.3218904137611389,0.4873534142971039,0.0326804481446743
1780626033672691200,0.415691162109375,-0.22490128874778748,0.6006181836128235,-0.18996115028858185
1780626033682686200,0.425686279296875,-0.1445651650428772,0.7900805473327637,-0.3254508078098297
1780626033692682000,0.435681884765625,-0.1162315309047699,0.9755233526229858,-0.3604194223880768
1780626033702677000,0.445677001953125,-0.16674716770648956,1.0662630796432495,-0.30861854553222656
1780626033712673000,0.455673095703125,-0.2937229573726654,1.0219500064849854,-0.24505209922790527
1780626033722668000,0.46566796875,-0.48166462779045105,0.875244677066803,-0.18072476983070374
1780626033732663000,0.4756630859375,-0.6644898653030396,0.6313116550445557,-0.07349099218845367
1780626033742659000,0.4856591796875,-0.7752355337142944,0.3621768653392792,0.04993506893515587
1780626033752654000,0.495654052734375,-0.8009963035583496,0.15927141904830933,0.1608477383852005
1780626033762650000,0.505650146484375,-0.7702327966690063,0.009645170532166958,0.21612749993801117
1780626033772645000,0.51564501953125,-0.7419926524162292,-0.1802496612071991,0.25867947936058044
1780626033782639900,0.525639892578125,-0.7260400056838989,-0.3383844494819641,0.29586654901504517
1780626033792636000,0.535635986328125,-0.7706751227378845,-0.25500139594078064,0.3313177525997162
1780626033802631000,0.545630859375,-0.7372940182685852,-0.20043562352657318,0.4644555449485779
1780626033812626200,0.555626220703125,-0.6171334981918335,-0.2622092366218567,0.5726850628852844
1780626033822622000,0.5656220703125,-0.50173020362854,-0.4832926392555237,0.5612135529518127
1780626033832617000,0.575616943359375,-0.4176478385925293,-0.6895230412483215,0.44994479417800903
1780626033842613000,0.585613037109375,-0.28316619992256165,-0.7041221857070923,0.3889344334602356
1780626033852608000,0.59560791015625,-0.1367274820804596,-0.7690607309341431,0.41347840428352356
1780626033862603000,0.60560302734375,-0.01973029598593712,-1.1416587829589844,0.5263165235519409
1780626033872599000,0.61559912109375,0.11721371114253998,-1.4593476057052612,0.7037408351898193
1780626033882594000,0.625593994140625,0.023251792415976524,-1.285516381263733,0.889729380607605
1780626033892589000,0.635589111328125,-0.016924921423196793,-0.9332936406135559,0.9834129810333252
1780626033902585000,0.645585205078125,-0.03779185190796852,-0.5557466149330139,0.9544196724891663
1780626033912580000,0.655580078125,0.005071990191936493,-0.2938004732131958,0.8174477219581604
1780626033922576000,0.665575927734375,0.039500005543231964,-0.19916556775569916,0.5853065848350525
1780626033932571000,0.67557080078125,0.04258793964982033,-0.12406895309686661,0.3298833668231964
1780626033942566000,0.68556591796875,-0.001127582392655313,0.003117230022326112,0.0932612344622612
1780626033952562200,0.695562255859375,-0.05639669671654701,0.1588253378868103,-0.10704522579908371
1780626033962557200,0.70555712890625,-0.09565462172031403,0.37476587295532227,-0.2593490183353424
1780626033972553000,0.715552978515625,-0.08498679846525192,0.6314535737037659,-0.35965031385421753
1780626033982548000,0.7255478515625,-0.002055161399766803,0.9073570966720581,-0.42605623602867126
1780626033992543000,0.73554296875,0.12368278950452805,1.111876130104065,-0.5172367691993713
1780626034002539000,0.7455390625,0.259644091129303,1.135048270225525,-0.6594311594963074
1780626034012534000,0.755533935546875,0.4427182972431183,1.2140352725982666,-0.7848945260047913
1780626034022529000,0.765529052734375,0.6501702666282654,1.22455632686615,-0.8842576146125793
1780626034032525000,0.775525146484375,0.8193635940551758,0.9697280526161194,-0.962365984916687
1780626034042520000,0.78552001953125,0.8649036288261414,0.48389342427253723,-0.9991471767425537
1780626034052516000,0.79551611328125,0.8322844505310059,-0.12144946306943893,-1.0566322803497314
1780626034062510800,0.8055107421875,0.8334000110626221,-0.9157441854476929,-0.8846874833106995
1780626034072505900,0.815505859375,1.0100480318069458,-1.5927356481552124,-0.3862590193748474
1780626034082502100,0.825502197265625,1.1854158639907837,-1.779266119003296,0.19764862954616547
1780626034092497200,0.8354970703125,1.0346966981887817,-1.5672292709350586,0.6264132857322693
1780626034102493000,0.845492919921875,0.740516185760498,-1.4452378749847412,1.0070184469223022
1780626034112488000,0.855488037109375,0.4581390619277954,-1.356776475906372,1.2900315523147583
1780626034122483000,0.86548291015625,0.2365504950284958,-1.486200213432312,1.4313915967941284
1780626034132479000,0.87547900390625,0.10470004379749298,-1.706921935081482,1.4476016759872437
1780626034142474000,0.885473876953125,0.03110385686159134,-1.6826705932617188,1.3432406187057495
1780626034152469000,0.895468994140625,0.0972655639052391,-1.5994343757629395,1.1399413347244263
1780626034162465000,0.905465087890625,0.2799978256225586,-1.5443543195724487,0.8850792050361633
1780626034172460000,0.9154599609375,0.4774344861507416,-1.301661491394043,0.6459960341453552
1780626034182456000,0.9254560546875,0.6830744743347168,-0.9916229844093323,0.4761604070663452
1780626034192451000,0.935451171875,0.7878866195678711,-0.6116982698440552,0.3196163475513458
1780626034202446000,0.945446044921875,0.7361917495727539,-0.4103603661060333,0.12847888469696045
1780626034212441900,0.95544189453125,0.8251935243606567,-0.4491804540157318,-0.059056393802165985
1780626034222436900,0.965436767578125,1.1310874223709106,-0.5720757842063904,-0.22273747622966766
1780626034232433200,0.97543310546875,1.1966277360916138,-0.7188540101051331,-0.4134698808193207
1780626034242428200,0.98542822265625,1.1944783926010132,-0.871732771396637,-0.6326967477798462
1780626034252423200,0.995423095703125,1.1851754188537598,-0.9436975121498108,-0.8189737200737
1780626034262419000,1.0054189453125,1.1028355360031128,-0.8588329553604126,-0.8341825008392334
1780626034272414000,1.0154140625,0.9354989528656006,-0.5411548614501953,-0.7139657735824585
1780626034282409000,1.025408935546875,0.782967746257782,-0.22181814908981323,-0.5302708148956299
1780626034292405000,1.035405029296875,0.6700771450996399,0.006085323169827461,-0.30807873606681824
1780626034302400000,1.04539990234375,0.5137125849723816,0.20867730677127838,-0.1258157193660736
1780626034312396000,1.05539599609375,0.31970396637916565,0.36958789825439453,0.017525730654597282
1780626034322391000,1.06539111328125,0.12051043659448624,0.4934920072555542,0.12245800346136093
1780626034332386000,1.075385986328125,-0.05504753813147545,0.5487073063850403,0.19908113777637482
1780626034342382000,1.085382080078125,-0.18055540323257446,0.577943742275238,0.25930479168891907
1780626034352376800,1.095376953125,-0.25045591592788696,0.6289723515510559,0.29290884733200073
1780626034362371800,1.105371826171875,-0.17736519873142242,0.6547008752822876,0.2833544909954071
1780626034372368100,1.1153681640625,0.17476621270179749,0.6881789565086365,0.17462852597236633
1780626034382363100,1.125363037109375,0.7798593044281006,0.5657310485839844,-0.09531959146261215
1780626034392359000,1.13535888671875,1.2148650884628296,0.3164311945438385,-0.49612879753112793
1780626034402354000,1.14535400390625,1.4159705638885498,0.16651441156864166,-0.9822960495948792
1780626034412349000,1.155348876953125,1.451317310333252,0.06013870611786842,-1.5376168489456177
1780626034422345000,1.165344970703125,1.438095211982727,-0.018126806244254112,-2.0191609859466553
1780626034432340000,1.175340087890625,1.3714594841003418,0.06617289781570435,-2.3381519317626953
1780626034442336300,1.185336181640625,1.1701935529708862,0.2962809205055237,-2.414154529571533
1780626034452331300,1.195331298828125,0.8600137829780579,0.662743866443634,-2.2779455184936523
1780626034462326300,1.205326171875,0.4960443675518036,1.0900968313217163,-1.9490549564361572
1780626034472322300,1.215322265625,0.14188283681869507,1.4718647003173828,-1.4875563383102417
1780626034482317300,1.2253173828125,-0.1878439337015152,1.6335763931274414,-0.976704478263855
1780626034492312300,1.235312255859375,-0.42275843024253845,1.5108381509780884,-0.5246933102607727
1780626034502308400,1.245308349609375,-0.3877362906932831,1.0383342504501343,-0.17652709782123566
1780626034512303400,1.255303466796875,-0.1785351186990738,0.5106342434883118,0.004914064891636372
1780626034522299400,1.26529931640625,0.04685911908745766,0.05919727683067322,0.05614423006772995
1780626034532294400,1.27529443359375,0.2122773677110672,-0.2442491501569748,0.02112286165356636
1780626034542289200,1.2852890625,0.3066464960575104,-0.5486234426498413,-0.05968223884701729
1780626034552285200,1.29528515625,0.36635294556617737,-0.9029596447944641,-0.17872820794582367
1780626034562280200,1.3052802734375,0.4675559997558594,-1.1695013046264648,-0.34922271966934204
1780626034572276500,1.3152763671875,0.669761061668396,-1.328190565109253,-0.5775376558303833
1780626034582271200,1.325271240234375,0.9080764055252075,-1.4047436714172363,-0.8080313205718994
1780626034592266200,1.335266357421875,1.0959570407867432,-1.4670182466506958,-0.9690939784049988
1780626034602262300,1.34526220703125,1.2442381381988525,-1.564787745475769,-1.0204874277114868
1780626034612257300,1.35525732421875,1.3817707300186157,-1.7466741800308228,-0.9709914326667786
1780626034622252300,1.365252197265625,1.4878945350646973,-1.981372356414795,-0.8198333382606506
1780626034632248000,1.375248046875,1.6394195556640625,-2.3057117462158203,-0.5953709483146667
1780626034642243000,1.3852431640625,1.8318899869918823,-2.7214794158935547,-0.33272841572761536
1780626034652239400,1.3952392578125,1.9197628498077393,-3.0087366104125977,-0.09499042481184006
1780626034662234400,1.405234375,1.7767313718795776,-3.0502870082855225,0.030475351959466934
1780626034672229400,1.4152294921875,1.400408387184143,-3.063957452774048,-0.04940882697701454
1780626034682225200,1.42522509765625,0.9799793362617493,-3.187504768371582,-0.37710893154144287
1780626034692220200,1.43522021484375,0.6741195917129517,-3.131044626235962,-0.7891052961349487
1780626034702216200,1.44521630859375,0.6378193497657776,-2.7297682762145996,-1.0269277095794678
1780626034712211500,1.45521142578125,0.42358773946762085,-1.682399034500122,-1.4710758924484253
1780626034722206500,1.46520654296875,0.9361461400985718,-2.226390838623047,-1.5808337926864624
1780626034732202200,1.4752021484375,1.6574922800064087,-2.634212017059326,-1.3161789178848267
1780626034742197200,1.485197265625,1.9589751958847046,-2.585458278656006,-1.0593218803405762
1780626034752192300,1.495192138671875,1.824082374572754,-2.9344046115875244,-0.8640136122703552
1780626034762188300,1.505188232421875,1.55344557762146,-3.439612627029419,-0.7049360871315002
1780626034772183300,1.515183349609375,1.4077093601226807,-3.736015558242798,-0.5877093076705933
1780626034782179300,1.525179443359375,1.4986659288406372,-3.927548885345459,-0.5668516755104065
1780626034792174300,1.53517431640625,1.7466230392456055,-4.135721206665039,-0.6194278001785278
1780626034802169300,1.54516943359375,2.0430288314819336,-4.407670974731445,-0.6659671068191528
1780626034812165400,1.555165283203125,2.333512783050537,-4.774354457855225,-0.6820595264434814
1780626034822160100,1.56516015625,2.6147077083587646,-5.149080753326416,-0.6069309711456299
1780626034832156200,1.57515625,2.836024284362793,-5.530307292938232,-0.46828997135162354
1780626034842151200,1.585151123046875,2.927018165588379,-5.905208110809326,-0.2814473807811737
1780626034852146200,1.595146240234375,2.9082906246185303,-6.192122936248779,-0.02852431870996952
1780626034862142200,1.60514208984375,2.888303756713867,-6.27867317199707,0.2602161467075348
1780626034872137200,1.61513720703125,2.9275870323181152,-6.15329647064209,0.4940893352031708
1780626034882132200,1.62513232421875,3.007082223892212,-5.955008029937744,0.6603840589523315
1780626034892128300,1.635128173828125,3.1137516498565674,-5.72573709487915,0.802014172077179
1780626034902123300,1.645123291015625,3.287724494934082,-5.3584794998168945,0.9464672207832336
1780626034912119000,1.655119140625,3.48966121673584,-4.7920613288879395,1.059262752532959
1780626034922114300,1.6651142578125,3.6335701942443848,-4.153565406799316,1.1161465644836426
1780626034932109300,1.675109375,3.6325700283050537,-3.5387277603149414,1.1595048904418945
1780626034942105300,1.685105224609375,3.429748773574829,-2.993417501449585,1.216831088066101
1780626034952100400,1.695100341796875,3.063565492630005,-2.5135135650634766,1.2761002779006958
1780626034962095400,1.705095458984375,2.655494213104248,-1.9014887809753418,1.2959612607955933
1780626034972091100,1.715091064453125,2.2858710289001465,-1.075047254562378,1.2324858903884888
1780626034982086100,1.725086181640625,2.064479351043701,-0.2295149564743042,1.055666446685791
1780626034992082400,1.73508251953125,1.9756993055343628,0.4828073978424072,0.7999299764633179
1780626035002077400,1.745077392578125,1.9395469427108765,0.8501409292221069,0.6041224002838135
1780626035012072400,1.755072509765625,1.8532298803329468,0.8021464943885803,0.6925020217895508
1780626035022068200,1.765068115234375,1.6036101579666138,0.7443298101425171,0.9709813594818115
1780626035032063200,1.775063232421875,1.1978685855865479,0.8471957445144653,1.1863101720809937
1780626035042059300,1.785059326171875,0.7913375496864319,0.9458853006362915,1.2449841499328613
1780626035052054300,1.79505419921875,0.40486574172973633,1.127874493598938,1.1569600105285645
1780626035062049000,1.805049072265625,0.05842149630188942,1.2196177244186401,1.013161540031433
1780626035072045300,1.81504541015625,-0.21546943485736847,1.36598801612854,0.9303513765335083
1780626035082040300,1.825040283203125,-0.38034626841545105,1.5947221517562866,0.8676336407661438
1780626035092035300,1.835035400390625,-0.447858989238739,1.8987302780151367,0.7528465986251831
1780626035102031000,1.845031005859375,-0.4932560324668884,2.2049083709716797,0.6421776413917542
1780626035112026000,1.855026123046875,-0.5306074023246765,2.503413438796997,0.5845353603363037
1780626035122022100,1.865022216796875,-0.5644998550415039,2.704411506652832,0.5673893690109253
1780626035132017400,1.875017333984375,-0.6263448596000671,2.854992389678955,0.5709303617477417
1780626035142012400,1.885012451171875,-0.7453101277351379,2.8652138710021973,0.5731314420700073
1780626035152008200,1.89500830078125,-0.9313811659812927,2.7013449668884277,0.5617621541023254
1780626035162003200,1.905003173828125,-1.092134714126587,2.2359557151794434,0.589744508266449
1780626035171999200,1.914999267578125,-1.323459506034851,1.7063344717025757,0.8243029713630676
1780626035181994200,1.924994140625,-1.6535090208053589,1.3280677795410156,1.3115818500518799
1780626035191989200,1.9349892578125,-1.882222056388855,1.2184944152832031,1.8028857707977295
1780626035201985300,1.9449853515625,-1.7963991165161133,1.2612597942352295,1.9886646270751953
1780626035211980300,1.954980224609375,-1.4914439916610718,1.282293438911438,1.798841953277588
1780626035221975300,1.964975341796875,-1.2720133066177368,1.2680928707122803,1.5067648887634277
1780626035231971300,1.974971435546875,-1.3049947023391724,1.0806907415390015,1.3681800365447998
1780626035241966300,1.98496630859375,-1.5529522895812988,0.8104827404022217,1.4495519399642944
1780626035251962000,1.994962158203125,-1.8552781343460083,0.53445965051651,1.680174469947815
1780626035261957000,2.00495703125,-2.0083208084106445,0.26758962869644165,1.8869894742965698
1780626035271952100,2.0149521484375,-1.8432011604309082,0.3228731155395508,1.9109214544296265
1780626035281948400,2.024948486328125,-1.3668988943099976,0.5868996977806091,1.6834301948547363
1780626035291943400,2.034943359375,-0.9491956233978271,0.6249560117721558,1.4103296995162964
1780626035301939200,2.044939208984375,-1.0160130262374878,0.7160470485687256,1.4577749967575073
1780626035311934200,2.054934326171875,-1.2799367904663086,0.6115986704826355,1.6619408130645752
1780626035321929200,2.06492919921875,-1.3818775415420532,0.3265211284160614,1.716320514678955
1780626035331925200,2.07492529296875,-1.0964223146438599,-0.09668739140033722,1.2321021556854248
1780626035341920300,2.084920166015625,-0.42367297410964966,-0.4261457324028015,-0.06550151109695435
1780626035351916300,2.094916259765625,0.14871491491794586,-0.4675253927707672,-1.281989336013794
1780626035361911300,2.104911376953125,0.17207029461860657,-0.4698631167411804,-1.2059805393218994
1780626035371906300,2.11490625,-0.0982554629445076,-0.9705885052680969,-0.329872190952301
1780626035381902300,2.12490234375,-0.40189018845558167,-1.6928149461746216,0.5051694512367249
1780626035391897000,2.13489697265625,-0.5722028017044067,-2.122704267501831,0.8849114179611206
1780626035401892000,2.14489208984375,-0.5903647541999817,-2.273191452026367,0.8887884616851807
1780626035411888400,2.154888427734375,-0.589140772819519,-2.301391124725342,0.8126468062400818
1780626035421883400,2.16488330078125,-0.651755690574646,-2.3410301208496094,0.7827908992767334
1780626035431879200,2.174879150390625,-0.6992464661598206,-2.1947574615478516,0.7314704656600952
1780626035441873700,2.184873779296875,-0.6172453761100769,-1.7259265184402466,0.4806555509567261
1780626035451868700,2.19486865234375,-0.3856305181980133,-1.092220425605774,0.08450343459844589
1780626035461864700,2.20486474609375,-0.1726548671722412,-0.4888642132282257,-0.3170509338378906
1780626035471859700,2.214859619140625,-0.1227341741323471,-0.06891222298145294,-0.5888901352882385
1780626035481855700,2.224855712890625,-0.16864414513111115,-0.005402222275733948,-0.5893388986587524
1780626035491850800,2.234850830078125,-0.2425180971622467,-0.3145211935043335,-0.41603583097457886
1780626035501845800,2.244845703125,-0.28273501992225647,-0.5359430313110352,-0.22487199306488037
1780626035511841800,2.254841796875,-0.33008575439453125,-0.5845761299133301,-0.141774982213974
1780626035521836800,2.2648369140625,-0.32305288314819336,-0.6063530445098877,-0.1757848709821701
1780626035531831800,2.274831787109375,-0.28374409675598145,-0.5158223509788513,-0.22772637009620667
1780626035541827600,2.28482763671875,-0.23265694081783295,-0.45636194944381714,-0.46674028038978577
1780626035551822600,2.294822509765625,-0.48802879452705383,-0.6345902681350708,-0.5874709486961365
1780626035561819000,2.30481884765625,-0.47671034932136536,-0.353269100189209,-0.31253206729888916
1780626035571814000,2.31481396484375,-0.30798178911209106,-0.16697274148464203,-0.06793989986181259
1780626035581809000,2.324808837890625,-0.2409239262342453,-0.08329089730978012,-0.020005665719509125
1780626035591804700,2.3348046875,-0.18881012499332428,0.02875388413667679,-0.08625472337007523
1780626035601799700,2.344799560546875,-0.12131417542695999,0.09765598922967911,-0.11845926940441132
1780626035611795700,2.354795654296875,-0.06359761953353882,0.20436565577983856,-0.09006331115961075
1780626035621790700,2.364790771484375,0.018619490787386894,0.2208239883184433,-0.09271129220724106
1780626035631786000,2.374785888671875,0.13169197738170624,0.21899360418319702,-0.10566624253988266
1780626035641781800,2.38478173828125,0.29113489389419556,0.16909874975681305,-0.17998574674129486
1780626035651776800,2.39477685546875,0.4192340075969696,0.14367488026618958,-0.2746070623397827
1780626035661771800,2.404771728515625,0.5426605939865112,-0.023755662143230438,-0.38304832577705383
1780626035671767800,2.414767822265625,0.6117725968360901,-0.3113144636154175,-0.38748806715011597
1780626035681762800,2.4247626953125,0.5794681906700134,-0.47675269842147827,-0.27289626002311707
1780626035691758800,2.4347587890625,0.5983957648277283,-0.5687332153320312,-0.11937087029218674
1780626035701753900,2.44475390625,0.756289541721344,-0.8643068075180054,0.06311265379190445
1780626035711748900,2.454748779296875,0.9191474318504333,-1.3301048278808594,0.3211532533168793
1780626035721745000,2.464744873046875,1.0233838558197021,-1.750622272491455,0.629490852355957
1780626035731739600,2.47473974609375,1.1359130144119263,-2.0472891330718994,0.9536651968955994
1780626035741735700,2.484735595703125,1.3481075763702393,-2.1916871070861816,1.0895620584487915
1780626035751730700,2.494730712890625,1.5362071990966797,-2.2332863807678223,1.0573047399520874
1780626035761725700,2.5047255859375,1.6160820722579956,-2.1462390422821045,0.9728516936302185
1780626035771721700,2.5147216796875,1.6123919486999512,-1.9816709756851196,0.8612668514251709
1780626035781716700,2.524716796875,1.6394389867782593,-1.7228000164031982,0.6353937387466431
1780626035791712800,2.534712646484375,1.4978033304214478,-1.2812832593917847,0.38585981726646423
1780626035801707800,2.544707763671875,1.1553367376327515,-0.6268106698989868,0.23465432226657867
1780626035811702800,2.554702880859375,0.9369168281555176,-0.2133737951517105,0.11496413499116898
1780626035821698600,2.564698486328125,0.843933641910553,0.0913967564702034,-0.04797178506851196
1780626035831693600,2.574693603515625,0.7531493902206421,0.2517709732055664,-0.20210783183574677
1780626035841688800,2.584688720703125,0.5881343483924866,0.10712458938360214,-0.21865271031856537
1780626035851684900,2.594684814453125,0.4287188649177551,-0.23989275097846985,-0.12140046060085297
1780626035861679900,2.604679931640625,0.29542312026023865,-0.6124266386032104,0.009826265275478363
1780626035871675600,2.614675537109375,0.12178502231836319,-0.8155294060707092,0.10390349477529526
1780626035881670700,2.624670654296875,0.010685667395591736,-0.7088205814361572,0.09093762934207916
1780626035891665700,2.634665771484375,0.07670756429433823,-0.7466920614242554,-0.09212753176689148
1780626035901662000,2.644661865234375,0.5154191255569458,-1.4846808910369873,-0.3872840702533722
1780626035911657000,2.654656982421875,1.002920389175415,-1.6359177827835083,-0.5808199644088745
1780626035921652700,2.66465283203125,1.7097443342208862,-2.057008743286133,-0.6468051075935364
1780626035931647700,2.674647705078125,2.0552525520324707,-2.1412837505340576,-0.4412383735179901
1780626035941642800,2.684642822265625,1.8790827989578247,-1.844077706336975,0.007721303030848503
1780626035951638800,2.694638671875,1.2676185369491577,-1.443442940711975,0.48448705673217773
1780626035961633800,2.7046337890625,0.6271651387214661,-1.4773467779159546,0.8104579448699951
1780626035971629800,2.7146298828125,0.31892046332359314,-1.6992424726486206,1.0327738523483276
1780626035981624800,2.724624755859375,0.3234049677848816,-1.7901880741119385,1.180179238319397
1780626035991619800,2.734619873046875,0.3583850562572479,-1.9111261367797852,1.096408724784851
1780626036001616000,2.744615966796875,0.3340142071247101,-1.640276312828064,0.8659614324569702
1780626036011610600,2.754610595703125,0.26573261618614197,-1.2019256353378296,0.5708171725273132
1780626036021605600,2.764605712890625,0.3711775541305542,-0.8513619899749756,0.29116764664649963
1780626036031601700,2.7746015625,0.40805938839912415,-0.7760600447654724,0.05281607806682587
1780626036041596700,2.7845966796875,0.49670642614364624,-0.5582113265991211,-0.09662774205207825
1780626036051592700,2.7945927734375,0.6916716694831848,-0.3555607795715332,-0.22158671915531158
1780626036061587700,2.804587646484375,0.9602503776550293,-0.30888885259628296,-0.33547255396842957
1780626036071582700,2.814582763671875,1.2026667594909668,-0.23607350885868073,-0.3668650984764099
1780626036081578800,2.824578857421875,1.3773640394210815,-0.1449792981147766,-0.2830226421356201
1780626036091573800,2.83457373046875,1.4669474363327026,-0.19787447154521942,-0.10633736103773117
1780626036101569500,2.844569580078125,1.5204490423202515,-0.27079129219055176,0.15009894967079163
1780626036111564800,2.854564697265625,1.5256065130233765,-0.5104544758796692,0.3810650706291199
1780626036121559800,2.864559814453125,1.584015965461731,-0.5926132798194885,0.6131459474563599
1780626036131555800,2.874555908203125,1.7755662202835083,-0.7274286150932312,0.8690685629844666
1780626036141550800,2.88455078125,2.091761827468872,-0.9717558026313782,1.1414233446121216
1780626036151546600,2.894546630859375,2.468306541442871,-1.1956267356872559,1.4323893785476685
1780626036161541600,2.904541748046875,2.791476011276245,-1.1062004566192627,1.82892906665802
1780626036171536600,2.91453662109375,2.958573341369629,-0.7450786828994751,2.2996559143066406
1780626036181533000,2.924532958984375,3.0967702865600586,-0.2713468074798584,2.7751598358154297
1780626036191528000,2.93452783203125,3.244431972503662,-0.23082202672958374,2.9640371799468994
1780626036201523000,2.94452294921875,3.3358750343322754,-0.6446865797042847,2.5344512462615967
1780626036211518700,2.954518798828125,2.774498462677002,-1.007557988166809,1.7336875200271606
1780626036221513700,2.964513671875,2.1165478229522705,-1.3853780031204224,1.110060691833496
1780626036231509800,2.974509765625,1.590366244316101,-1.1634453535079956,0.6226766109466553
1780626036241504800,2.9845048828125,1.1241722106933594,-0.28053924441337585,-0.04863571375608444
1780626036251499800,2.994499755859375,0.7541438341140747,0.1990281492471695,-0.45534008741378784
1780626036261495800,3.004495849609375,0.4281952977180481,0.5167339444160461,-0.5000545382499695
1780626036271490800,3.01449072265625,0.20880940556526184,0.718860924243927,-0.42887040972709656
1780626036281486800,3.02448681640625,0.06258481740951538,0.5823811292648315,-0.2864978015422821
1780626036291481900,3.03448193359375,0.10587476938962936,0.30581530928611755,-0.2099662870168686
1780626036301476600,3.0444765625,0.14859133958816528,0.04748576134443283,-0.13530829548835754
1780626036311472600,3.05447265625,0.12748099863529205,-0.1601041853427887,-0.11730238795280457
1780626036321468000,3.064468017578125,0.13665024936199188,-0.22450900077819824,-0.18559063971042633
1780626036331464000,3.0744638671875,0.2568906545639038,-0.43216127157211304,-0.327524870634079
1780626036341458700,3.084458740234375,0.4546002745628357,-1.0380215644836426,-0.5883309245109558
1780626036351453700,3.09445361328125,0.660196840763092,-1.8757295608520508,-0.9211541414260864
1780626036361449700,3.10444970703125,0.9296472072601318,-2.382347583770752,-0.9315276741981506
1780626036371444700,3.11444482421875,1.4945188760757446,-2.788367748260498,-0.8415266871452332
1780626036381439700,3.124439697265625,2.00360107421875,-2.307516574859619,-0.3917219638824463
1780626036391435800,3.134435791015625,2.149390935897827,-0.8092161417007446,0.5665121674537659
1780626036401430800,3.1444306640625,2.321756362915039,-0.3047447204589844,0.9504142999649048
1780626036411426800,3.1544267578125,2.444246292114258,-0.5925368070602417,1.0711671113967896
1780626036421421800,3.164421875,2.45630145072937,-0.8832807540893555,1.3088408708572388
1780626036431416800,3.174416748046875,2.5573244094848633,-1.071842908859253,1.6409826278686523
1780626036441412600,3.18441259765625,2.820117235183716,-1.2516982555389404,1.9655841588974
1780626036451408600,3.19440869140625,3.1479227542877197,-1.6143035888671875,2.1925952434539795
1780626036461404700,3.20440478515625,3.3740580081939697,-2.2072560787200928,2.312410831451416
1780626036471399700,3.214399658203125,3.3887088298797607,-2.607727527618408,2.133026123046875
1780626036481394700,3.224394775390625,3.193814516067505,-2.8395144939422607,1.5408258438110352
1780626036491390700,3.234390625,3.105329751968384,-2.710402250289917,0.9395251274108887
1780626036501385700,3.2443857421875,3.209954023361206,-2.123382091522217,0.48628655076026917
1780626036511381500,3.254381591796875,3.370455265045166,-1.252560019493103,0.13036653399467468
1780626036521376500,3.26437646484375,3.4753854274749756,-0.42086440324783325,-0.18256928026676178
1780626036531371500,3.27437158203125,3.6354074478149414,0.07907777279615402,-0.4032273590564728
1780626036541367800,3.284367919921875,3.764260768890381,0.19538919627666473,-0.46672138571739197
1780626036551362800,3.29436279296875,3.8639934062957764,0.04568839073181152,-0.3695833683013916
1780626036561358600,3.304358642578125,3.9443442821502686,-0.2661925256252289,-0.17092673480510712
1780626036571353600,3.314353515625,4.017714500427246,-0.6795125007629395,0.07419859617948532
1780626036581348600,3.3243486328125,4.039624214172363,-1.1884502172470093,0.31447404623031616
1780626036591344600,3.3343447265625,4.040008544921875,-1.7705280780792236,0.49873417615890503
1780626036601339600,3.344339599609375,3.939906120300293,-2.342888355255127,0.6690771579742432
1780626036611334700,3.354334716796875,3.8024115562438965,-2.687014102935791,0.847289502620697
1780626036621330700,3.36433056640625,3.545931100845337,-2.8550784587860107,1.0087246894836426
1780626036631325700,3.37432568359375,3.1751956939697266,-2.9647107124328613,1.2314739227294922
1780626036641321700,3.38432177734375,2.6217658519744873,-2.7599124908447266,1.4620893001556396
1780626036651316700,3.394316650390625,1.750714659690857,-2.5022048950195312,1.680902361869812
1780626036661311700,3.404311767578125,0.5028564929962158,-2.326680898666382,1.7301769256591797
1780626036671307500,3.4143076171875,-1.1276782751083374,-2.223344326019287,1.2489980459213257
1780626036681302800,3.424302734375,-2.5479493141174316,-1.8404152393341064,0.1679338812828064
1780626036691298800,3.434298828125,-2.942711114883423,-1.2634835243225098,-0.890099287033081
1780626036701293800,3.4442939453125,-1.9198925495147705,-0.6492522954940796,-1.2846181392669678
1780626036711288600,3.45428857421875,-0.16747741401195526,-0.2622571885585785,-0.9581627249717712
1780626036721284600,3.46428466796875,1.393757939338684,-0.4077792167663574,-0.3027060627937317
1780626036731279600,3.474279541015625,2.7939605712890625,-1.1445475816726685,0.24289600551128387
1780626036741276000,3.48427587890625,2.36159610748291,-1.4705491065979004,0.26304787397384644
1780626036751270700,3.494270751953125,0.7205808162689209,-1.4446862936019897,0.020241089165210724
1780626036761265700,3.504265625,-0.31085002422332764,-1.2763625383377075,-0.16708806157112122
1780626036771261700,3.51426171875,-0.6772232055664062,-0.8900918364524841,-0.12841789424419403
1780626036781256700,3.524256591796875,-0.8207108974456787,-0.1981074959039688,0.0357862263917923
1780626036791252700,3.534252685546875,-0.7133817672729492,0.5092488527297974,0.27966707944869995
1780626036801247500,3.54424755859375,-0.46042460203170776,0.9706279635429382,0.476317822933197
1780626036811242500,3.554242431640625,-0.25355449318885803,1.1307851076126099,0.5093711018562317
1780626036821238800,3.56423876953125,-0.14803527295589447,1.1587531566619873,0.4235028028488159
1780626036831233800,3.57423388671875,-0.12498321384191513,1.1740760803222656,0.33227676153182983
1780626036841229600,3.5842294921875,-0.1614546775817871,1.2159452438354492,0.2788049876689911
1780626036851224600,3.594224609375,-0.21729157865047455,1.2699251174926758,0.27640843391418457
1780626036861219600,3.604219482421875,-0.25544801354408264,1.2885379791259766,0.3109104633331299
1780626036871215600,3.614215576171875,-0.27046212553977966,1.2520114183425903,0.36697453260421753
1780626036881210600,3.624210693359375,-0.25680461525917053,1.1996374130249023,0.41325920820236206
1780626036891206000,3.634205810546875,-0.21313650906085968,1.1441349983215332,0.4203791618347168
1780626036901201700,3.64420166015625,-0.1671450436115265,1.0736690759658813,0.3877125680446625
1780626036911196700,3.65419677734375,-0.1235634833574295,0.9840931296348572,0.3325987160205841
1780626036921192700,3.664192626953125,-0.06876841187477112,0.9183945655822754,0.2757737934589386
1780626036931187700,3.674187744140625,-0.010219081304967403,0.9014469981193542,0.24924790859222412
1780626036941182700,3.6841826171875,0.043113913387060165,0.8773118257522583,0.2705337405204773
1780626036951178800,3.6941787109375,0.07993291318416595,0.8295256495475769,0.3354339301586151
1780626036961173800,3.704173828125,0.11197100579738617,0.7677350044250488,0.4369744062423706
1780626036971169800,3.714169677734375,0.13536635041236877,0.7313120365142822,0.5398411154747009
1780626036981164800,3.724164794921875,0.1360158920288086,0.7484883666038513,0.5675598382949829
1780626036991159600,3.73415966796875,0.17429403960704803,0.7458944320678711,0.5198714137077332
1780626037001155600,3.744155517578125,0.2320239096879959,0.6999783515930176,0.4284786581993103
1780626037011150600,3.754150634765625,0.28589779138565063,0.6708114147186279,0.3142431378364563
1780626037021147000,3.76414697265625,0.3206658959388733,0.6661039590835571,0.20612066984176636
1780626037031141600,3.7741416015625,0.32793205976486206,0.6924290657043457,0.12621599435806274
1780626037041136600,3.78413671875,0.3222656548023224,0.6929289698600769,0.09456086158752441
1780626037051132700,3.794132568359375,0.3040166199207306,0.7973394989967346,0.12300395220518112
1780626037061127700,3.804127685546875,0.18946526944637299,1.0635684728622437,0.22043010592460632
1780626037071123700,3.814123779296875,0.07630888372659683,1.4490749835968018,0.42007264494895935
1780626037081118500,3.824118408203125,0.09127026051282883,1.9108731746673584,0.6562439203262329
1780626037091113500,3.834113525390625,0.1564790904521942,2.2402150630950928,0.7967442870140076
1780626037101109800,3.84410986328125,0.20013868808746338,2.298787832260132,0.7939274907112122
1780626037111104800,3.854104736328125,0.2414959818124771,2.1389565467834473,0.6688028573989868
1780626037121100500,3.8641005859375,0.3077056109905243,1.7937955856323242,0.49435940384864807
1780626037131095600,3.874095458984375,0.39369696378707886,1.3360588550567627,0.3303869664669037
1780626037141090600,3.884090576171875,0.49004507064819336,0.8731698393821716,0.22960735857486725
1780626037151086600,3.894086669921875,0.564188539981842,0.4731278717517853,0.2001381516456604
1780626037161081900,3.904081787109375,0.6038853526115417,0.17246843874454498,0.20121008157730103
1780626037171076900,3.914076904296875,0.607671856880188,0.02154577150940895,0.1720130443572998
1780626037181072600,3.92407275390625,0.5586510300636292,0.05975281074643135,0.08422193676233292
1780626037191067600,3.934067626953125,0.4327298402786255,0.27717167139053345,-0.05500013381242752
1780626037201063700,3.944063720703125,0.2623964548110962,0.5891266465187073,-0.2019573599100113
1780626037211058700,3.95405859375,0.13063204288482666,0.9264863133430481,-0.3347090184688568
1780626037221054700,3.9640546875,0.08132122457027435,1.211445927619934,-0.483158677816391
1780626037231049700,3.9740498046875,0.10884898900985718,1.3971811532974243,-0.6857799291610718
1780626037241044700,3.984044677734375,0.20302315056324005,1.4693807363510132,-0.958173930644989
1780626037251040800,3.994040771484375,0.3414025902748108,1.4177439212799072,-1.2071036100387573
1780626037261035800,4.004035888671875,0.4588780999183655,1.289708137512207,-1.3208516836166382
1780626037271030800,4.01403076171875,0.48679494857788086,1.1192965507507324,-1.2536723613739014
1780626037281026600,4.024026611328125,0.4300379157066345,0.9554926753044128,-1.0360090732574463
1780626037291021600,4.034021484375,0.35995951294898987,0.8632508516311646,-0.7527515292167664
1780626037301017900,4.044017822265625,0.29256555438041687,0.8623395562171936,-0.48431819677352905
1780626037311012900,4.054012939453125,0.2036287635564804,0.8989614844322205,-0.2829270362854004
1780626037321007600,4.064007568359375,0.09206095337867737,0.9129065871238708,-0.16907957196235657
1780626037331003600,4.074003662109375,-0.023696541786193848,0.8733416199684143,-0.15444868803024292
1780626037340998700,4.08399853515625,-0.11343894153833389,0.7890844941139221,-0.23375816643238068
1780626037350994700,4.09399462890625,-0.16260941326618195,0.6830092072486877,-0.3859575390815735
1780626037360989700,4.10398974609375,-0.16352981328964233,0.5520263910293579,-0.5289701223373413
1780626037370984700,4.113984619140625,-0.12231632322072983,0.38465020060539246,-0.5830565094947815
1780626037380980700,4.123980712890625,-0.0558994859457016,0.20014241337776184,-0.5329582095146179
1780626037390975700,4.133975830078125,0.01750495843589306,0.04815101623535156,-0.402876615524292
1780626037400971800,4.1439716796875,0.08141656219959259,-0.010067014954984188,-0.24574372172355652
1780626037410966500,4.153966552734375,0.13321930170059204,0.025962091982364655,-0.11728641390800476
1780626037420961500,4.16396142578125,0.16862790286540985,0.12982749938964844,-0.045577604323625565
1780626037430957600,4.17395751953125,0.18754033744335175,0.266328364610672,-0.05041550472378731
1780626037440952800,4.183952880859375,0.2001512050628662,0.362898051738739,-0.12018020451068878
1780626037450948000,4.193947998046875,0.20581281185150146,0.36946114897727966,-0.2174590826034546
1780626037460943000,4.203943115234375,0.2076788991689682,0.2813757359981537,-0.3062579333782196
1780626037470937900,4.213937744140625,0.18784287571907043,0.13532906770706177,-0.3691104054450989
1780626037480934100,4.22393408203125,0.15159644186496735,0.002731071785092354,-0.40805140137672424
1780626037490929200,4.23392919921875,0.116111159324646,-0.04969831556081772,-0.4381544589996338
1780626037500925200,4.24392529296875,0.06663628667593002,-0.0005962817813269794,-0.45965734124183655
1780626037510920000,4.253919921875,0.007934089750051498,0.12083294242620468,-0.46281424164772034
1780626037520915000,4.2639150390625,-0.06668075919151306,0.2793869078159332,-0.44255104660987854
1780626037530911000,4.273910888671875,-0.13154710829257965,0.4606403112411499,-0.40718162059783936
1780626037540906000,4.283906005859375,-0.17944486439228058,0.6373570561408997,-0.37256452441215515
1780626037550902000,4.293902099609375,-0.1816803216934204,0.6898795962333679,-0.3295573890209198
1780626037560897000,4.30389697265625,-0.1860031634569168,0.7052378058433533,-0.29389554262161255
1780626037570892000,4.31389208984375,-0.22237661480903625,0.7670327425003052,-0.29862985014915466
1780626037580888000,4.32388818359375,-0.267229825258255,0.8040986061096191,-0.33646324276924133
1780626037590883000,4.333883056640625,-0.3021606504917145,0.7245774269104004,-0.3967241942882538
1780626037600878800,4.34387890625,-0.3072611391544342,0.4256588816642761,-0.49060142040252686
1780626037610873900,4.353873779296875,-0.2875998318195343,-0.12832894921302795,-0.6028898358345032
1780626037620869000,4.363869140625,-0.2619841992855072,-0.789914608001709,-0.6843135952949524
1780626037630865200,4.373865234375,-0.24775759875774384,-1.2411882877349854,-0.712200403213501
1780626037640860200,4.383860107421875,-0.26334241032600403,-1.3053433895111084,-0.7036049962043762
1780626037650855200,4.393855224609375,-0.29027682542800903,-1.010327696800232,-0.6673561930656433
1780626037660851000,4.403850830078125,-0.3184690475463867,-0.5313512086868286,-0.5961949229240417
1780626037670846000,4.413845947265625,-0.32663244009017944,-0.08771839737892151,-0.49823057651519775
1780626037680842200,4.42384228515625,-0.3232787251472473,0.1794017106294632,-0.3907211422920227
1780626037690837200,4.433837158203125,-0.31760644912719727,0.3034301996231079,-0.2856543958187103
1780626037700832300,4.443832275390625,-0.32320070266723633,0.3796836733818054,-0.1873674988746643
1780626037710828000,4.453828125,-0.3274551033973694,0.43008771538734436,-0.1174858808517456
1780626037720823000,4.463822998046875,-0.32827481627464294,0.43118762969970703,-0.0908510759472847
1780626037730819000,4.473819091796875,-0.3271152675151825,0.33813491463661194,-0.09862697124481201
1780626037740814000,4.48381396484375,-0.31894150376319885,0.18206168711185455,-0.16312819719314575
1780626037750808800,4.493808837890625,-0.2895090579986572,0.012721387669444084,-0.27378520369529724
1780626037760805000,4.50380517578125,-0.2539558410644531,-0.1423446238040924,-0.3906753361225128
1780626037770800000,4.513800048828125,-0.22429968416690826,-0.24394981563091278,-0.4820747673511505
1780626037780796200,4.523796142578125,-0.217895045876503,-0.26826873421669006,-0.5486881732940674
1780626037790791000,4.533791015625,-0.22494922578334808,-0.25640061497688293,-0.5919189453125
1780626037800786000,4.543785888671875,-0.25072088837623596,-0.24137720465660095,-0.6080127358436584
1780626037810782000,4.553781982421875,-0.28116828203201294,-0.25839000940322876,-0.5961262583732605
1780626037820777000,4.56377685546875,-0.2883537709712982,-0.3177233636379242,-0.5672093629837036
1780626037830773000,4.57377294921875,-0.28902968764305115,-0.34159356355667114,-0.5581626296043396
1780626037840768000,4.58376806640625,-0.2884688079357147,-0.3011521100997925,-0.5828847289085388
1780626037850763000,4.593762939453125,-0.284751832485199,-0.26874518394470215,-0.6258529424667358
1780626037860759000,4.603759033203125,-0.2838543653488159,-0.29292187094688416,-0.6422508358955383
1780626037870754000,4.613754150390625,-0.2879532277584076,-0.3230496942996979,-0.6241757273674011
1780626037880749800,4.623749755859375,-0.28083619475364685,-0.35726892948150635,-0.5761147141456604
1780626037890745000,4.6337451171875,-0.28447940945625305,-0.36622777581214905,-0.4934885501861572
1780626037900740000,4.643739990234375,-0.3133448660373688,-0.31615370512008667,-0.3924631178379059
1780626037910736100,4.653736083984375,-0.35752299427986145,-0.23417441546916962,-0.2962273955345154
1780626037920731100,4.663731201171875,-0.4008411467075348,-0.1664624810218811,-0.2161663919687271
1780626037930727000,4.673726806640625,-0.44241949915885925,-0.18594643473625183,-0.16339105367660522
1780626037940722000,4.683721923828125,-0.4837760031223297,-0.33066099882125854,-0.1196419820189476
1780626037950717000,4.693717041015625,-0.50919109582901,-0.5379319190979004,-0.08645153790712357
1780626037960713200,4.703713134765625,-0.5117599368095398,-0.7297436594963074,-0.07621114701032639
1780626037970708200,4.713708251953125,-0.5102019906044006,-0.8582150936126709,-0.12156504392623901
1780626037980704000,4.7237041015625,-0.5163105130195618,-0.9585286378860474,-0.22639399766921997
1780626037990699000,4.733698974609375,-0.5290592908859253,-1.0804142951965332,-0.3686171770095825
1780626038000694000,4.743694091796875,-0.5329185128211975,-1.2407432794570923,-0.4865081310272217
1780626038010690000,4.75368994140625,-0.5157621502876282,-1.3828381299972534,-0.5400938391685486
1780626038020685000,4.76368505859375,-0.4863629937171936,-1.4340394735336304,-0.5302183032035828
1780626038030681000,4.77368115234375,-0.46474823355674744,-1.3883135318756104,-0.4589846134185791
1780626038040676000,4.783676025390625,-0.45760083198547363,-1.2742434740066528,-0.34077197313308716
1780626038050671000,4.793671142578125,-0.4785572588443756,-1.0868914127349854,-0.17398031055927277
1780626038060667100,4.803667236328125,-0.5272504687309265,-0.8064802885055542,0.013552294112741947
1780626038070662100,4.813662109375,-0.5827563405036926,-0.50359708070755,0.21256738901138306
1780626038080658000,4.823657958984375,-0.5739370584487915,-0.21414850652217865,0.37790894508361816
1780626038090653000,4.83365283203125,-0.4461918771266937,0.06700939685106277,0.4272584021091461
1780626038100648200,4.843648193359375,-0.24425740540027618,0.3886888921260834,0.23733478784561157
1780626038110644200,4.853644287109375,-0.1122375950217247,0.800073504447937,-0.1786709427833557
1780626038120639000,4.863638916015625,-0.1610589325428009,1.1604796648025513,-0.5224165916442871
1780626038130635000,4.873635009765625,-0.3347899615764618,1.261143445968628,-0.5927882194519043
1780626038140630000,4.883630126953125,-0.41985905170440674,0.9906117916107178,-0.4410106837749481
1780626038150625000,4.893625,-0.3537450134754181,0.3437059819698334,-0.1691565364599228
1780626038160621000,4.90362109375,-0.19741666316986084,-0.2512325048446655,0.1617758423089981
1780626038170616000,4.913615966796875,-0.05048953741788864,-0.3746580183506012,0.47497716546058655
1780626038180612000,4.923612060546875,-0.014466291293501854,-0.19714662432670593,0.6513255834579468
1780626038190607000,4.933607177734375,-0.08092787116765976,-0.052144695073366165,0.651838481426239
1780626038200602000,4.94360205078125,-0.17311052978038788,-0.06903739273548126,0.5327752232551575
1780626038210598000,4.953597900390625,-0.2342335432767868,-0.2121812403202057,0.3815612196922302
1780626038220593000,4.963593017578125,-0.26172614097595215,-0.40330591797828674,0.2753426134586334
1780626038230589200,4.973589111328125,-0.24739913642406464,-0.6131494045257568,0.24758875370025635
1780626038240584200,4.983584228515625,-0.17567461729049683,-0.8790096044540405,0.26847487688064575
1780626038250579200,4.9935791015625,-0.07204356789588928,-1.1847079992294312,0.2817555069923401
1780626038260575000,5.003574951171875,-0.0033212280832231045,-1.399744987487793,0.23540133237838745
1780626038270570000,5.013570068359375,0.04202255234122276,-1.407151699066162,0.14086657762527466
1780626038280565000,5.02356494140625,0.07619783282279968,-1.2153346538543701,0.07476504892110825
1780626038290561000,5.03356103515625,0.06185351312160492,-0.9186896085739136,0.10297298431396484
1780626038300556000,5.04355615234375,0.002442385070025921,-0.5795179605484009,0.23910152912139893
1780626038310552000,5.053552001953125,-0.05540866404771805,-0.2620587646961212,0.4022044241428375
1780626038320547000,5.063547119140625,-0.09798222035169601,-0.003980360459536314,0.5154849290847778
1780626038330542000,5.0735419921875,-0.10896056890487671,0.17824430763721466,0.5403851866722107
1780626038340538000,5.0835380859375,-0.08896422386169434,0.28573426604270935,0.4961381256580353
1780626038350533000,5.093533203125,-0.06503865122795105,0.3207947909832001,0.43220147490501404
1780626038360529000,5.10352880859375,-0.0612013041973114,0.24214179813861847,0.37100470066070557
1780626038370524200,5.113524169921875,-0.09388042241334915,0.06982435286045074,0.3162200152873993
1780626038380519200,5.123519287109375,-0.14188788831233978,-0.11715272068977356,0.30305469036102295
1780626038390515200,5.13351513671875,-0.17529432475566864,-0.21708384156227112,0.35698288679122925
1780626038400510000,5.143510009765625,-0.1712268739938736,-0.17888878285884857,0.43443986773490906
1780626038410506000,5.153506103515625,-0.15709401667118073,-0.04291391000151634,0.4825650453567505
1780626038420501000,5.1635009765625,-0.13340386748313904,0.11988086253404617,0.49594664573669434
1780626038430496000,5.17349609375,-0.0843910500407219,0.2618294656276703,0.49128130078315735
1780626038440492000,5.183491943359375,-0.026927754282951355,0.33972135186195374,0.46122995018959045
1780626038450487300,5.1934873046875,0.019934825599193573,0.31954389810562134,0.39941078424453735
1780626038460483300,5.2034833984375,0.04320286586880684,0.18481485545635223,0.3139858841896057
1780626038470478300,5.213478271484375,0.05554262176156044,0.038780417293310165,0.22572633624076843
1780626038480473300,5.223473388671875,0.056591372936964035,0.010833472944796085,0.16616687178611755
1780626038490469400,5.233469482421875,0.0522480234503746,0.1284799426794052,0.15515443682670593
1780626038500464400,5.24346435546875,0.029441777616739273,0.30087727308273315,0.18056152760982513
1780626038510460400,5.25346044921875,-0.00532552320510149,0.434516042470932,0.22027137875556946
1780626038520455400,5.263455322265625,-0.03364451229572296,0.4784286320209503,0.24679113924503326
1780626038530450400,5.273450439453125,-0.05590534210205078,0.46893152594566345,0.2437383532524109
1780626038540446200,5.2834462890625,-0.07483083009719849,0.4725765883922577,0.19643449783325195
1780626038550441200,5.293441162109375,-0.09937053173780441,0.5330266356468201,0.11716417223215103
1780626038560437500,5.3034375,-0.12048380076885223,0.648622453212738,0.02941940724849701
1780626038570432500,5.3134326171875,-0.09219064563512802,0.800142228603363,-0.03129586949944496
1780626038580427500,5.323427490234375,-0.028835376724600792,0.9058468341827393,-0.0479707196354866
1780626038590423300,5.33342333984375,0.02400200627744198,0.8953302502632141,-0.030046582221984863
1780626038600418300,5.343418212890625,0.05997705087065697,0.7637280225753784,-0.0020764668006449938
1780626038610414300,5.353414306640625,0.1029687225818634,0.5849340558052063,0.014844193123281002
1780626038620409600,5.36340966796875,0.13301397860050201,0.3979282081127167,0.022889869287610054
1780626038630404400,5.373404296875,0.1424168050289154,0.21931611001491547,0.042985282838344574
1780626038640400400,5.383400390625,0.13134311139583588,0.044316865503787994,0.07561646401882172
1780626038650395400,5.3933955078125,0.09403035789728165,-0.08840709179639816,0.10371467471122742
1780626038660391400,5.403391357421875,0.054966844618320465,-0.10484092682600021,0.12197037786245346
1780626038670386400,5.413386474609375,0.025731995701789856,-0.012658271007239819,0.12345722317695618
1780626038680381200,5.423381103515625,0.0006735134520567954,0.11515907943248749,0.11355426162481308
1780626038690377500,5.43337744140625,-0.01372060552239418,0.2428765594959259,0.08471328765153885
1780626038700372500,5.44337255859375,-0.005079447291791439,0.3821604251861572,0.02352157048881054
1780626038710368500,5.453368408203125,0.028804218396544456,0.5060431957244873,-0.05628058314323425
1780626038720363300,5.46336328125,0.07046884298324585,0.5539242029190063,-0.12367480248212814
1780626038730358300,5.473358154296875,0.12073148041963577,0.48993080854415894,-0.14336462318897247
1780626038740354300,5.483354248046875,0.16225920617580414,0.31859874725341797,-0.12932921946048737
1780626038750349300,5.493349365234375,-0.04622155800461769,-0.3677457869052887,-0.42726796865463257
1780626038760345300,5.503345458984375,-0.4123185873031616,-1.4961402416229248,-1.0679081678390503
1780626038770340400,5.51334033203125,-0.2385326772928238,-1.5208386182785034,-1.078616976737976
1780626038780335400,5.52333544921875,-0.008623582310974598,-0.9085027575492859,-0.8162442445755005
1780626038790331400,5.533331298828125,0.05519294738769531,-0.3608737587928772,-0.6280391812324524
1780626038800326400,5.543326416015625,-0.09467963874340057,-0.17321492731571198,-0.5515041947364807
1780626038810322200,5.553322265625,-0.3355873227119446,-0.3514893352985382,-0.5127807259559631
1780626038820317200,5.563317138671875,-0.5197350382804871,-0.7582594752311707,-0.4960273206233978
1780626038830312400,5.5733125,-0.6075527667999268,-1.1065237522125244,-0.4948962926864624
1780626038840308500,5.58330859375,-0.6205431818962097,-1.2025234699249268,-0.5142838358879089
1780626038850303500,5.593303466796875,-0.5630055665969849,-1.151403546333313,-0.5337371826171875
1780626038860299300,5.60329931640625,-0.4427979290485382,-1.1131395101547241,-0.5111154913902283
1780626038870294300,5.613294189453125,-0.3318740725517273,-1.1756527423858643,-0.4493626356124878
1780626038880289300,5.623289306640625,-0.21574294567108154,-1.3370198011398315,-0.35404568910598755
1780626038890285600,5.63328564453125,-0.0555839017033577,-1.4358690977096558,-0.2579402029514313
1780626038900280600,5.643280517578125,0.10635226964950562,-1.1570167541503906,-0.12172537297010422
1780626038910276400,5.6532763671875,0.20802722871303558,-0.5335094332695007,0.0980416089296341
1780626038920271400,5.663271240234375,0.2933621108531952,0.09229157865047455,0.38781991600990295
1780626038930266400,5.673266357421875,0.4051448404788971,0.6932240128517151,0.5920931696891785
1780626038940262400,5.683262451171875,0.5022258162498474,1.1609574556350708,0.7009591460227966
1780626038950257400,5.69325732421875,0.5767903327941895,1.4201329946517944,0.7676085233688354
1780626038960253400,5.70325341796875,0.6307710409164429,1.4816012382507324,0.8263285756111145
1780626038970248400,5.71324853515625,0.6621891260147095,1.4886900186538696,0.9437622427940369
1780626038980243500,5.723243408203125,0.6646022200584412,1.4745206832885742,1.1496365070343018
1780626038990239500,5.733239501953125,0.6971527338027954,1.2713773250579834,1.292680263519287
1780626039000234200,5.743234130859375,0.8169845938682556,0.9743648767471313,1.2365217208862305
1780626039010230300,5.753230224609375,0.9907494187355042,0.6644808053970337,1.0027014017105103
1780626039020225300,5.763225341796875,0.8667467832565308,0.6112492680549622,0.8115581274032593
1780626039030220300,5.77322021484375,0.5275277495384216,1.0346449613571167,0.8298974633216858
1780626039040216300,5.78321630859375,0.30919405817985535,1.601932406425476,0.9178555607795715
1780626039050211300,5.79321142578125,0.12332166731357574,1.6979715824127197,0.8254081606864929
1780626039060207400,5.803207275390625,0.028972528874874115,1.4550433158874512,0.649372398853302
1780626039070202400,5.813202392578125,0.01395629532635212,0.9323239326477051,0.4415702223777771
1780626039080197400,5.823197265625,0.04234053194522858,0.2245742529630661,0.23570813238620758
1780626039090193200,5.833193115234375,0.06619153916835785,-0.2705838084220886,0.06373610347509384
1780626039100188400,5.8431884765625,0.08046554774045944,-0.3779643476009369,-0.05318492278456688
1780626039110184400,5.853184326171875,0.08903399854898453,-0.26794809103012085,-0.11312122642993927
1780626039120179500,5.863179443359375,0.08383258432149887,-0.13414129614830017,-0.14078322052955627
1780626039130174500,5.873174560546875,0.08483899384737015,-0.008518652990460396,-0.15256983041763306
1780626039140170200,5.883170166015625,0.10230400413274765,0.13155455887317657,-0.1647021323442459
1780626039150165200,5.893165283203125,0.12179088592529297,0.27851417660713196,-0.1779915690422058
1780626039160161500,5.90316162109375,0.1142493411898613,0.373553603887558,-0.20177093148231506
1780626039170156500,5.913156494140625,0.09003747999668121,0.36214515566825867,-0.24204964935779572
1780626039180151600,5.923151611328125,0.07168803364038467,0.27831605076789856,-0.28569671511650085
1780626039190147300,5.933147216796875,0.07724445313215256,0.19504138827323914,-0.3128646910190582
1780626039200142300,5.943142333984375,0.0988331064581871,0.133929044008255,-0.311726450920105
1780626039210138400,5.953138427734375,0.11750159412622452,0.10642657428979874,-0.26540130376815796
1780626039220133400,5.96313330078125,0.12201432138681412,0.13633733987808228,-0.18538397550582886
1780626039230128400,5.97312841796875,0.11727602779865265,0.24108877778053284,-0.10821249336004257
1780626039240124400,5.98312451171875,0.08781800419092178,0.3528185188770294,-0.03816922381520271
1780626039250119400,5.993119384765625,0.02201874926686287,0.405860960483551,0.015387478284537792
1780626039260115500,6.003115478515625,-0.02905375510454178,0.39196404814720154,0.038415830582380295
1780626039270110500,6.0131103515625,-0.0405583456158638,0.3542398512363434,0.01672678254544735
1780626039280105500,6.02310546875,-0.008280300535261631,0.3373865485191345,-0.042823631316423416
1780626039290101200,6.033101318359375,0.04344334825873375,0.337312251329422,-0.12614168226718903
1780626039300096300,6.04309619140625,0.09351823478937149,0.30079472064971924,-0.2203661948442459
1780626039310092500,6.053092529296875,0.12532676756381989,0.20543305575847626,-0.30783745646476746
1780626039320087600,6.063087646484375,0.14349618554115295,0.07372801750898361,-0.3831159472465515
1780626039330082300,6.073082275390625,0.15052159130573273,-0.0561375729739666,-0.4349762201309204
1780626039340078300,6.083078369140625,0.14527596533298492,-0.15094158053398132,-0.4440147280693054
1780626039350073300,6.0930732421875,0.13635997474193573,-0.1640901416540146,-0.4163508713245392
1780626039360068400,6.103068359375,0.1317359209060669,-0.09489215910434723,-0.35917094349861145
1780626039370064400,6.113064453125,0.11887871474027634,0.02280731126666069,-0.2796715795993805
1780626039380059400,6.123059326171875,0.09914522618055344,0.14795270562171936,-0.19518733024597168
1780626039390055400,6.133055419921875,0.08774955570697784,0.24108345806598663,-0.1378082036972046
1780626039400050400,6.143050537109375,0.09004253894090652,0.31208544969558716,-0.11990723013877869
1780626039410045400,6.15304541015625,0.10395515710115433,0.3536917567253113,-0.11910855025053024
1780626039420041200,6.163041259765625,0.11715645343065262,0.3856031000614166,-0.11640969663858414
1780626039430036200,6.1730361328125,0.1325252801179886,0.4084886908531189,-0.12396721541881561
1780626039440032500,6.183032470703125,0.14238697290420532,0.43826550245285034,-0.15591156482696533
1780626039450027300,6.19302734375,0.15735286474227905,0.475614458322525,-0.21054871380329132
1780626039460022300,6.203022216796875,0.1724623143672943,0.5426832437515259,-0.26577523350715637
1780626039470018000,6.21301806640625,0.16675809025764465,0.6798192858695984,-0.32633817195892334
1780626039480013000,6.223012939453125,0.14956125617027283,0.8342961668968201,-0.3981231451034546
1780626039490009000,6.233009033203125,0.12352380156517029,0.9178997278213501,-0.47875407338142395
1780626039500004000,6.243004150390625,0.09314725548028946,0.8465794920921326,-0.5283530354499817
1780626039509999000,6.2529990234375,0.06889118254184723,0.6513753533363342,-0.5201569199562073
1780626039519995100,6.2629951171875,0.06987815350294113,0.4542290270328522,-0.4401049315929413
1780626039529990100,6.272990234375,0.09728021174669266,0.33553460240364075,-0.3393405079841614
1780626039539986200,6.282986083984375,0.13065308332443237,0.30784890055656433,-0.2796953022480011
1780626039549981200,6.292981201171875,0.14132064580917358,0.3368033170700073,-0.26123347878456116
1780626039559976200,6.30297607421875,0.10320495069026947,0.401790589094162,-0.2748696506023407
1780626039569972000,6.312971923828125,0.022646456956863403,0.46955764293670654,-0.31658193469047546
1780626039579967000,6.322967041015625,-0.06872154027223587,0.5182900428771973,-0.38730698823928833
1780626039589963300,6.33296337890625,-0.11589410901069641,0.5094429850578308,-0.4493330717086792
1780626039599958300,6.342958251953125,-0.08078592270612717,0.43580126762390137,-0.49212127923965454
1780626039609953300,6.352953369140625,0.017313210293650627,0.30025115609169006,-0.5302239060401917
1780626039619949000,6.362948974609375,0.12405084073543549,0.1417107880115509,-0.5696938037872314
1780626039629944000,6.372944091796875,0.1908024400472641,0.01452887523919344,-0.6009164452552795
1780626039639940000,6.382940185546875,0.20701895654201508,-0.055026501417160034,-0.6080390810966492
1780626039649935400,6.392935302734375,0.19382911920547485,-0.1078585535287857,-0.5970703363418579
1780626039659930000,6.40293017578125,0.16123948991298676,-0.14970986545085907,-0.5816322565078735
1780626039669926100,6.412926025390625,0.1180880218744278,-0.17349189519882202,-0.5688762664794922
1780626039679921200,6.422921142578125,0.08821108192205429,-0.1937585473060608,-0.5316681265830994
1780626039689917200,6.432917236328125,0.09550947695970535,-0.17578141391277313,-0.4628904163837433
1780626039699912200,6.442912109375,0.14321228861808777,-0.11386425048112869,-0.3854401111602783
1780626039709907000,6.452906982421875,0.20135068893432617,-0.058989018201828,-0.33690398931503296
1780626039719903200,6.4629033203125,0.2316494733095169,-0.04755260422825813,-0.33774101734161377
1780626039729898200,6.472898193359375,0.2317570596933365,-0.04987408220767975,-0.37203508615493774
1780626039739894300,6.482894287109375,0.21215806901454926,-0.04333841800689697,-0.39923128485679626
1780626039749889000,6.492888916015625,0.1822531670331955,-0.023195866495370865,-0.4064851999282837
1780626039759884000,6.502884033203125,0.15682929754257202,-0.008020908571779728,-0.4006888270378113
1780626039769880000,6.512880126953125,0.13421691954135895,-0.007388407830148935,-0.3822605609893799
1780626039779875000,6.522875,0.11672874540090561,-0.013701431453227997,-0.34823495149612427
1780626039789871000,6.53287109375,0.1009436547756195,-0.02123311720788479,-0.30319875478744507
1780626039799866000,6.5428662109375,0.08378437906503677,-0.019931629300117493,-0.2628327012062073
1780626039809861000,6.552861083984375,0.06418697535991669,-0.0067226174287498,-0.24610164761543274
1780626039819857200,6.562857177734375,0.04966209456324577,0.003939347807317972,-0.26464763283729553
1780626039829852200,6.57285205078125,0.04951322451233864,0.00041625206358730793,-0.32117030024528503
1780626039839848000,6.582847900390625,0.07100626826286316,-0.015984559431672096,-0.4015817940235138
1780626039849843000,6.592843017578125,0.10088453441858292,-0.030519559979438782,-0.48104944825172424
1780626039859838200,6.602838134765625,0.12034505605697632,-0.010074738413095474,-0.5355387926101685
1780626039869834200,6.612834228515625,0.1265116035938263,0.037281058728694916,-0.5517811179161072
1780626039879829200,6.622829345703125,0.12000789493322372,0.0945424810051918,-0.5325115919113159
1780626039889825000,6.632824951171875,0.09014693647623062,0.14649036526679993,-0.48563966155052185
1780626039899820000,6.642820068359375,0.05284350737929344,0.18098708987236023,-0.42628633975982666
1780626039909815000,6.65281494140625,0.012675048783421516,0.1887451559305191,-0.3687756359577179
1780626039919811300,6.662811279296875,-0.010783405043184757,0.17682990431785583,-0.34531211853027344
1780626039929806300,6.672806396484375,-0.01732972078025341,0.13800740242004395,-0.3491223156452179
1780626039939802000,6.682802001953125,0.001276453142054379,0.07040732353925705,-0.35984206199645996
1780626039949797000,6.692797119140625,0.03296993300318718,-0.013654559850692749,-0.36713460087776184
1780626039959792000,6.702792236328125,0.06483358889818192,-0.10785190016031265,-0.36828935146331787
1780626039969788200,6.7127880859375,0.0789739117026329,-0.21306459605693817,-0.3733062148094177
1780626039979783200,6.722783203125,0.07400418817996979,-0.32208696007728577,-0.38904044032096863
1780626039989779200,6.732779296875,0.06789329648017883,-0.43635040521621704,-0.40320152044296265
1780626039999774200,6.742774169921875,0.05952431261539459,-0.5579218864440918,-0.3933289051055908
1780626040009769200,6.752769287109375,0.035599540919065475,-0.663713812828064,-0.35436952114105225
1780626040019765200,6.76276513671875,0.010220146737992764,-0.6934767365455627,-0.2941695749759674
1780626040029760000,6.772760009765625,0.003736148588359356,-0.6515705585479736,-0.2098696082830429
1780626040039756000,6.782756103515625,0.003442135639488697,-0.5589330792427063,-0.09871991723775864
1780626040049751000,6.7927509765625,0.006828344892710447,-0.377212792634964,0.003594468580558896
1780626040059746000,6.80274609375,0.026747457683086395,-0.09301596134901047,0.057689130306243896
1780626040069742000,6.8127421875,0.05450079217553139,0.19335508346557617,0.05119447782635689
1780626040079737000,6.822737060546875,0.07409952580928802,0.3362269997596741,-0.0025268071331083775
1780626040089733000,6.832733154296875,0.074576236307621,0.2698056399822235,-0.07415945082902908
1780626040099728100,6.84272802734375,0.06793510913848877,0.11959563940763474,-0.13624918460845947
1780626040109723100,6.85272314453125,0.0645049586892128,0.04002464935183525,-0.1654890924692154
1780626040119719000,6.862718994140625,0.04563193395733833,0.026969298720359802,-0.13340039551258087
1780626040129714200,6.872714111328125,0.016049273312091827,0.051895420998334885,-0.06120077148079872
1780626040139710200,6.882710205078125,-0.016149409115314484,0.08646830916404724,-0.00023329291434492916
1780626040149705200,6.892705322265625,-0.06221676990389824,0.1545693427324295,0.013294766657054424
1780626040159700200,6.9027001953125,-0.11219631135463715,0.22425201535224915,0.003865045728161931
1780626040169696000,6.912696044921875,-0.13915309309959412,0.26051759719848633,0.015693210065364838
1780626040179691000,6.92269091796875,-0.1519589126110077,0.2328452318906784,0.07844100892543793
1780626040189687300,6.932687255859375,-0.18197326362133026,0.27872830629348755,0.170579195022583
1780626040199682300,6.942682373046875,-0.24938826262950897,0.49132099747657776,0.2658010423183441
1780626040209677300,6.95267724609375,-0.33247676491737366,0.7309887409210205,0.3626146912574768
1780626040219673000,6.962673095703125,-0.3915768265724182,0.8376262187957764,0.44804808497428894
1780626040229668000,6.972668212890625,-0.3903682827949524,0.7489903569221497,0.5041113495826721
1780626040239664000,6.9826640625,-0.32922396063804626,0.4606371223926544,0.510239839553833
1780626040249659100,6.9926591796875,-0.23496749997138977,0.07852889597415924,0.42878252267837524
1780626040259654100,7.002654052734375,-0.11132679134607315,-0.29507264494895935,0.26720401644706726
1780626040269650200,7.012650146484375,0.013493970967829227,-0.6017258167266846,0.11118137836456299
1780626040279645200,7.022645263671875,0.0904766395688057,-0.7086855173110962,0.03790077567100525
1780626040289641200,7.03264111328125,0.08934798836708069,-0.4805122911930084,0.04168938845396042
1780626040299636200,7.04263623046875,0.047558996826410294,-0.08142082393169403,0.13426139950752258
1780626040309631200,7.05263134765625,0.016646089032292366,0.2194274216890335,0.3299185037612915
1780626040319627000,7.062626953125,-0.003888747887685895,0.39066895842552185,0.5617395043373108
1780626040329622000,7.0726220703125,-0.013080115430057049,0.4503205716609955,0.7539473176002502
1780626040339618300,7.082618408203125,-0.009133577346801758,0.3637832701206207,0.8580057621002197
1780626040349613300,7.09261328125,0.013925403356552124,0.1399107575416565,0.8567032217979431
1780626040359608000,7.102608154296875,0.0586574524641037,-0.17227908968925476,0.7797120213508606
1780626040369604000,7.11260400390625,0.11180029809474945,-0.45945706963539124,0.6724410057067871
1780626040379599000,7.12259912109375,0.15086062252521515,-0.6601723432540894,0.5694067478179932
1780626040389595100,7.13259521484375,0.1762959361076355,-0.7736040949821472,0.471918523311615
1780626040399590000,7.14258984375,0.18117831647396088,-0.8279170989990234,0.34105318784713745
1780626040409585200,7.152585205078125,0.18032556772232056,-0.8412070870399475,0.15151256322860718
1780626040419581200,7.162581298828125,0.18569210171699524,-0.8118681311607361,-0.09891699254512787
1780626040429576200,7.172576171875,0.17158401012420654,-0.729083776473999,-0.3810408115386963
1780626040439572000,7.182572021484375,0.12259861826896667,-0.5660309195518494,-0.6647061109542847
1780626040449567000,7.19256689453125,0.04344840720295906,-0.33705204725265503,-0.8680775761604309
1780626040459562000,7.20256201171875,-0.011692608706653118,-0.06358376890420914,-0.9043237566947937
1780626040469558000,7.21255810546875,0.004762797150760889,0.2079119235277176,-0.7606281042098999
1780626040479553000,7.222552978515625,0.06433717906475067,0.42842352390289307,-0.48845648765563965
1780626040489548000,7.232548095703125,0.09651189297437668,0.6156868934631348,-0.14839665591716766
1780626040499543800,7.242543701171875,0.061230067163705826,0.8074776530265808,0.2530261278152466
1780626040509539000,7.2525390625,-0.049135588109493256,1.0691473484039307,0.6793569326400757
1780626040519535000,7.26253515625,-0.21573282778263092,1.4654337167739868,1.0478825569152832
1780626040529530000,7.272530029296875,-0.42085081338882446,1.8619349002838135,1.3001503944396973
1780626040539525000,7.282525146484375,-0.5612103343009949,1.9027905464172363,1.3562557697296143
1780626040549521000,7.29252099609375,-0.4914807975292206,1.3552461862564087,1.1096683740615845
1780626040559516000,7.302515869140625,-0.25932103395462036,0.4266189634799957,0.48039084672927856
1780626040569512000,7.312511962890625,-0.07221294194459915,-0.4520673453807831,-0.3391684889793396
1780626040579507200,7.322507080078125,-0.1163439229130745,-0.681265652179718,-0.863957941532135
1780626040589502200,7.332502197265625,-0.3759041130542755,-0.4547770917415619,-0.834887683391571
1780626040599498000,7.342498046875,-0.5795571208000183,-0.3057447373867035,-0.4318036139011383
1780626040609493000,7.352492919921875,-0.5818554162979126,-0.3990075886249542,-0.08575112372636795
1780626040619489000,7.362489013671875,-0.46627530455589294,-0.5604017972946167,-0.022850187495350838
1780626040629484000,7.372484130859375,-0.30975067615509033,-0.6174333691596985,-0.10195912420749664
1780626040639479000,7.38247900390625,-0.2179136872291565,-0.628064751625061,-0.11633379757404327
1780626040649475000,7.39247509765625,-0.2309410721063614,-0.6149792671203613,-0.009614810347557068
1780626040659470000,7.402469970703125,-0.3018301725387573,-0.5049291849136353,0.1306176632642746
1780626040669466000,7.412466064453125,-0.3660096824169159,-0.29233863949775696,0.20255017280578613
1780626040679461000,7.422461181640625,-0.39370521903038025,-0.030057767406105995,0.17762619256973267
1780626040689455900,7.432455810546875,-0.4021093547344208,0.08185651898384094,0.1713576316833496
1780626040699452000,7.442451904296875,-0.410791277885437,-0.053217947483062744,0.21830064058303833
1780626040709447000,7.452447021484375,-0.39740779995918274,-0.216024711728096,0.24784468114376068
1780626040719443200,7.462443115234375,-0.37846875190734863,-0.2772121727466583,0.22619132697582245
1780626040729438000,7.47243798828125,-0.3786969780921936,-0.28500083088874817,0.2157309651374817
1780626040739433000,7.482432861328125,-0.40669745206832886,-0.26958194375038147,0.2645784020423889
1780626040749429000,7.492428955078125,-0.44931814074516296,-0.21985167264938354,0.34224921464920044
1780626040759424000,7.502424072265625,-0.4818577170372009,-0.1407637745141983,0.38316017389297485
1780626040769420000,7.512419921875,-0.5209712982177734,-0.023797208443284035,0.33288875222206116
1780626040779414800,7.522414794921875,-0.5594435930252075,0.0825183093547821,0.26623088121414185
1780626040789410000,7.53241015625,-0.5851992964744568,0.1585044264793396,0.2651784121990204
1780626040799406000,7.542406005859375,-0.6107637882232666,0.2704906165599823,0.32671019434928894
1780626040809401000,7.552401123046875,-0.6355833411216736,0.4285143315792084,0.4030534625053406
1780626040819396900,7.56239697265625,-0.6570897102355957,0.5776162147521973,0.4536404609680176
1780626040829392000,7.572391845703125,-0.6744716167449951,0.6314210891723633,0.4190302789211273
1780626040839387000,7.582386962890625,-0.6727815866470337,0.5530394911766052,0.29941466450691223
1780626040849383200,7.592383056640625,-0.6396856904029846,0.3822208642959595,0.16786757111549377
1780626040859378200,7.602378173828125,-0.5986796617507935,0.06181356683373451,0.10231305658817291
1780626040869374000,7.6123740234375,-0.5599828958511353,-0.1916048526763916,0.14665016531944275
1780626040879369000,7.622368896484375,-0.5343014597892761,-0.25221946835517883,0.23415523767471313
1780626040889364000,7.632364013671875,-0.5162891745567322,-0.18329791724681854,0.2856549322605133
1780626040899360000,7.642360107421875,-0.4853525757789612,-0.0655776783823967,0.26566281914711
1780626040909355000,7.65235498046875,-0.418012410402298,0.03177604079246521,0.18587106466293335
1780626040919351000,7.66235107421875,-0.32740557193756104,0.09898117184638977,0.08104424923658371
1780626040929346000,7.672345947265625,-0.2278645932674408,0.08992509543895721,0.012535233050584793
1780626040939341000,7.682341064453125,-0.16429679095745087,0.007501325570046902,0.04427611827850342
1780626040949337000,7.692337158203125,-0.16655835509300232,-0.08050736039876938,0.16586565971374512
1780626040959332000,7.70233203125,-0.21309016644954681,-0.13207094371318817,0.3064371645450592
1780626040969327900,7.712327880859375,-0.2493578940629959,-0.14385810494422913,0.3854856491088867
1780626040979323000,7.722322998046875,-0.26405107975006104,-0.14134301245212555,0.3724689185619354
1780626040989318000,7.73231787109375,-0.2587207853794098,-0.14403466880321503,0.3036978244781494
1780626040999314200,7.742314208984375,-0.2554088532924652,-0.10728837549686432,0.2264203578233719
1780626041009309000,7.752308837890625,-0.27139583230018616,-0.011168498545885086,0.20204897224903107
1780626041019305000,7.762304931640625,-0.31573984026908875,0.11322961747646332,0.2702306807041168
1780626041029300000,7.772300048828125,-0.3829633593559265,0.22401179373264313,0.3644208312034607
1780626041039295000,7.782294921875,-0.4466446042060852,0.2494836002588272,0.3935108184814453
1780626041049291000,7.792291015625,-0.4827786386013031,0.24370241165161133,0.32132238149642944
1780626041059286000,7.8022861328125,-0.46956801414489746,0.20220689475536346,0.19231830537319183
1780626041069282000,7.812281982421875,-0.4205147325992584,0.14321094751358032,0.07155913859605789
1780626041079277000,7.822277099609375,-0.37102067470550537,0.09683253616094589,0.012561864219605923
1780626041089272000,7.83227197265625,-0.33250710368156433,0.08895410597324371,0.019337212666869164
1780626041099267800,7.842267822265625,-0.2836000323295593,0.11652128398418427,0.035343609750270844
1780626041109262800,7.852262939453125,-0.19036808609962463,0.12618562579154968,-0.024216389283537865
1780626041119259100,7.862259033203125,-0.04370487108826637,0.07076098769903183,-0.16994349658489227
1780626041129254100,7.872254150390625,0.14670023322105408,0.000027430558475316502,-0.401714950799942
1780626041139249200,7.882249267578125,0.34977051615715027,-0.01101749762892723,-0.5968692302703857
1780626041149245000,7.892244873046875,0.5146886110305786,0.2111407369375229,-0.6149153709411621
1780626041159240000,7.902239990234375,0.6126689910888672,0.6844406723976135,-0.4862402081489563
1780626041169235000,7.91223486328125,0.6308272480964661,1.1912574768066406,-0.35595276951789856
1780626041179231000,7.92223095703125,0.5847201943397522,1.4830925464630127,-0.30862361192703247
1780626041189226000,7.93222607421875,0.5136345624923706,1.5874141454696655,-0.3076568841934204
1780626041199222000,7.942221923828125,0.4111611843109131,1.4932078123092651,-0.3139480650424957
1780626041209217000,7.952217041015625,0.23254109919071198,1.2903289794921875,-0.32644015550613403
1780626041219212000,7.9622119140625,-0.025587385520339012,1.2000645399093628,-0.35619673132896423
1780626041229208000,7.9722080078125,-0.32410112023353577,1.177757978439331,-0.462612122297287
1780626041239203000,7.982203125,-0.5521385073661804,0.8598787784576416,-0.5589469075202942
1780626041249198800,7.99219873046875,-0.6280593872070312,0.30134493112564087,-0.6240044832229614
1780626041259193900,8.00219384765625,-0.5192564725875854,-0.13356418907642365,-0.6358925700187683
1780626041269189000,8.012189208984376,-0.30381980538368225,-0.32275593280792236,-0.6169806718826294
1780626041279185200,8.02218505859375,-0.06693562120199203,-0.447216659784317,-0.611036479473114
1780626041289180200,8.03218017578125,0.13433463871479034,-0.5676764845848083,-0.6535738110542297
1780626041299176000,8.042176025390624,0.24339507520198822,-0.43807268142700195,-0.7093113660812378
1780626041309171000,8.0521708984375,0.22511674463748932,-0.14613111317157745,-0.7634212374687195
1780626041319166000,8.062166015625,0.10118014365434647,-0.05143842473626137,-0.7570543885231018
1780626041329162200,8.072162353515624,-0.05880605801939964,-0.06917454302310944,-0.6336922645568848
1780626041339157000,8.082156982421875,-0.1805788278579712,-0.002651176881045103,-0.4607921242713928
1780626041349153000,8.092153076171876,-0.23680615425109863,0.07968390733003616,-0.3350605368614197
1780626041359148000,8.10214794921875,-0.2541193664073944,0.03343891724944115,-0.3661034107208252
1780626041369143000,8.11214306640625,-0.2121170461177826,-0.09252167493104935,-0.49575915932655334
1780626041379139000,8.12213916015625,-0.11920468509197235,-0.0976911410689354,-0.5026788711547852
1780626041389133800,8.1321337890625,0.01107475534081459,0.09465061128139496,-0.33258727192878723
1780626041399130000,8.142130126953125,0.09223778545856476,0.3624657988548279,-0.12005610018968582
1780626041409125000,8.152125,0.07589662820100784,0.3245692849159241,0.0389908067882061
1780626041419120000,8.1621201171875,0.026511767879128456,0.06520110368728638,0.10222330689430237
1780626041429116000,8.172115966796875,-0.003563842037692666,-0.18512378633022308,0.003575559938326478
1780626041439111000,8.18211083984375,0.007151918951421976,-0.39422985911369324,-0.22287090122699738
1780626041449107700,8.192107666015625,0.09035945683717728,-0.4780033230781555,-0.4738144278526306
1780626041459102700,8.202102783203125,0.22420673072338104,-0.5337635278701782,-0.6211287975311279
1780626041469097700,8.21209765625,0.33731570839881897,-0.36223918199539185,-0.5097237229347229
1780626041479093500,8.222093505859375,0.35588592290878296,0.07740744203329086,-0.2073124349117279
1780626041489088500,8.232088623046875,0.24442492425441742,0.571893572807312,0.05439426749944687
1780626041499084800,8.242084716796874,0.1051676943898201,0.8508450984954834,0.20232567191123962
1780626041509079800,8.252079833984375,0.04956568777561188,0.763680636882782,0.16877970099449158
1780626041519074600,8.262074462890626,0.07579515874385834,0.4628762900829315,0.08472154289484024
1780626041529070600,8.272070556640625,0.11569171398878098,0.20700670778751373,0.06101488322019577
1780626041539065600,8.282065673828125,0.13512186706066132,0.08484724909067154,0.07535707205533981
1780626041549061600,8.2920615234375,0.13869263231754303,0.08776047825813293,0.02738608419895172
1780626041559056600,8.302056640625,0.13009728491306305,0.1413842886686325,-0.06865895539522171
1780626041569051600,8.3120517578125,0.11487172544002533,0.21065203845500946,-0.08033531904220581
1780626041579047700,8.322047607421876,0.11467918008565903,0.20833349227905273,-0.06318935751914978
1780626041589042700,8.332042724609375,0.1457337737083435,0.23830364644527435,-0.006608367897570133
1780626041599037700,8.34203759765625,0.21179747581481934,0.2638814449310303,0.10615945607423782
1780626041609033500,8.352033447265624,0.2805946469306946,0.23867595195770264,0.23646819591522217
1780626041619028500,8.362028564453125,0.3113536238670349,0.20235364139080048,0.34355178475379944
1780626041629024800,8.372024658203125,0.281869500875473,-0.014279603026807308,0.29098817706108093
1780626041639019800,8.382019775390624,0.24034230411052704,-0.21766415238380432,0.1562817543745041
1780626041649014800,8.392014892578125,0.22979165613651276,-0.20498137176036835,0.02539004571735859
1780626041659010600,8.402010498046875,0.23974229395389557,-0.24598820507526398,-0.047092944383621216
1780626041669005600,8.412005615234374,0.2612270712852478,-0.2944082021713257,-0.03218802809715271
1780626041679001600,8.422001708984375,0.2739492654800415,-0.31750500202178955,0.05048474669456482
1780626041688996600,8.43199658203125,0.2723985016345978,-0.2640646696090698,0.19129805266857147
1780626041698991600,8.44199169921875,0.21956723928451538,-0.03509407117962837,0.3889261782169342
1780626041708987600,8.451987548828125,0.18117591738700867,-0.03280108794569969,0.4844124913215637
1780626041718982700,8.461982666015626,0.22249272465705872,-0.1778983622789383,0.42953911423683167
1780626041728978700,8.471978759765625,0.2746161222457886,-0.14099040627479553,0.32571685314178467
1780626041738973700,8.4819736328125,0.30882254242897034,-0.17833298444747925,0.15787911415100098
1780626041748968700,8.49196875,0.3337145745754242,-0.2931796908378601,0.049786463379859924
1780626041758964500,8.501964599609375,0.28334009647369385,-0.16358253359794617,0.02875734493136406
1780626041768959500,8.51195947265625,0.1659407615661621,0.016385098919272423,0.055268846452236176
1780626041778955800,8.521955810546874,0.10497861355543137,0.049000032246112823,0.15864238142967224
1780626041788950800,8.53195068359375,0.11763449013233185,-0.08968141674995422,0.21248136460781097
1780626041798945800,8.54194580078125,0.17258988320827484,-0.20455633103847504,0.17979639768600464
1780626041808941600,8.551941650390624,0.28209561109542847,-0.24629312753677368,0.1278786063194275
1780626041818936600,8.5619365234375,0.42934125661849976,-0.3250609040260315,0.11098750680685043
1780626041828932600,8.5719326171875,0.5935363173484802,-0.4182033836841583,0.14258457720279694
1780626041838928000,8.581927978515624,0.7409135103225708,-0.4355115294456482,0.23613956570625305
1780626041848922600,8.591922607421875,0.7861931324005127,-0.2501291334629059,0.38492265343666077
1780626041858918700,8.601918701171876,0.6242031455039978,0.0450737364590168,0.5256126523017883
1780626041868913700,8.61191357421875,0.29083874821662903,0.2364484965801239,0.602218747138977
1780626041878909700,8.62190966796875,0.050983820110559464,0.29294586181640625,0.6186589598655701
1780626041888904400,8.631904541015626,0.009159144014120102,0.2330383062362671,0.5741402506828308
1780626041898899500,8.6418994140625,0.07491738349199295,0.08107061684131622,0.44830402731895447
1780626041908895700,8.651895751953125,0.1454530656337738,-0.10880663990974426,0.26638028025627136
1780626041918890800,8.661890869140626,0.16100220382213593,-0.25482162833213806,0.11141414195299149
1780626041928886500,8.671886474609375,0.1348496973514557,-0.3202592432498932,0.04111281409859657
1780626041938881500,8.681881591796875,0.09631641954183578,-0.23043666779994965,0.06827253103256226
1780626041948876500,8.69187646484375,0.04861866682767868,-0.062380287796258926,0.145193412899971
1780626041958872600,8.70187255859375,-0.001127582392655313,0.0008458199445158243,0.2055121511220932
1780626041968867600,8.71186767578125,-0.01338664535433054,-0.02359081245958805,0.2287045568227768
1780626041978863600,8.721863525390624,0.025790851563215256,-0.024020381271839142,0.24223127961158752
1780626041988858600,8.731858642578125,0.11903531104326248,0.005886651109904051,0.2386770248413086
1780626041998853600,8.741853515625,0.21198415756225586,0.03531378135085106,0.21430830657482147
1780626042008849700,8.751849609375,0.23949967324733734,-0.017913220450282097,0.16054227948188782
1780626042018844700,8.7618447265625,0.18178071081638336,-0.09987812489271164,0.11314067244529724
1780626042028840400,8.77184033203125,0.0962596908211708,-0.09559310227632523,0.08314681798219681
1780626042038835500,8.78183544921875,0.04313388839364052,-0.019336946308612823,0.07761729508638382
1780626042048830700,8.791830810546875,0.024652082473039627,0.039439551532268524,0.08008205145597458
1780626042058826800,8.80182666015625,0.03074832446873188,0.005930593237280846,0.061477210372686386
1780626042068821800,8.81182177734375,0.04139670729637146,-0.12714144587516785,0.01830097660422325
1780626042078816800,8.821816650390625,0.03678304702043533,-0.22281257808208466,-0.03554973751306534
1780626042088812500,8.8318125,0.03383519500494003,-0.1880471408367157,-0.06120743229985237
1780626042098807600,8.8418076171875,0.029859894886612892,-0.07946419715881348,-0.009893377311527729
1780626042108803800,8.851803955078125,0.030765103176236153,0.056348495185375214,0.06756759434938431
1780626042118798800,8.861798828125,0.024049144238233566,0.23395444452762604,0.14733858406543732
1780626042128793600,8.871793701171875,0.0050687943585217,0.3662213981151581,0.19346827268600464
1780626042138789600,8.88178955078125,0.0005448827287182212,0.35812512040138245,0.18728014826774597
1780626042148784600,8.89178466796875,0.013653228059411049,0.20530495047569275,0.1067834347486496
1780626042158780700,8.90178076171875,0.02797730639576912,0.10501536726951599,0.02793229930102825
1780626042168775700,8.911775634765625,0.018668493255972862,0.12513688206672668,-0.017943046987056732
1780626042178770400,8.9217705078125,0.0003424825263209641,0.19153694808483124,-0.01495125237852335
1780626042188766700,8.9317666015625,-0.010057427920401096,0.26652809977531433,0.07672407478094101
1780626042198761700,8.94176171875,-0.03332093730568886,0.3064403533935547,0.17655132710933685
1780626042208757800,8.9517578125,-0.07861864566802979,0.24551628530025482,0.2094978392124176
1780626042218752500,8.96175244140625,-0.13218547403812408,0.18917711079120636,0.17344795167446136
1780626042228747500,8.97174755859375,-0.1728663146495819,0.14518915116786957,0.10071942210197449
1780626042238743600,8.98174365234375,-0.15070481598377228,0.09208092093467712,0.05655115842819214
1780626042248738600,8.991738525390625,-0.10131889581680298,0.06553826481103897,0.027122963219881058
1780626042258734600,9.001734619140626,-0.06246071308851242,0.10564573854207993,0.009810552932322025
1780626042268729600,9.0117294921875,-0.05469014123082161,0.19847899675369263,0.019779030233621597
1780626042278724600,9.021724609375,-0.07226061820983887,0.22269858419895172,0.02990436926484108
1780626042288720600,9.031720703125,-0.09384340792894363,0.18996381759643555,0.07282653450965881
1780626042298715600,9.041715576171875,-0.11680597811937332,0.2477424293756485,0.11545442044734955
1780626042308711400,9.05171142578125,-0.15147820115089417,0.3073655366897583,0.13933312892913818
1780626042318706700,9.061706787109374,-0.19172602891921997,0.2644718587398529,0.15658801794052124
1780626042328701700,9.07170166015625,-0.21775390207767487,0.12650839984416962,0.14732927083969116
1780626042338697700,9.08169775390625,-0.21680714190006256,0.1150171309709549,0.12625594437122345
1780626042348692700,9.091692626953124,-0.20754200220108032,0.17379975318908691,0.09051524847745895
1780626042358688500,9.1016884765625,-0.16341130435466766,0.035947881639003754,0.043110717087984085
1780626042368683500,9.11168359375,-0.07958457618951797,-0.1776549518108368,0.03734284266829491
1780626042378678500,9.121678466796874,-0.027340278029441833,-0.17639634013175964,0.07547931373119354
1780626042388674800,9.1316748046875,-0.05239236727356911,-0.04270405322313309,0.11829335242509842
1780626042398669800,9.141669921875,-0.130903422832489,0.13307815790176392,0.1680625081062317
1780626042408664600,9.15166455078125,-0.2047126591205597,0.10956057906150818,0.17914658784866333
1780626042418660600,9.16166064453125,-0.20947785675525665,-0.04698348790407181,0.15059377253055573
1780626042428655600,9.171655517578126,-0.1523013859987259,-0.15400394797325134,0.08410076051950455
1780626042438651600,9.181651611328125,-0.11371564865112305,-0.2568355202674866,0.02792191132903099
1780626042448646700,9.191646728515625,-0.1270226687192917,-0.30977383255958557,0.0400179885327816
1780626042458641400,9.201641357421876,-0.13800287246704102,-0.36192598938941956,0.06533746421337128
1780626042468637700,9.2116376953125,-0.10333810746669769,-0.46353036165237427,0.02684652805328369
1780626042478632700,9.2216328125,-0.04801493138074875,-0.3982480466365814,-0.0020788635592907667
1780626042488628700,9.231628662109374,0.01865304633975029,-0.36873647570610046,-0.010220413096249104
1780626042498623500,9.24162353515625,0.08733996748924255,-0.3930372893810272,-0.00824035331606865
1780626042508618500,9.251618408203125,0.12753959000110626,-0.27031803131103516,0.04968792945146561
1780626042518614500,9.261614501953124,0.1380244493484497,-0.13395141065120697,0.1398194134235382
1780626042528609500,9.271609619140625,0.1427861750125885,0.04145822674036026,0.2558189928531647
1780626042538605600,9.28160546875,0.13361318409442902,0.2488716095685959,0.32244250178337097
1780626042548600600,9.2916005859375,0.10882847756147385,0.31641337275505066,0.35419324040412903
1780626042558595600,9.301595703125,0.11012836545705795,0.32484492659568787,0.38127145171165466
1780626042568591600,9.311591552734376,0.15421833097934723,0.2527206838130951,0.354606032371521
1780626042578586600,9.321586669921874,0.2229481339454651,0.14516331255435944,0.2704266905784607
1780626042588582400,9.33158251953125,0.287701278924942,0.10906044393777847,0.16707554459571838
1780626042598577700,9.34157763671875,0.3642221689224243,0.11991255730390549,0.08850749582052231
1780626042608572700,9.35157275390625,0.4372684061527252,0.164884552359581,0.041904572397470474
1780626042618568700,9.361568603515625,0.4792238473892212,0.36757534742355347,0.0977606475353241
1780626042628563700,9.371563720703126,0.47490206360816956,0.7031080722808838,0.2078232318162918
1780626042638559500,9.3815595703125,0.4604687988758087,0.9022358059883118,0.26947808265686035
1780626042648554500,9.391554443359375,0.4222460389137268,0.9267419576644897,0.23705968260765076
1780626042658549500,9.401549560546876,0.34408333897590637,0.7340002059936523,0.1637077033519745
1780626042668545800,9.4115458984375,0.2891359329223633,0.42263728380203247,0.14365889132022858
1780626042678540800,9.421540771484375,0.3316466510295868,0.26154398918151855,0.13045388460159302
1780626042688536600,9.43153662109375,0.4775679111480713,0.2349616438150406,0.14271853864192963
1780626042698531600,9.441531494140625,0.6320517659187317,0.25979188084602356,0.20499442517757416
1780626042708526600,9.451526611328125,0.749419629573822,0.29162731766700745,0.2786007225513458
1780626042718522600,9.461522705078124,0.8061343431472778,0.621054470539093,0.30980074405670166
1780626042728517600,9.471517578125,0.7380775213241577,0.787077784538269,0.2374194711446762
1780626042738512600,9.4815126953125,0.5916401147842407,0.49142804741859436,0.17643707990646362
1780626042748508700,9.4915087890625,0.4655919373035431,0.0916774570941925,0.09090780466794968
1780626042758503700,9.501503662109375,0.42144283652305603,-0.13590030372142792,-0.0052472264505922794
1780626042768499700,9.511499755859376,0.44490742683410645,-0.093536876142025,-0.06247509643435478
1780626042778494700,9.52149462890625,0.565229594707489,-0.037884797900915146,0.04176821932196617
1780626042788489500,9.531489501953125,0.7623863220214844,0.02971555106341839,0.30308130383491516
1780626042798485500,9.541485595703126,0.9326110482215881,0.19189566373825073,0.48559120297431946
1780626042808480800,9.551480712890625,1.0881567001342773,0.06768263876438141,0.4814886152744293
1780626042818476800,9.561476806640625,1.235838770866394,-0.26724740862846375,0.3182661235332489
1780626042828471600,9.571471435546876,1.3263535499572754,-0.5439165830612183,0.15061107277870178
1780626042838466600,9.581466552734375,1.2266738414764404,-0.519069254398346,0.12620240449905396
1780626042848462600,9.591462646484375,0.9389176964759827,-0.17265646159648895,0.17153926193714142
1780626042858457600,9.60145751953125,0.6324152946472168,0.14122183620929718,0.22450260818004608
1780626042868453600,9.61145361328125,0.3654150068759918,0.2103268802165985,0.31193897128105164
1780626042878448600,9.62144873046875,0.14572924375534058,0.11480541527271271,0.29502418637275696
1780626042888443600,9.631443603515624,-0.09972206503152847,0.22866247594356537,0.11817564070224762
1780626042898439700,9.641439697265625,-0.3092081844806671,0.5840439796447754,-0.05438707396388054
1780626042908434700,9.6514345703125,-0.4096812605857849,0.9568101167678833,-0.30693623423576355
1780626042918430500,9.661430419921874,-0.4574860632419586,1.101938247680664,-0.8706446290016174
1780626042928425500,9.671425537109375,-0.49783188104629517,1.0031403303146362,-1.6836339235305786
1780626042938420500,9.68142041015625,-0.5349971055984497,0.8024503588676453,-2.3446431159973145
1780626042948416800,9.691416748046874,-0.5765104293823242,0.6803622841835022,-2.5607292652130127
1780626042958411800,9.701411865234375,-0.6352752447128296,0.7173618674278259,-2.4210681915283203
1780626042968407600,9.711407470703126,-0.7238003015518188,0.9043197631835938,-2.13311767578125
1780626042978402600,9.721402587890625,-0.8569588661193848,1.2378425598144531,-1.8798021078109741
1780626042988397600,9.7313974609375,-1.0397753715515137,1.6718816757202148,-1.792015552520752
1780626042998393600,9.7413935546875,-1.2256284952163696,2.0112061500549316,-1.8301341533660889
1780626043008388600,9.751388671875,-1.3774467706680298,2.17769455909729,-1.9272377490997314
1780626043018384600,9.761384521484375,-1.4686782360076904,2.171156644821167,-2.00040602684021
1780626043028379600,9.771379638671876,-1.5111665725708008,2.11249041557312,-1.9537529945373535
1780626043038374700,9.781374755859375,-1.5500234365463257,2.1195476055145264,-1.7798384428024292
1780626043048370700,9.79137060546875,-1.6452484130859375,2.381030321121216,-1.6207183599472046
1780626043058365700,9.80136572265625,-1.7870337963104248,2.5632431507110596,-1.483206868171692
1780626043068360400,9.8113603515625,-1.959970474243164,2.4063751697540283,-1.2916533946990967
1780626043078356700,9.821356689453125,-2.1490886211395264,2.210881233215332,-1.084465503692627
1780626043088351700,9.831351806640624,-2.3335390090942383,2.1945137977600098,-0.9722630977630615
1780626043098347800,9.84134765625,-2.4761853218078613,2.253368854522705,-0.9512203931808472
1780626043108342500,9.851342529296875,-2.5762388706207275,2.3599979877471924,-1.0608446598052979
1780626043118337500,9.861337646484374,-2.61261248588562,2.6201846599578857,-1.3088326454162598
1780626043128333600,9.87133349609375,-2.5961577892303467,2.565682888031006,-1.5255039930343628
1780626043138328600,9.88132861328125,-2.568233013153076,2.2271385192871094,-1.43778657913208
1780626043148324600,9.89132470703125,-2.655254602432251,2.1159205436706543,-0.9704156517982483
1780626043158319600,9.901319580078125,-2.926328182220459,2.2380285263061523,-0.3690512776374817
1780626043168314600,9.911314697265626,-3.2473325729370117,2.2642648220062256,0.04740133881568909
1780626043178310700,9.921310546875,-3.4958763122558594,2.16054105758667,0.15118499100208282
1780626043188305700,9.9313056640625,-3.6176915168762207,1.722834587097168,0.011344533413648605
1780626043198301400,9.941301513671876,-3.628528118133545,0.9931321740150452,-0.09683413803577423
1780626043208296400,9.95129638671875,-3.6280641555786133,0.36165621876716614,-0.0886790007352829
1780626043218291500,9.96129150390625,-3.5832676887512207,-0.005423527676612139,-0.0852922573685646
1780626043228287700,9.971287841796874,-3.467235803604126,-0.16020192205905914,-0.31684958934783936
1780626043238282800,9.98128271484375,-3.2029292583465576,-0.3244459927082062,-0.6862193942070007
1780626043248278500,9.991278564453125,-2.839416265487671,-0.5494647026062012,-0.9530161619186401
1780626043258273500,10.0012734375,-2.6466078758239746,-0.6879997253417969,-1.0752475261688232
1780626043268268500,10.0112685546875,-2.6915812492370605,-0.6827567219734192,-1.0539214611053467
1780626043278264600,10.0212646484375,-2.793210744857788,-0.5547233819961548,-0.9054156541824341
1780626043288259800,10.031259765625,-2.8248913288116455,-0.30724382400512695,-0.803955078125
1780626043298254800,10.0412548828125,-2.7660231590270996,-0.07794486731290817,-0.8076246380805969
1780626043308250600,10.051250732421876,-2.5789599418640137,0.10741753876209259,-0.9152003526687622
1780626043318245600,10.06124560546875,-2.261336326599121,0.295918732881546,-1.0703026056289673
1780626043328241700,10.07124169921875,-2.047684669494629,0.5229809284210205,-1.2303316593170166
1780626043338236700,10.081236572265626,-2.027254104614258,0.7104059457778931,-1.3953871726989746
1780626043348231700,10.091231689453124,-1.987335205078125,0.6944836974143982,-1.456527829170227
1780626043358227700,10.101227783203125,-1.915832757949829,0.5578067898750305,-1.379447102546692
1780626043368222700,10.11122265625,-1.931742548942566,0.5749714374542236,-1.3885931968688965
1780626043378218800,10.12121875,-1.9271142482757568,0.6250468492507935,-1.568529725074768
1780626043388213800,10.1312138671875,-1.8084959983825684,0.4344502389431,-1.6785690784454346
1780626043398208500,10.14120849609375,-1.6407802104949951,0.37162309885025024,-1.6998370885849
1780626043408204500,10.15120458984375,-1.506174921989441,0.5435146689414978,-1.6712191104888916
1780626043418199600,10.161199462890625,-1.451743721961975,0.642949640750885,-1.550538420677185
1780626043428195800,10.17119580078125,-1.4390718936920166,0.7273862361907959,-1.4251469373703003
1780626043438190600,10.181190673828125,-1.4618282318115234,0.7807093858718872,-1.3210128545761108
1780626043448185600,10.191185546875,-1.4474762678146362,0.7520884275436401,-1.241721510887146
1780626043458181400,10.201181396484374,-1.3850972652435303,0.663563072681427,-1.1419490575790405
1780626043468176400,10.21117626953125,-1.3107879161834717,0.5390610694885254,-1.0879324674606323
1780626043478171400,10.22117138671875,-1.210646152496338,0.38680949807167053,-1.1424598693847656
1780626043488167400,10.23116748046875,-1.1320821046829224,0.32728278636932373,-1.241363525390625
1780626043498162400,10.241162353515625,-1.0871851444244385,0.2999739348888397,-1.3075740337371826
1780626043508158500,10.251158447265626,-1.0734474658966064,0.3023345470428467,-1.3070597648620605
1780626043518153500,10.261153564453124,-1.0493744611740112,0.44773009419441223,-1.2998833656311035
1780626043528148500,10.2711484375,-1.0218391418457031,0.5427466630935669,-1.2911289930343628
1780626043538144300,10.281144287109376,-1.0266664028167725,0.581744909286499,-1.3214136362075806
1780626043548139300,10.29113916015625,-0.9778240323066711,0.3406292200088501,-1.3606319427490234
1780626043558135600,10.301135498046875,-0.8363960981369019,0.19906729459762573,-1.3985744714736938
1780626043568130600,10.311130615234376,-0.6658011674880981,0.250454306602478,-1.5164164304733276
1780626043578125600,10.32112548828125,-0.5737029314041138,0.16036491096019745,-1.6868501901626587
1780626043588121300,10.331121337890625,-0.6168954372406006,-0.04655152186751366,-1.7480864524841309
1780626043598116400,10.341116455078126,-0.6785297393798828,-0.17831994593143463,-1.6336019039154053
1780626043608112400,10.3511123046875,-0.651610791683197,-0.15492673218250275,-1.431501030921936
1780626043618107400,10.361107421875,-0.5458031296730042,-0.10699515789747238,-1.2183085680007935
1780626043628102700,10.3711025390625,-0.39636731147766113,-0.15577548742294312,-0.99007248878479
1780626043638098400,10.381098388671875,-0.2569604218006134,-0.12279915809631348,-0.7755897641181946
1780626043648093400,10.391093505859375,-0.13890674710273743,-0.15715312957763672,-0.6019191145896912
1780626043658088400,10.40108837890625,-0.13300545513629913,-0.2367212027311325,-0.45838621258735657
1780626043668084500,10.41108447265625,-0.19181470572948456,-0.4136914312839508,-0.3134703040122986
1780626043678079500,10.42107958984375,-0.2557992935180664,-0.5806751251220703,-0.1838665008544922
1780626043688075500,10.431075439453124,-0.23749618232250214,-0.7555693984031677,-0.044309407472610474
1780626043698070500,10.441070556640625,-0.13267415761947632,-0.8680419325828552,0.15927141904830933
1780626043708065500,10.4510654296875,-0.012349876575171947,-0.7271265983581543,0.38848623633384705
1780626043718061600,10.4610615234375,0.11097179353237152,-0.45983123779296875,0.5935069918632507
1780626043728056300,10.471056396484375,0.2025054395198822,-0.2634737193584442,0.7572051286697388
1780626043738052400,10.48105224609375,0.20653346180915833,-0.23369237780570984,0.8644213080406189
1780626043748047400,10.49104736328125,0.1518326699733734,-0.28550204634666443,0.8678964972496033
1780626043758042400,10.50104248046875,0.10086056590080261,-0.4012020230293274,0.8140934705734253
1780626043768038400,10.511038330078126,0.08021094650030136,-0.5810838937759399,0.6937398910522461
1780626043778033400,10.521033447265625,0.0692504420876503,-0.7421095371246338,0.5513830184936523
1780626043788029400,10.531029541015625,0.08900390565395355,-0.8642958998680115,0.44889336824417114
1780626043798024400,10.5410244140625,0.20304712653160095,-0.894137442111969,0.4196910262107849
1780626043808019500,10.55101953125,0.3779800534248352,-0.8455685377120972,0.4891420006752014
1780626043818015200,10.56101513671875,0.5551918745040894,-0.7390884757041931,0.5801752209663391
1780626043828010200,10.57101025390625,0.7799304127693176,-0.3686651289463043,0.608948826789856
1780626043838005500,10.581005615234375,1.014816403388977,0.10534346848726273,0.4890117645263672
1780626043848001500,10.59100146484375,1.1705429553985596,0.44668933749198914,0.12276133894920349
1780626043857996500,10.60099658203125,1.2526867389678955,0.5721058249473572,-0.22046633064746857
1780626043867992300,10.610992431640625,1.2368515729904175,0.6749006509780884,-0.41117796301841736
1780626043877987300,10.6209873046875,1.113978385925293,0.7653639912605286,-0.6328213810920715
1780626043887982300,10.630982421875,0.9503322243690491,0.7681674957275391,-0.8892862200737
1780626043897978400,10.640978271484375,0.7728189826011658,0.7932084202766418,-1.0995912551879883
1780626043907973600,10.6509736328125,0.6110572218894958,0.7966545224189758,-1.232988953590393
1780626043917969400,10.660969482421875,0.4967442452907562,0.6705474853515625,-1.3249967098236084
1780626043927964400,10.67096435546875,0.39066123962402344,0.6335633397102356,-1.420082926750183
1780626043937959400,10.68095947265625,0.25702008605003357,0.729464054107666,-1.488818645477295
1780626043947955500,10.69095556640625,0.1321479231119156,0.8094270825386047,-1.4839125871658325
1780626043957950500,10.700950439453125,0.08099924772977829,0.7663746476173401,-1.4107613563537598
1780626043967945200,10.7109453125,0.1197114884853363,0.7358822822570801,-1.337216854095459
1780626043977941500,10.72094140625,0.22192732989788055,0.7556655406951904,-1.2819280624389648
1780626043987936500,10.7309365234375,0.34316322207450867,0.8549324870109558,-1.2321265935897827
1780626043997932500,10.7409326171875,0.45999637246131897,1.0177592039108276,-1.1419405937194824
1780626044007927300,10.75092724609375,0.552308201789856,1.2243191003799438,-1.0048282146453857
1780626044017922300,10.76092236328125,0.645409107208252,1.3827686309814453,-0.8649113774299622
1780626044027918300,10.77091845703125,0.7038436532020569,1.449144959449768,-0.7546564936637878
1780626044037913300,10.780913330078125,0.6850241422653198,1.4753097295761108,-0.7570136785507202
1780626044047909400,10.790909423828126,0.5772071480751038,1.3634204864501953,-0.8808833956718445
1780626044057904400,10.800904296875,0.4890000522136688,1.1472437381744385,-0.9901241660118103
1780626044067899400,10.8108994140625,0.4867534041404724,1.060892105102539,-0.9867198467254639
1780626044077895400,10.8208955078125,0.5573322176933289,1.0964065790176392,-0.8921086192131042
1780626044087890400,10.830890380859374,0.6293686032295227,1.0849661827087402,-0.817190945148468
1780626044097885400,10.840885498046875,0.6545352339744568,1.050660490989685,-0.776901364326477
1780626044107881200,10.850881103515626,0.6805636286735535,1.0348889827728271,-0.7064769864082336
1780626044117876500,10.86087646484375,0.7241406440734863,1.0017352104187012,-0.6211870908737183
1780626044127872500,10.87087255859375,0.7649006247520447,0.8988277912139893,-0.5588821768760681
1780626044137867500,10.880867431640626,0.7709201574325562,0.7445673942565918,-0.5110126733779907
1780626044147862500,10.890862548828125,0.778783917427063,0.6659711003303528,-0.461899995803833
1780626044157858300,10.9008583984375,0.8102563619613647,0.5874046683311462,-0.37144890427589417
1780626044167853300,10.910853271484376,0.8637153506278992,0.5033726096153259,-0.2872621417045593
1780626044177849600,10.920849609375,0.9161532521247864,0.43818721175193787,-0.2775575816631317
1780626044187844600,10.9308447265625,0.9122802019119263,0.39173075556755066,-0.30482780933380127
1780626044197839600,10.940839599609374,0.9024973511695862,0.3316114842891693,-0.30312579870224
1780626044207835400,10.95083544921875,0.9249770641326904,0.28589195013046265,-0.21951131522655487
1780626044217830400,10.960830322265625,0.907597541809082,0.23459306359291077,-0.08908060938119888
1780626044227825400,10.970825439453124,0.7735934257507324,0.19422593712806702,0.05404992029070854
1780626044237821400,10.980821533203125,0.5907370448112488,0.17884404957294464,0.19675806164741516
1780626044247816400,10.99081640625,0.443149209022522,0.08333829790353775,0.3456684648990631
1780626044257812500,11.0008125,0.36551299691200256,-0.020807543769478798,0.4209698736667633
1780626044267807500,11.010807373046875,0.2775048315525055,0.09420852363109589,0.3148985505104065
1780626044277802500,11.020802490234376,0.15802878141403198,0.46682125329971313,0.09500560909509659
1780626044287798500,11.030798583984375,0.055935703217983246,0.6722587943077087,-0.05212631821632385
1780626044297793300,11.040793212890625,-0.04613340646028519,0.4660678207874298,-0.08905397355556488
1780626044307789300,11.050789306640626,-0.15318316221237183,0.28360506892204285,-0.10826309025287628
1780626044317784300,11.060784423828125,-0.24147041141986847,0.2803506851196289,-0.12871190905570984
1780626044327779600,11.070779541015625,-0.2795666754245758,0.28850555419921875,-0.11666536331176758
1780626044337775400,11.080775390625,-0.33840706944465637,0.22215929627418518,-0.10966844111680984
1780626044347770400,11.090770263671875,-0.3967137932777405,0.16418202221393585,-0.1574133187532425
1780626044357765400,11.100765380859375,-0.41911524534225464,0.225047767162323,-0.21742074191570282
1780626044367761400,11.110761474609374,-0.4780217111110687,0.30132415890693665,-0.19855836033821106
1780626044377756400,11.12075634765625,-0.5352104306221008,0.27680763602256775,-0.11661955714225769
1780626044387752400,11.13075244140625,-0.5061582326889038,0.2015424370765686,-0.06598913669586182
1780626044397747500,11.14074755859375,-0.4238945543766022,0.13557326793670654,-0.059845756739377975
1780626044407742500,11.150742431640625,-0.403812438249588,0.08599160611629486,-0.06529644876718521
1780626044417738500,11.160738525390625,-0.42782163619995117,0.08193694055080414,-0.11751251667737961
1780626044427733500,11.1707333984375,-0.47515109181404114,0.09831298887729645,-0.2068045735359192
1780626044437729300,11.180729248046875,-0.5235337615013123,0.08161523193120956,-0.2329954355955124
1780626044447724300,11.190724365234376,-0.5831838250160217,0.005549761466681957,-0.21355782449245453
1780626044457719300,11.20071923828125,-0.5858035683631897,-0.10644388198852539,-0.18634644150733948
1780626044467715300,11.21071533203125,-0.5403079986572266,-0.20381997525691986,-0.1569747030735016
1780626044477710300,11.22071044921875,-0.5362352132797241,-0.16574236750602722,-0.1536577343940735
1780626044487705300,11.230705322265624,-0.5610742568969727,-0.07670356333255768,-0.20169156789779663
1780626044497701000,11.240701171875,-0.6126301288604736,-0.04261217638850212,-0.2939157783985138
1780626044507696000,11.250696044921876,-0.6632269620895386,-0.08777911961078644,-0.35973232984542847
1780626044517692400,11.2606923828125,-0.693824291229248,-0.2719641327857971,-0.36163249611854553
1780626044527687400,11.2706875,-0.6748625636100769,-0.4983072578907013,-0.37418079376220703
1780626044537682200,11.28068212890625,-0.6557778716087341,-0.6196906566619873,-0.4327476918697357
1780626044547678200,11.29067822265625,-0.6717544198036194,-0.5831851363182068,-0.485402375459671
1780626044557673200,11.300673095703125,-0.6847003102302551,-0.5116925835609436,-0.4601324498653412
1780626044567668200,11.310668212890626,-0.6848976612091064,-0.4825117886066437,-0.38906732201576233
1780626044577664300,11.320664306640625,-0.6784796714782715,-0.4640883207321167,-0.32508063316345215
1780626044587659300,11.3306591796875,-0.6455805897712708,-0.55007004737854,-0.28102368116378784
1780626044597655300,11.3406552734375,-0.58287513256073,-0.7076277136802673,-0.2816939949989319
1780626044607650300,11.350650390625,-0.5237862467765808,-0.7665570974349976,-0.3722582459449768
1780626044617645300,11.360645263671875,-0.4737747609615326,-0.760847806930542,-0.47674551606178284
1780626044627641000,11.37064111328125,-0.4569920599460602,-0.7439900040626526,-0.4962182939052582
1780626044637636000,11.380635986328125,-0.5000761151313782,-0.7024662494659424,-0.42426472902297974
1780626044647632400,11.39063232421875,-0.5654375553131104,-0.6045495271682739,-0.3466666042804718
1780626044657627400,11.40062744140625,-0.6096332669258118,-0.5017834901809692,-0.32311227917671204
1780626044667622400,11.410622314453125,-0.5997409224510193,-0.4923495054244995,-0.3200110197067261
1780626044677618200,11.4206181640625,-0.5745013952255249,-0.5327808260917664,-0.3358381986618042
1780626044687613200,11.43061328125,-0.5804135799407959,-0.6057665944099426,-0.3525702953338623
1780626044697608200,11.440608154296875,-0.6317686438560486,-0.6692254543304443,-0.3589365780353546
1780626044707604200,11.450604248046876,-0.7124747037887573,-0.7328747510910034,-0.34776967763900757
1780626044717599200,11.46059912109375,-0.795288622379303,-0.7305202484130859,-0.3023976683616638
1780626044727595300,11.47059521484375,-0.880548357963562,-0.6498799920082092,-0.19810935854911804
1780626044737590300,11.48059033203125,-0.9432682394981384,-0.5169110298156738,-0.058154381811618805
1780626044747585300,11.490585205078125,-0.9598298668861389,-0.41103440523147583,0.06529724597930908
1780626044757581300,11.500581298828125,-0.9302365779876709,-0.34180182218551636,0.14131425321102142
1780626044767576300,11.510576416015626,-0.8516112565994263,-0.30849260091781616,0.15350966155529022
1780626044777571300,11.5205712890625,-0.7484833002090454,-0.3086180090904236,0.1169242188334465
1780626044787567400,11.5305673828125,-0.6524792313575745,-0.4325479567050934,0.0619797483086586
1780626044797562400,11.540562255859374,-0.5503912568092346,-0.6949700117111206,-0.004739627707749605
1780626044807558400,11.550558349609375,-0.46001100540161133,-0.9898818135261536,-0.10922183096408844
1780626044817553400,11.560553466796875,-0.44604939222335815,-1.1851940155029297,-0.18706709146499634
1780626044827548200,11.570548095703124,-0.549393892288208,-1.2115446329116821,-0.19459424912929535
1780626044837544200,11.580544189453125,-0.7075278759002686,-1.0492963790893555,-0.12856969237327576
1780626044847539200,11.590539306640625,-0.824433445930481,-0.6976970434188843,-0.010311493650078773
1780626044857535500,11.600535400390624,-0.8959867358207703,-0.3553839325904846,0.08435776084661484
1780626044867530200,11.6105302734375,-0.9281206727027893,-0.16604755818843842,0.10821542143821716
1780626044877525200,11.620525146484376,-0.9191256165504456,-0.1590770035982132,0.04470968246459961
1780626044887521300,11.630521240234375,-0.8642202615737915,-0.28073498606681824,-0.08775781840085983
1780626044897516300,11.640516357421875,-0.7915931940078735,-0.44551169872283936,-0.2253180742263794
1780626044907511300,11.65051123046875,-0.7047813534736633,-0.6246705055236816,-0.2955717444419861
1780626044917507000,11.660507080078125,-0.636889636516571,-0.7593007683753967,-0.30903640389442444
1780626044927502000,11.670502197265625,-0.6079509258270264,-0.7716772556304932,-0.31595903635025024
1780626044937498400,11.680498291015626,-0.6175566911697388,-0.6268159747123718,-0.31302395462989807
1780626044947493400,11.690493408203125,-0.6409472227096558,-0.4222990572452545,-0.26294589042663574
1780626044957488400,11.70048828125,-0.6575954556465149,-0.2523307800292969,-0.18909722566604614
1780626044967484200,11.710484130859374,-0.6571187376976013,-0.16567204892635345,-0.11606188863515854
1780626044977479200,11.720479248046875,-0.638306736946106,-0.16803693771362305,-0.04857286065816879
1780626044987474200,11.73047412109375,-0.6290298700332642,-0.26567214727401733,0.002122006844729185
1780626044997470200,11.74047021484375,-0.6578010320663452,-0.36835697293281555,0.030358171090483665
1780626045007465500,11.750465576171875,-0.7260006070137024,-0.38366085290908813,0.05367973819375038
1780626045017461200,11.760461181640625,-0.8240193128585815,-0.31528472900390625,0.09276722371578217
1780626045027456300,11.770456298828124,-0.9271488785743713,-0.20718327164649963,0.16637566685676575
1780626045037451300,11.780451171875,-1.037218451499939,-0.005401156842708588,0.2642790675163269
1780626045047447300,11.790447265625,-1.1209758520126343,0.21840929985046387,0.36115047335624695
1780626045057442300,11.8004423828125,-1.2032992839813232,0.3752383291721344,0.474791020154953
1780626045067437000,11.81043701171875,-1.3181928396224976,0.5175174474716187,0.642942488193512
1780626045077433300,11.820433349609376,-1.4836654663085938,0.6488272547721863,0.8618956208229065
1780626045087428400,11.830428466796874,-1.7526766061782837,0.9776453375816345,1.186278223991394
1780626045097424400,11.84042431640625,-1.9496972560882568,1.036848783493042,1.3641773462295532
1780626045107419100,11.850419189453126,-1.9426971673965454,0.7860682010650635,1.2525898218154907
1780626045117414100,11.8604140625,-1.7300418615341187,0.41182032227516174,0.9771633148193359
1780626045127410200,11.87041015625,-1.543805480003357,0.16906411945819855,0.7661618590354919
1780626045137405200,11.8804052734375,-1.4551680088043213,0.06980171799659729,0.6717110276222229
1780626045147401200,11.890401123046875,-1.4002299308776855,-0.04814036563038826,0.6482304334640503
1780626045157396200,11.900396240234375,-1.3337703943252563,-0.22604218125343323,0.6350477933883667
1780626045167391200,11.91039111328125,-1.2916600704193115,-0.32419830560684204,0.606185257434845
1780626045177387300,11.92038720703125,-1.2778855562210083,-0.2426200956106186,0.5509529113769531
1780626045187382300,11.93038232421875,-1.2567055225372314,-0.03224369138479233,0.4664550721645355
1780626045197377300,11.940377197265626,-1.1995368003845215,0.130304217338562,0.43517065048217773
1780626045207373000,11.950373046875,-1.1342270374298096,0.10443346202373505,0.48896703124046326
1780626045217368300,11.960368408203125,-1.102604627609253,0.027148529887199402,0.5476247668266296
1780626045227364400,11.9703642578125,-1.1084667444229126,0.05656048282980919,0.5601674318313599
1780626045237359400,11.980359375,-1.1208927631378174,0.13961967825889587,0.5438984632492065
1780626045247354400,11.990354248046875,-1.0992852449417114,0.1832909882068634,0.5198615789413452
1780626045257350100,12.00035009765625,-1.0579655170440674,0.12990553677082062,0.5154340267181396
1780626045267345200,12.01034521484375,-1.0079233646392822,0.01312352530658245,0.5399771928787231
1780626045277340200,12.020340087890625,-0.9422908425331116,-0.09552891552448273,0.5704451203346252
1780626045287336400,12.03033642578125,-0.8817084431648254,-0.1441933959722519,0.571430504322052
1780626045297331500,12.04033154296875,-0.8053665161132812,-0.12359277904033661,0.5320822596549988
1780626045307327200,12.0503271484375,-0.7091577053070068,-0.08896209299564362,0.4575299918651581
1780626045317322200,12.060322265625,-0.6039657592773438,-0.08003038913011551,0.37402740120887756
1780626045327317200,12.070317138671875,-0.5037036538124084,-0.11951760947704315,0.31004947423934937
1780626045337313300,12.080313232421876,-0.424621045589447,-0.12959687411785126,0.2833379805088043
1780626045347308000,12.09030810546875,-0.3798922002315521,-0.05775997042655945,0.2592070698738098
1780626045357303000,12.100302978515625,-0.34848448634147644,0.06453505158424377,0.22530636191368103
1780626045367299300,12.11029931640625,-0.3183113932609558,0.196580171585083,0.19354335963726044
1780626045377294300,12.12029443359375,-0.2985347509384155,0.25884541869163513,0.17263728380203247
1780626045387290000,12.1302900390625,-0.2775258719921112,0.2281455546617508,0.15730680525302887
1780626045397285000,12.14028515625,-0.25374093651771545,0.1508270651102066,0.13165682554244995
1780626045407280000,12.150280029296875,-0.23740962147712708,0.05236174166202545,0.1138695776462555
1780626045417276200,12.160276123046875,-0.2508476674556732,-0.012025503441691399,0.08942148834466934
1780626045427271400,12.170271484375,-0.31529057025909424,-0.012238556519150734,0.03801902011036873
1780626045437266400,12.180266357421875,-0.4116751551628113,0.027116572484374046,-0.002828276949003339
1780626045447262200,12.19026220703125,-0.5119005441665649,0.01949806697666645,-0.003090864745900035
1780626045457257200,12.20025732421875,-0.5738579630851746,-0.034687940031290054,0.04212374985218048
1780626045467253500,12.21025341796875,-0.5976887345314026,-0.09095467627048492,0.10243342816829681
1780626045477248500,12.22024853515625,-0.5907253623008728,-0.09973618388175964,0.15063798427581787
1780626045487243500,12.230243408203124,-0.5492042899131775,-0.06555690616369247,0.2013046145439148
1780626045497239300,12.2402392578125,-0.4558735191822052,-0.1018105149269104,0.29083874821662903
1780626045507234300,12.250234375,-0.3687117099761963,-0.21900585293769836,0.36834606528282166
1780626045517229300,12.260229248046874,-0.3631846010684967,-0.2824186384677887,0.3211689591407776
1780626045527225600,12.2702255859375,-0.40385985374450684,-0.24994485080242157,0.1710156798362732
1780626045537220400,12.280220458984376,-0.4180164337158203,-0.2636297643184662,0.10415755957365036
1780626045547216400,12.29021630859375,-0.34091097116470337,-0.4998263418674469,0.23879659175872803
1780626045557211400,12.30021142578125,-0.20265111327171326,-0.8688288927078247,0.4966382682323456
1780626045567206400,12.310206298828126,-0.11783236265182495,-0.9926256537437439,0.6757289171218872
1780626045577202400,12.320202392578125,-0.14837509393692017,-0.7791147232055664,0.6991234421730042
1780626045587197200,12.330197265625,-0.26909539103507996,-0.4285665452480316,0.6016512513160706
1780626045597193500,12.340193359375,-0.4018954932689667,-0.19157849252223969,0.45441144704818726
1780626045607188500,12.3501884765625,-0.4663943350315094,-0.2375129610300064,0.3512629568576813
1780626045617183500,12.36018359375,-0.41733065247535706,-0.5333235859870911,0.3565234839916229
1780626045627179300,12.37017919921875,-0.26715314388275146,-0.8856448531150818,0.3614623248577118
1780626045637174300,12.38017431640625,-0.05367867276072502,-1.0868206024169922,0.30960577726364136
1780626045647169300,12.390169189453125,0.18081718683242798,-1.063590407371521,0.3324495851993561
1780626045657165300,12.400165283203124,0.3629467785358429,-0.8025009632110596,0.4738679528236389
1780626045667160300,12.410160400390625,0.4510718286037445,-0.4029597043991089,0.6776402592658997
1780626045677155600,12.420155517578126,0.4717704653739929,-0.008566856384277344,0.8724566102027893
1780626045687151400,12.4301513671875,0.4673925042152405,0.2825872302055359,0.9972595572471619
