time,seconds_elapsed,z,y,x
1780625218814093800,0.05809375,0.9942816712290048,-0.4513236718133092,-1.387999980161339
1780625218824124000,0.0681240234375,0.3715817343175411,-0.21801146728396414,-1.2450101438529788
1780625218834152700,0.078152587890625,-0.1840022301763296,-0.006458382359147072,-1.2722026866830884
1780625218844181800,0.088181640625,-0.3660422203689813,0.17896628183573485,-1.3340477329604328
1780625218854210800,0.0982109375,-0.11716916635334491,0.08699994580000639,-1.3275272451505065
1780625218864241000,0.108240966796875,0.3738379888117313,-0.14122487246245144,-1.2526460455588995
1780625218874269700,0.118269775390625,0.9666758714228868,-0.4289823684066534,-1.0507869639135896
1780625218884298800,0.128298828125,0.9903180282950401,-0.46649873685240745,-1.102062393120676
1780625218894328800,0.138328857421875,2.1957991487056017,-1.0891942898496985,-0.7819808366768062
1780625218904357600,0.148357666015625,2.7452690142333505,-1.4133900036141276,-0.47400341339409346
1780625218914386700,0.15838671875,2.9493308666199445,-1.4688754517316818,-0.13986922006979585
1780625218924415700,0.168415771484375,2.217512383341789,-0.47000119201540946,-0.39934652407765386
1780625218934445800,0.17844580078125,0.21198621564507483,0.4945768303453922,-0.48305385807305573
1780625218944474600,0.188474609375,-0.6324743119508027,0.6796595492348074,-0.07378828978836537
1780625218954503700,0.198503662109375,0.09756254860758781,0.5226408953130245,-0.04442614783421159
1780625218964533800,0.20853369140625,0.7203133389234543,0.07514379605054855,0.03531476674824953
1780625218974562800,0.218562744140625,1.314333124795556,-0.38810704492181536,0.18924670670107005
1780625218984591600,0.228591552734375,2.092954275780916,-0.945807855439186,0.3757112353377044
1780625218994621000,0.238620849609375,2.1090543467104435,-0.9513830252230167,0.295482244977355
1780625219004650800,0.248650634765625,2.976955955648422,-1.4022563229203224,0.40203210989981886
1780625219014679600,0.258679443359375,2.3210084136515854,-1.5514602114379406,0.8334054650962353
1780625219024708900,0.268708984375,2.3262492369145154,-1.5658224987894296,0.8278580601021647
1780625219034738000,0.278738037109375,0.6667202804237604,-1.4751251597762107,0.598696837772429
1780625219044767700,0.288767822265625,0.6673059713572264,-1.4906313564658165,0.6230787070959806
1780625219054796800,0.298796875,-1.658532931190729,-0.27328794882595536,-0.1215726620092988
1780625219064825900,0.308825927734375,-2.1540748071759936,0.35613135946840047,-0.40083647037446496
1780625219074855700,0.318855712890625,-2.1211118642508984,0.7140987021923064,-0.4238314153842628
1780625219084885000,0.328885009765625,-2.10436063593626,0.7055474392071366,-0.5163423796907067
1780625219094913800,0.338913818359375,-0.7994809836626052,0.4973775669798255,0.06766790721192956
1780625219104942800,0.34894287109375,-0.21704934425354003,0.24640227998793124,0.3285978942461312
1780625219114973000,0.358972900390625,0.022768296647071837,-0.11476765816956758,0.43716421355754137
1780625219125001700,0.369001708984375,-0.1900584614753723,-0.44800008034855127,0.4406648420896381
1780625219135030800,0.37903076171875,-0.9156272367089986,-0.7300441670820117,0.24272519891038535
1780625219145060900,0.389060791015625,-2.05191674747169,-0.9123270261198282,0.07118650979213416
1780625219155090000,0.39908984375,-3.37306890463233,-0.6542822391331196,-0.19514687065556643
1780625219165118700,0.40911865234375,-3.944834188598394,-0.17359131079912185,-0.4835196489538997
1780625219175147800,0.419147705078125,-3.724501000368595,0.4517524186193943,-0.9297871333561837
1780625219185177900,0.429177734375,-3.7161283088207244,0.931303821529448,-1.3925025522775947
1780625219195207000,0.43920703125,-3.3880338340520857,0.8575245918303728,-1.5169310421094298
1780625219205235700,0.449235595703125,-2.802587230736017,0.3677481475040316,-1.3744301583617924
1780625219215265800,0.459265869140625,-1.8337147260516882,0.5565317667379975,-1.4147723978832363
1780625219225294800,0.469294921875,-1.38691145427227,0.5582891317993403,-1.1933275951497255
1780625219235323600,0.47932373046875,-1.3934732970058916,0.5845891097038984,-1.2086100660860537
1780625219245352700,0.489352783203125,-0.9413695807307958,0.49450902580618855,-0.7528190396003425
1780625219255382800,0.4993828125,-0.9061866236686706,0.3980681747049093,-0.1678217874869704
1780625219265411800,0.509411865234375,-0.4673404483735561,0.36912323524951934,0.6552572216451168
1780625219275440600,0.519440673828125,-0.5228045614421367,0.7258373630419374,0.4420321118548512
1780625219285469700,0.5294697265625,-0.5281681343019008,0.7275944358423352,0.47511035172268745
1780625219295499800,0.539499755859375,-1.1169862598776816,1.0982327518299222,-0.8053859699226915
1780625219305528800,0.54952880859375,-1.0030781411468983,0.6220975871041416,-1.0286353378601372
1780625219315557600,0.5595576171875,-0.7233791562348604,-0.23474077602773905,-0.7980757930397987
1780625219325589000,0.569589111328125,-0.3362514777392149,-0.2453893035531044,-0.311141732532531
1780625219335618000,0.5796181640625,-0.11191139195561409,0.4141103779673576,-0.05738923591226339
1780625219345646800,0.589646728515625,-0.12464403227865695,0.4556289677917957,-0.07319368489608168
1780625219355676000,0.599676025390625,0.7926122669368982,1.3759233195289968,0.1439404150314629
1780625219365706000,0.6097060546875,1.7198182977586984,1.5023448828741908,0.23660262437686322
1780625219375735000,0.619735107421875,2.420952888959646,1.3022376133322715,0.2391448562055826
1780625219385763800,0.629763916015625,2.4283126040726897,1.2981065048769116,0.20083982160016894
1780625219395794000,0.6397939453125,2.987306669270992,0.02042407160848379,0.49511649018004533
1780625219405823000,0.649822998046875,2.275330950582027,-0.252963830460608,0.5391308423429727
1780625219415851800,0.659851806640625,1.7646657397449015,-0.0914347133770585,0.622280688586086
1780625219425880800,0.669880859375,1.0912222885459661,0.039871114878356456,0.9509078089267015
1780625219435911000,0.679910888671875,1.095606787240505,0.018696809424459934,0.9734513569071889
1780625219445940000,0.68993994140625,0.6888795052617788,0.826645177181065,0.8242422076925635
1780625219455968800,0.69996875,0.16899930683374403,1.1561822519734501,0.44171749294772744
1780625219465998800,0.709998779296875,0.16831074004769325,1.1351648906469345,0.49289559926018117
1780625219476028000,0.72002783203125,-0.026755904978513715,1.1663631619870662,-0.875444863924384
1780625219486057000,0.730056884765625,-0.03199029850065708,1.151819965110719,-0.8155540204547345
1780625219496086800,0.740086669921875,-0.42623628456890583,0.34018969397097826,-1.2336951152428983
1780625219506115800,0.75011572265625,-0.393471494564414,0.36072979317456483,-1.242334348772466
1780625219516145000,0.760144775390625,-0.3900900354325771,0.33400340655148025,-1.2108594524480403
1780625219526174000,0.770174072265625,0.7615057655334472,-0.08491700204610825,-0.7284085287041961
1780625219536203800,0.780203857421875,0.7718716767251491,-0.1215112872108817,-0.7171883387707173
1780625219546232800,0.79023291015625,1.2372773576438427,-0.5069502819672227,0.11453618750125169
1780625219556262100,0.80026220703125,1.0519073462456465,-0.2653267606884241,0.09099909843876958
1780625219566292000,0.8102919921875,1.0509078138142824,-0.28046675441414115,0.12120792035013436
1780625219576320800,0.82032080078125,0.8290536996275186,0.025816578301787376,-0.038227293194085354
1780625219586350000,0.83035009765625,0.19444763634502887,-0.052031800532341,-0.37031755960062146
1780625219596379100,0.840379150390625,-1.173303190383315,-0.43450639252513645,-1.233003187455982
1780625219606409000,0.850408935546875,-1.5078659843832254,-0.29097382764220237,-1.554123439297825
1780625219616438000,0.86043798828125,-1.5172522368878125,-0.2837149425551295,-1.523323958016932
1780625219626467000,0.870467041015625,-0.638994069108367,0.2875762941583991,-1.569356956525892
1780625219636497000,0.880496826171875,-0.6403279480606318,0.29321225421875713,-1.5718714235648512
1780625219646526000,0.89052587890625,1.2891057445585727,0.6309188992023468,-0.7624687653467058
1780625219656555000,0.900554931640625,1.847728638356924,0.5879147469952702,-0.23096724883839487
1780625219666584000,0.910583984375,1.857667264047265,0.5673749400526285,-0.24445202270299196
1780625219676614100,0.9206142578125,1.4826450338870285,0.8804892878323793,0.14820304091200232
1780625219686643000,0.930642822265625,0.9098089058190584,1.4106123555943368,-0.3038090515568852
1780625219696672000,0.940672119140625,0.40367724675834177,1.3979407978087663,-0.6902161606930196
1780625219706702000,0.9507021484375,-0.07485504223704338,1.320636608853936,-0.9480221704877912
1780625219716731000,0.96073095703125,-0.0742354490339756,1.3087465568348764,-0.933969971998781
1780625219726760000,0.970760009765625,-0.6895107889026403,1.0808142917782069,-1.1262737281829118
1780625219736789000,0.9807890625,-0.5236299063503742,0.9288809782966971,-0.9588733809784055
1780625219746819000,0.990819091796875,-0.12851122910082338,0.8092638342693448,-0.6319551103822887
1780625219756847900,1.000847900390625,0.3070616236120462,0.7638149192586541,-0.32345702422633765
1780625219766877000,1.010876953125,0.33108664232194424,0.7073395833209156,-0.3541349249541759
1780625219776907000,1.020906982421875,0.7105664364129305,0.9206114548623562,-0.20317820141986012
1780625219786936000,1.03093603515625,0.7344891637921332,0.8470859076634049,-0.21523162730708717
1780625219796964900,1.04096484375,0.8506102823972701,1.2576175503611564,-0.3454166348390281
1780625219806995000,1.050994873046875,0.7660323030471802,1.502529299530387,-0.5708525530353188
1780625219817024000,1.06102392578125,0.765502726215124,1.465978561246395,-0.5228681281976402
1780625219827052800,1.071052734375,0.42893209952414035,1.447692086188495,-0.8032036574475466
1780625219837081900,1.081081787109375,-0.4202992957353592,0.6048647127524018,-1.274495766056329
1780625219847112000,1.09111181640625,-0.6563432633161544,0.21300299147218466,-1.2674269967138767
1780625219857141000,1.10114111328125,-0.5799345618963241,0.09314765477478504,-1.0341934103786945
1780625219867169800,1.111169677734375,-0.5793050318211317,0.06490501836985349,-1.006784302188456
1780625219877200000,1.121199951171875,0.29249066194593903,0.19818083152398466,-0.46111149085611103
1780625219887229000,1.13122900390625,0.30581834555268284,0.14619199335053562,-0.46166532534658905
1780625219897258000,1.141258056640625,1.0701397530287504,0.099448654615134,-0.48606911424100396
1780625219907286800,1.151286865234375,1.0701339078098535,0.004761515313386917,-0.8327607374519109
1780625219917316900,1.16131689453125,1.0759300268679857,-0.024573592503368852,-0.8279822710037231
1780625219927346000,1.171345947265625,-0.16972352945506572,-0.2749636269532144,-0.8752398428715765
1780625219937374700,1.181374755859375,-0.21104279731512068,-0.3021564620442688,-0.5226142995670437
1780625219947404800,1.19140478515625,0.1539075361639261,-0.23888328265994785,-0.05095189634114503
1780625219957433900,1.201433837890625,0.6628811406522989,0.02470452540665865,0.23825725971609352
1780625219967463000,1.211462890625,0.6860515883594751,-0.01218406652957201,0.17366788316667078
1780625219977493000,1.221492919921875,1.2304706002384425,0.21936711967661976,0.29724867012798784
1780625219987521800,1.231521728515625,1.0989420691430567,0.4002903807990253,0.16271832686811685
1780625219997550800,1.24155078125,0.6907517288744449,0.44797859916910526,-0.14798326068148016
1780625220007580200,1.251580078125,-0.062249243164062495,0.18255743819549677,-0.4997440038502216
1780625220017609700,1.261609619140625,-0.05451660308539867,0.168011903231591,-0.5225371426776051
1780625220027639000,1.27163916015625,-0.5624012432932853,0.052300826732069254,-0.4323753718458116
1780625220037668000,1.281668212890625,-0.4416337601870298,0.007451777310669421,-0.2012048555202782
1780625220047698000,1.291697998046875,-0.01568272230029106,0.2212298448085785,-0.05929769988209009
1780625220057727000,1.30172705078125,0.3895370777249336,0.388566479127109,0.14067556801661849
1780625220067756000,1.311756103515625,0.40900399473905563,0.3393416988395154,0.08336714225560427
1780625220077785000,1.32178515625,0.9360247125715017,0.6907314167387784,0.2047321528635919
1780625220087815200,1.331815185546875,0.9939473247081041,0.8173466029599309,0.054127019245922565
1780625220097844000,1.341843994140625,0.9952642525255679,0.7945178082972765,0.06974573639929295
1780625220107873000,1.351873046875,0.5164484704136848,0.8514778590120374,-0.447369235099107
1780625220117903000,1.361903076171875,0.5071463890612125,0.8537742993861437,-0.3973458517797291
1780625220127932000,1.371931884765625,-0.5915197857499123,0.4862907941676676,-1.1179384460359811
1780625220137961000,1.3819609375,-0.895704392620921,0.2770923095449805,-1.169122543697804
1780625220147991000,1.391990966796875,-0.8897305789083242,0.22648104333505034,-1.1557754247382284
1780625220158020000,1.40202001953125,-1.3236270228415727,0.44914983490556476,-1.013177802617848
1780625220168049000,1.412048828125,-1.3047124790132045,0.3496700544998049,-1.033588137961924
1780625220178078000,1.422077880859375,-1.0380080002307892,1.7502223499812184,-0.7208496377572416
1780625220188108000,1.43210791015625,-0.5791051253348588,2.2682390926249325,-0.7557857804514467
1780625220198137000,1.44213720703125,-0.2983405570179224,2.407296557920426,-0.9013052813678979
1780625220208166000,1.452165771484375,0.23664719417095184,2.3490713095754385,-1.19711442021206
1780625220218196000,1.462196044921875,0.22935586811900138,2.336244853489101,-1.1501024936683475
1780625220228225000,1.47222509765625,1.4245032260417938,2.381243394383788,-0.9432388817340135
1780625220238253800,1.48225390625,1.456743115389347,3.088418142531812,-1.0635080599293112
1780625220248284000,1.492283935546875,1.421127027606964,3.1636031473755835,-0.9410710361756384
1780625220258313000,1.50231298828125,2.29240951115489,3.1132816578924656,-0.4161193797022104
1780625220268342000,1.512342041015625,2.2554104445815084,3.1546178768873214,-0.28767259413972496
1780625220278370800,1.522370849609375,3.118966717791557,2.7964880370780825,-0.0594058364316821
1780625220288401000,1.53240087890625,3.09003463781774,2.727287367340922,0.08051496769487858
1780625220298430000,1.542429931640625,2.5646102492660283,3.4890558754637837,-0.01618979503959417
1780625220308459000,1.552458984375,0.6290858385562896,4.565463164454698,-1.0479743907108903
1780625220318488800,1.56248876953125,0.5953004733324051,4.409661777368187,-0.897317673036456
1780625220328516600,1.5725166015625,0.7870113781899213,4.243561406846344,-1.1254460451871156
1780625220338545700,1.582545654296875,1.0746943475931883,3.785247730015218,-1.0665385136663914
1780625220348575500,1.592575439453125,0.9941057301402091,3.684066114127636,-0.8450926880195736
1780625220358604500,1.6026044921875,1.6745523380994796,3.535383619135618,-1.4068807678505777
1780625220368633900,1.6126337890625,1.5631073946118355,3.3885616573184727,-1.1502280197441577
1780625220378662700,1.62266259765625,1.1107926659345626,4.969666480913758,-2.040497820095718
1780625220388692700,1.632692626953125,1.2972510570913554,5.495354488837719,-2.3929937456712125
1780625220398721800,1.6427216796875,1.1434832216590642,5.242914097729325,-2.1377608012348412
1780625220408750800,1.652750732421875,4.67922632175684,8.799123647272586,-1.9616157142996786
1780625220418780700,1.66278076171875,5.088609671202302,7.322807231885195,-1.9326754510194062
1780625220428809700,1.672809814453125,1.4343208557009697,3.6877179146334527,-3.185646636879444
1780625220438838800,1.6828388671875,2.034244312658906,4.896983229757845,-4.128318532380462
1780625220448868900,1.692868896484375,1.7847697856187819,4.620540908554196,-3.8997587830752134
1780625220458897700,1.702897705078125,2.0153630865782497,5.818014663597941,-4.153411472582817
1780625220468926700,1.7129267578125,2.293244208413362,6.682048491191864,-2.9296242956310508
1780625220478955800,1.722955810546875,3.1187925302684305,7.9543270195901385,-1.7474685212284327
1780625220488985600,1.732985595703125,4.509101225763559,8.98822933806777,-0.30427754585146904
1780625220499014700,1.7430146484375,4.192842150217294,8.713262642374634,-0.1470546015292406
1780625220509043700,1.753043701171875,5.693433175161481,9.994440516543388,1.1868155829071998
1780625220519073800,1.76307373046875,4.379944099974632,11.17006133621931,0.5440431643038988
1780625220529102600,1.7731025390625,3.102240039396286,12.094100427442788,-0.1109825866729021
1780625220539131600,1.783131591796875,2.3689590823501345,12.133376791298389,-0.11181260775625705
1780625220549161700,1.79316162109375,1.9293910225212574,11.70002161463499,-0.14839607926607132
1780625220559190800,1.803190673828125,-0.39587592535763977,11.096582258510589,-0.7205576690733433
1780625220569219600,1.813219482421875,-1.7035080912098288,10.23565633380413,-1.6641659686416386
1780625220579249700,1.823249755859375,-1.8755492499575017,8.73221751821339,-3.215441471162438
1780625220589278700,1.83327880859375,-1.8389272000029682,6.625854894804954,-5.094965762230753
1780625220599307800,1.843307861328125,-2.0365350539445877,6.228745335999131,-5.459136928030849
1780625220609336600,1.853336669921875,-3.517315463003516,3.21390827024579,-12.109705992853641
1780625220619366700,1.86336669921875,-5.079292976802587,0.9560118540674447,-18.68243603119254
1780625220629395700,1.873395751953125,-7.139892212423682,-3.7050586332738398,-26.16278827896118
1780625220639424500,1.883424560546875,-6.779006059643626,-8.806293392771481,-32.83500978814363
1780625220649454600,1.89345458984375,-6.424909713134169,-8.856379319933056,-33.141481629168986
1780625220659483600,1.903483642578125,0.5968213992893695,-17.28601674386263,-36.961238654768465
1780625220669512700,1.9135126953125,5.122523631241918,-17.595745540857315,-34.865477504873276
1780625220679542500,1.92354248046875,5.54434677554369,-17.347414923155306,-34.7765460064888
1780625220689571600,1.933571533203125,12.92588910499215,-13.671158021473884,-27.49817062152624
1780625220699600600,1.9436005859375,13.196383623707293,-13.42259593310356,-27.35159825055599
1780625220709629700,1.953629638671875,17.382833442538974,-10.971374162608384,-19.52361096124649
1780625220719659500,1.963659423828125,17.61121432814598,-9.93316859397888,-16.165305910503864
1780625220729688600,1.9736884765625,16.092694263279437,-9.128922587871552,-13.562916257941723
1780625220739717600,1.983717529296875,13.7070102560997,-7.780517682126164,-11.30420910990238
1780625220749747700,1.993747802734375,13.657906910234688,-7.5970917905330655,-11.030998902487754
1780625220759776500,2.003776611328125,9.51967956278026,-3.336154593732953,-7.568918419972062
1780625220769805600,2.0138056640625,7.996055452772975,2.2044325370162725,-2.4066496383190152
1780625220779835600,2.023835693359375,7.923174340957403,2.476978143042326,-2.0943045213460922
1780625220789864400,2.033864501953125,5.933515604478121,8.003029383438825,5.9570437795817845
1780625220799893500,2.0438935546875,4.331781834352016,7.0848068695396185,7.704027147641778
1780625220809923600,2.053923583984375,1.5799699743464588,3.149800831994414,2.2664625844717023
1780625220819952600,2.06395263671875,0.5112219679370522,5.082486804407835,2.9928917759269473
1780625220829981400,2.0739814453125,0.43285920983999965,5.303644168502092,3.1658915505737064
1780625220840010800,2.0840107421875,1.754351266479492,11.726031669682264,12.100760469853878
1780625220850040600,2.09404052734375,1.6803157239317894,11.841024661040306,12.19969196872711
1780625220860069600,2.104069580078125,2.840566540518403,13.806851271033286,13.24948977547288
1780625220870098700,2.1140986328125,3.835291571600735,10.906792677104473,12.430218049669264
1780625220880128500,2.12412841796875,3.732703011524677,10.945817696547508,12.49723932954073
1780625220890157800,2.13415771484375,10.817703357809782,2.467108490934968,7.619375518533587
1780625220900186600,2.1441865234375,10.73008586463332,2.4472984595716,7.648865232390165
1780625220910216400,2.154216552734375,13.573726405769586,1.1805980235666036,4.7977404729783535
1780625220920245800,2.164245849609375,12.443323030436039,2.2020620084926485,4.178803103470802
1780625220930274800,2.17427490234375,12.149995917665958,2.1246324395924807,4.252018561807275
1780625220940303600,2.1843037109375,6.756319011539221,4.2065860134094955,0.6189934836089611
1780625220950333700,2.194333740234375,6.323000075232982,4.037114412888885,0.6565104365766048
1780625220960362800,2.20436279296875,1.9154028291791676,2.312755256830156,-3.487499585932493
1780625220970391800,2.214391845703125,-1.012421285162121,1.8627850454524157,-4.8063119019687175
1780625220980421600,2.224421630859375,-1.3207593584507702,1.6076251662522554,-4.912092243823409
1780625220990450700,2.23445068359375,-5.848700893762707,0.8712164325743913,-6.555598286274075
1780625221000479700,2.244479736328125,-5.9606806747794145,0.6271662686705589,-6.708226888543367
1780625221010509800,2.254509765625,-2.5937603559046982,3.0152731190830466,-5.5339890476584435
1780625221020538600,2.26453857421875,0.8883815023869276,5.2074038084089755,-4.965860074368119
1780625221030567700,2.274567626953125,0.7440127789407968,5.039920166835189,-5.086290872865915
1780625221040597800,2.28459765625,1.683416028034687,3.3882226346224544,-1.6335878750264643
1780625221050626800,2.294626708984375,-0.06074468382000923,0.7715642182111739,-1.0998790577322244
1780625221060655600,2.304655517578125,0.12946108630471861,0.5619926624923944,-0.5616022018700838
1780625221070684700,2.3146845703125,-1.592051165023446,1.0905132634937762,-0.3681254563838243
1780625221080714800,2.32471484375,-1.5789087748557329,0.9717939450889825,-0.484319640225172
1780625221090743600,2.33474365234375,-2.634587456333637,3.378001684859395,0.38912557431459427
1780625221100772600,2.344772705078125,-2.2769237727314233,3.4686236205488443,1.3195213410884141
1780625221110802700,2.354802734375,-1.2473188591867685,2.8298867410719395,1.6551818671971559
1780625221120831700,2.364831787109375,-1.1815075396269559,2.76005975612998,1.5773609608918429
1780625221130860500,2.374860595703125,1.9432710793137549,0.2455494625508785,1.239994215387106
1780625221140890600,2.384890625,0.9812275438666344,-0.07075286761522293,0.0006792144358158111
1780625221150919700,2.394919677734375,0.5704378347545862,-0.08978256225585937,-1.0117015925854445
1780625221160948700,2.40494873046875,0.3732178110867739,-0.7062900742679834,-1.4510013568669557
1780625221170978600,2.414978515625,0.21319087872710077,-1.5532324818074703,-1.312898708078265
1780625221181007600,2.425007568359375,-0.227407656660676,-3.0588977412760254,-0.8040256413549184
1780625221191036700,2.43503662109375,-1.1652239288240671,-4.745944234767556,-0.168743870767951
1780625221201066800,2.445066650390625,-2.2866326813191176,-6.358690397295355,0.22079408373981713
1780625221211095600,2.455095458984375,-2.1494892329514026,-6.614535628411174,0.36467063975483177
1780625221221124600,2.46512451171875,-1.545336760121584,-6.825621095824241,0.3606979367315769
1780625221231153700,2.475153564453125,-0.5029933610349894,-6.528606234452128,0.3139689187824726
1780625221241183700,2.485183837890625,0.4776584287703037,-6.202606101614236,0.009350304408371448
1780625221251212500,2.495212646484375,1.027154013261199,-6.129215871232748,0.09957827234417199
1780625221261241600,2.50524169921875,0.7243734279692172,-6.501658021771908,0.63636810451895
1780625221271271700,2.515271728515625,-0.24090603892551735,-6.483420938813686,0.7459118905603885
1780625221281300500,2.525300537109375,-0.31942952227592464,-6.565678366261721,0.4128609624281525
1780625221291329500,2.53532958984375,-0.5496095662593842,-4.21773050775826,0.45008550832048055
1780625221301359600,2.545359619140625,-0.05931961945295334,-1.395759362116456,0.15471373798027635
1780625221311388700,2.555388671875,-1.6045628560721874,4.586261037811637,-0.7065579314239323
1780625221321418000,2.56541796875,-2.670056244599819,7.827410950726271,-1.0108878650497644
1780625221331448000,2.575447998046875,-2.647911048287153,7.795405454656481,-1.4208381276629864
1780625221341477000,2.58547705078125,0.6603484073042869,6.041459261846542,1.596989790469408
1780625221351506200,2.595506103515625,1.958712978595495,5.855200777176022,2.2264343793354926
1780625221361536300,2.605536376953125,2.0029834974765777,3.101697603082657,3.0562030953645705
1780625221371565000,2.61556494140625,2.162024889397621,0.4540869990468025,3.9844162574023008
1780625221381594000,2.625593994140625,2.329060202682018,0.47996261405944823,3.789623168620467
1780625221391623200,2.635623046875,1.0966600956857204,-1.596357337784767,3.8267894084542986
1780625221401653000,2.645653076171875,0.9771079066533594,-0.5520101976603269,3.0917016942471265
1780625221411682000,2.65568212890625,0.8650264188278466,0.8829483714222908,2.0664275033831596
1780625221421711000,2.665711181640625,1.0927852270137517,2.1039292587816716,1.1842963666278867
1780625221431741200,2.6757412109375,1.162771859496832,2.0974802287727594,1.3166511924795805
1780625221441770000,2.68577001953125,3.0243595118582247,4.76290939809382,0.7358164668731391
1780625221451799000,2.695799072265625,1.514103417468071,4.333829414531588,0.2043265677373856
1780625221461829000,2.7058291015625,-0.08235102401562035,3.1655028435170647,-0.39769612652212377
1780625221471858200,2.715858154296875,-0.7385485952507704,2.1748779412299393,-0.8042201410137116
1780625221481887000,2.725886962890625,-0.8037432442169636,2.166941303011775,-0.7584991310633719
1780625221491917000,2.7359169921875,-1.0866501583248376,1.1552671829551457,-1.7209266973920165
1780625221501946000,2.745946044921875,-0.9383639691740274,0.4494721987277269,-2.132599911340326
1780625221511975200,2.75597509765625,-0.7568067209970205,-0.34041327359378337,-2.4733424168884754
1780625221522005000,2.7660048828125,-0.7150900513172149,-1.2888035467416048,-2.892877157992124
1780625221532034000,2.776033935546875,-1.2059276220690458,-2.152729822307825,-3.2182696803256867
1780625221542063400,2.7860634765625,-1.7676649215608835,-1.1208657316595316,-3.32435426582396
1780625221552092200,2.796092041015625,-0.9389899190526455,-0.40213527801334853,-3.581057867334783
1780625221562122000,2.8061220703125,-0.022536241456866262,0.6753805567413568,-3.561559093877673
1780625221572151300,2.8161513671875,0.2161626976121217,2.4117016610115765,-2.8631118420645594
1780625221582180400,2.826180419921875,-0.5562655170172452,3.787873694604635,-1.5454489883244036
1780625221592210200,2.836210205078125,-1.129257127907872,3.165237470579147,-0.14636705765649677
1780625221602239200,2.8462392578125,-1.191018879815936,1.7405103726536035,0.8637943928148597
1780625221612268300,2.856268310546875,-1.5412316628903149,0.6683423286676407,1.7041471197657285
1780625221622298400,2.86629833984375,-1.8562468758553266,-0.41956279815435404,2.5874656396746634
1780625221632327200,2.8763271484375,-2.2865923493087292,-1.0477420432597397,3.1143551323428746
1780625221642356200,2.886356201171875,-1.8958406350970267,-1.8868530265212058,3.282639568905532
1780625221652386300,2.89638623046875,0.23406247490737586,-2.4188725755542517,2.8182082859769464
1780625221662415400,2.906415283203125,2.0538579446673393,-2.1177380039036273,1.9824121263518928
1780625221672444200,2.916444091796875,2.332422372591495,-1.042514079478383,0.949424000109732
1780625221682474200,2.92647412109375,1.5818072727762162,-0.1687614064246416,0.24666644734945148
1780625221692503300,2.93650341796875,0.834835351768881,0.3655757719010114,0.14713537514787167
1780625221702532000,2.946531982421875,-0.34817879302874205,0.6450660824984311,0.3776757768763229
1780625221712562200,2.956562255859375,-1.2763235660053789,1.10328155965209,0.9774173379287123
1780625221722591200,2.96659130859375,-0.8212512091830372,1.1036901404529809,1.478841257689893
1780625221732620300,2.976620361328125,-0.17753449546694755,0.7435626970857382,1.7775712524168192
1780625221742650400,2.986650390625,0.8402920097395777,0.2407435235738754,1.9153386779017745
1780625221752679200,2.99667919921875,1.563870780199766,-0.5017781400263309,1.7603250801920889
1780625221762708200,3.006708251953125,1.2449161819592118,-1.2204378665238618,1.4893997688442469
1780625221772737300,3.0167373046875,0.5580269737318158,-1.9614877040058374,1.2465043279334902
1780625221782767000,3.02676708984375,0.23808541028052568,-2.7809675196021795,1.1635108412958681
1780625221792796200,3.036796142578125,0.29211130723953244,-2.8300398858070372,0.9406354212373494
1780625221802825200,3.0468251953125,0.6947171253740787,-3.0149621534377333,0.49004247485138475
1780625221812855300,3.056855224609375,0.8733912923954427,-2.9934213527590035,0.07445835280334577
1780625221822884000,3.066884033203125,0.8096385128006338,-2.63745453620255,-0.25337893233383074
1780625221832913200,3.0769130859375,0.47849195698499675,-1.948410780289769,-0.2833948437552899
1780625221842943200,3.086943115234375,0.3381481051407754,-1.5452321307033299,-0.5562617906901985
1780625221852972300,3.09697216796875,0.6343795610502362,-1.5990741955280303,-1.1685965470623225
1780625221863001000,3.1070009765625,0.9556947509422897,-1.7800562011003493,-1.636237658882886
1780625221873031200,3.11703125,0.9520680848777293,-1.6502198608756065,-1.582840999738127
1780625221883060200,3.127060302734375,0.8629749661907553,-1.4166560196727513,-1.4337814881272612
1780625221893089000,3.137089111328125,0.842458540123701,-1.0596318030178546,-1.1293816310703755
1780625221903119000,3.147119140625,0.8661538884878158,-0.7430553320854901,-0.7150291879754513
1780625221913148200,3.157148193359375,1.2235131823159753,-0.6954594681739806,-0.37226715929843485
1780625221923177200,3.16717724609375,1.7839795120239257,-0.7848737816393375,-0.29155100647564974
1780625221933207300,3.177207275390625,1.997743843257427,-0.677461454668641,-0.38363811934683467
1780625221943236000,3.187236083984375,2.0869056432664395,-0.2921621606439352,-0.5980505392255261
1780625221953265200,3.19726513671875,2.436625089865923,0.5132938057750464,-0.898066957033798
1780625221963294200,3.207294189453125,2.4761656576156614,1.5274533129066228,-1.0472265680182724
1780625221973324000,3.217323974609375,1.5418623620092868,2.395085457253456,-0.8533342274684459
1780625221983353000,3.22735302734375,1.583140128815174,2.3932325228631495,-0.8425585664320736
1780625221993382100,3.237382080078125,-0.6109212363123894,3.684515026938915,0.2454316631237976
1780625222003412200,3.247412109375,-1.113926872307062,4.174803220179677,0.8607091401506215
1780625222013441000,3.25744091796875,-1.0520797802031039,4.1745314175009725,0.7729289306931197
1780625222023470000,3.267469970703125,2.9676398457705973,3.944409241184592,1.960382665373385
1780625222033500200,3.277500244140625,3.0033541332304474,3.949312795317173,1.8230640065692365
1780625222043529200,3.287529296875,1.7977239597380161,2.6019582754075525,1.7254945898294447
1780625222053558000,3.29755810546875,-1.2830652953505515,1.190617897799611,1.6316557379201053
1780625222063588000,3.307588134765625,-1.6741992868781088,0.45077159088850016,1.9835241792470215
1780625222073617200,3.3176171875,-0.059956748312711715,-0.4361135354608297,2.655182208333909
1780625222083646000,3.32764599609375,-0.10381463127229362,-0.4279080171734094,2.5841999158769844
1780625222093676000,3.337676025390625,0.7338999657273292,-1.6329495771229265,3.312099472145736
1780625222103705000,3.347705078125,0.25261867028474805,-1.8838661196649074,3.1826819418549537
1780625222113734100,3.357734130859375,-0.25485735258962955,-1.4803835186958312,2.967558889488876
1780625222123764200,3.36776416015625,-0.15605097793340683,-0.9633704001367092,2.178851959427446
1780625222133793000,3.37779296875,-0.006324526846408844,-0.9579676643103361,2.1290609235592184
1780625222143822000,3.387822021484375,0.8591063080638647,0.6251181039690971,0.44213279575034975
1780625222153852200,3.39785205078125,1.077464396828413,0.35034780763089657,0.05461085724011063
1780625222163881000,3.407880859375,0.5195336134800688,-0.28780630352199077,-0.019137100537866353
1780625222173910000,3.417909912109375,-0.5410579379480331,-0.49537645629048344,0.12156959326937794
1780625222183939300,3.427939208984375,-0.39222171369902786,-0.48480537791550155,0.12199585585743188
1780625222193969200,3.43796923828125,-0.5511386755228043,-0.29706688382029534,0.020757249085605143
1780625222203998200,3.447998291015625,-0.15274857538715003,-0.20406594403982162,0.015508827038109302
1780625222214027300,3.45802734375,-0.17572116243466734,-0.584684971293807,-0.04030804499089718
1780625222224057000,3.46805712890625,-0.3813865044951439,-0.6833242092221975,0.033351503851264716
1780625222234086400,3.47808642578125,-0.23357027094364166,-0.6565431698024272,0.004608662839233875
1780625222244115200,3.488115234375,-0.5681188902877271,-1.1304758560478687,-0.05250643230676651
1780625222254145000,3.49814501953125,-0.4249361617557704,-1.102917987036705,-0.06101575584635138
1780625222264174300,3.50817431640625,-1.4370546645790339,-0.9073632662326097,0.03192439365759492
1780625222274203100,3.518203125,-2.038604845955968,-0.2950444380819797,0.06524097232595086
1780625222284233200,3.528233154296875,-1.9103651272729039,-0.26471476626992224,0.05837371690496802
1780625222294262300,3.53826220703125,-2.266470767778158,0.463366284045577,-0.18199834300801157
1780625222304291300,3.548291259765625,-1.867168521233648,0.5689473039358854,-0.40265316440761084
1780625222314321200,3.558321044921875,-1.734759554041922,0.6079787531197071,-0.6584624474272132
1780625222324350200,3.56835009765625,-1.689292518852651,0.6251993525117635,-0.687279814980179
1780625222334379800,3.5783798828125,-1.642093253043294,0.4247808250635862,-0.7851550827987491
1780625222344409600,3.58840966796875,-1.2091937111929059,-0.15884323900043965,-0.39291882911771536
1780625222354438700,3.598438720703125,-1.2202020119413732,-0.1586404099047184,-0.41097909420430656
1780625222364467700,3.6084677734375,-1.3413427122741937,-0.34392975728213787,-0.04415522193834185
1780625222374497500,3.61849755859375,0.39618075352311133,-1.3696674740046262,-0.0056003042250871654
1780625222384526800,3.62852685546875,0.3902800050467253,-1.3706979860961437,-0.008734656728059053
1780625222394555600,3.6385556640625,0.1638110905408859,-0.5091033683478832,0.35861265489012
1780625222404585500,3.64858544921875,0.3242515356048941,-0.39761633928418155,0.4517429201386869
1780625222414614800,3.65861474609375,0.13913228409737347,-0.13062544477581978,0.5684589358970522
1780625222424643800,3.668643798828125,0.1270072542786598,-0.132314713037014,0.5599971047610044
1780625222434672600,3.678672607421875,-0.15240180777609347,0.11191782169640063,0.5997720657885074
1780625222444702700,3.68870263671875,0.025301029995083806,-0.3889455415725708,0.49346083192750806
1780625222454731800,3.698731689453125,0.2645173440016806,-0.952594739100337,0.3035598991014063
1780625222464760600,3.708760498046875,0.2666262989796698,-1.3888397919863462,0.13049188152402638
1780625222474790700,3.718790771484375,0.19582213956862687,-1.70521226477921,0.05097586173862219
1780625222484819700,3.72881982421875,0.18652035047709942,-1.7052701324462889,0.03887479731738567
1780625222494848800,3.738848876953125,0.1647973250992596,-1.4671540347665548,0.10525222632735967
1780625222504878800,3.74887890625,0.6442647029876709,-0.3857879543244839,0.1572828578159213
1780625222514907600,3.75890771484375,0.4098524282619357,0.09102174866199493,0.043996670375764366
1780625222524936700,3.768936767578125,0.2069080355979502,0.23031273045241832,-0.18750015529468655
1780625222534966800,3.778966796875,0.19504633289054035,0.22621698557138442,-0.18203209914714097
1780625222544995600,3.78899560546875,-0.7508926015824079,0.17391045975089073,-0.6043342591375113
1780625222555024600,3.799024658203125,-0.9730489135861397,-0.7046241868823766,-0.6800945796512067
1780625222565054700,3.8090546875,-0.9799030172646045,-0.7045411847740412,-0.6892828253656625
1780625222575083800,3.819083740234375,-0.991830770945549,0.0912497121989727,-0.3277523833326995
1780625222585112600,3.829112548828125,-0.9995067124009132,0.09267302300035953,-0.3444897292524576
1780625222595142700,3.839142578125,-0.17903189441785217,0.08784194958209991,-0.40536607662811874
1780625222605171700,3.849171630859375,-0.7535019072979688,0.5080640884280204,-0.9035314329847693
1780625222615200800,3.85920068359375,-0.3422302598878741,0.4009972138941288,-1.1337938945546746
1780625222625230600,3.869230712890625,0.18185192027464508,0.1295224519699812,-1.4176410851873456
1780625222635259600,3.879259765625,0.14193828142881393,0.11713643312752246,-1.4027574043102562
1780625222645288700,3.889288818359375,0.4714274254262447,0.6636603083312511,-1.6093457064345478
1780625222655318800,3.89931884765625,0.5165706354886294,0.5242600209474564,-1.4667818404532968
1780625222665347600,3.90934765625,0.4608189376503229,0.5074900879323482,-1.4431998893357814
1780625222675376600,3.919376708984375,0.3050397623956203,-0.08303542608320713,-1.1211123998969792
1780625222685406700,3.92940673828125,0.23714886008277533,-0.10165829348862171,-1.096023989739269
1780625222695435800,3.939435791015625,-0.3976793215177953,0.24325989030897616,-0.45340223165303467
1780625222705464600,3.949464599609375,-0.3400577381543815,0.2311065111786127,-0.1271859718464315
1780625222715494700,3.95949462890625,-0.08205810548365115,-0.13918693689405917,0.1307829734250903
1780625222725523700,3.969523681640625,0.07480068170130252,-0.3151239340364933,0.38858065378293394
1780625222735552500,3.979552490234375,-0.0027642040163278576,-0.32647885626554485,0.38029330243095755
1780625222745581600,3.98958154296875,-0.344462841245532,0.660083618888259,0.5626980342827737
1780625222755611600,3.999611572265625,-0.12905702641531824,0.8217080130398273,0.41434696320220826
1780625222765640700,4.009640625,0.7907271838426589,0.746767046085,-0.08772986750975251
1780625222775669500,4.01966943359375,0.5767382500730455,0.7430991712272167,-0.6887590937525033
1780625222785699600,4.029699462890625,0.38546464065425096,0.7345873634696006,-0.7473581438459456
1780625222795728600,4.039728759765625,-1.5183271726429461,0.270468799751997,-1.1953744446769357
1780625222805757700,4.0497578125,-1.6274124012619255,-0.24764964970052242,-0.9850830502510071
1780625222815787500,4.05978759765625,-0.5585463214308023,-1.6041244646549224,-0.8016727946184575
1780625222825816600,4.069816650390625,0.5082487973451614,-1.862980568024516,0.06304170871600508
1780625222835845600,4.079845703125,0.2538976041793823,-1.8575526977568864,0.06647080638185143
1780625222845875700,4.089875732421875,1.1480922498244792,-0.28809797994494435,1.7221401648350059
1780625222855904500,4.099904541015625,1.2207611801940947,-0.9287246186912059,1.5911002940393983
1780625222865933600,4.10993359375,1.3779904811918735,-1.9985382085055112,1.0616514722771941
1780625222875963600,4.119963623046875,0.43533670586943624,-2.089164820370078,0.7350327691495419
1780625222885992700,4.12999267578125,0.21338921431079505,-2.0561217979460955,0.7327526953883469
1780625222896021500,4.140021484375,-0.3713173842929303,-2.7066747874230144,0.8444871233418584
1780625222906051600,4.150051513671875,-0.5940928511083126,-2.6733617158859966,0.8888467818111181
1780625222916080600,4.16008056640625,-0.4097383003629744,-0.8146762147068977,1.6383886994369328
1780625222926109400,4.170109375,0.08667159062847495,0.5318208115905523,2.114337401679903
1780625222936139500,4.180139404296875,-0.09340162953585386,0.5735182651132344,2.140655499763042
1780625222946168600,4.19016845703125,0.9995458753675222,1.769059006267786,2.039416892991215
1780625222956197600,4.20019775390625,2.502167237095535,1.0919546944737433,0.9275720876552164
1780625222966227700,4.210227783203125,3.2989892306819555,1.0304781892478465,0.6706362848237156
1780625222976256500,4.220256591796875,3.221036806951463,1.063851466539502,0.6366169647134841
1780625222986285600,4.23028564453125,3.426342229658365,1.2797417038857937,0.508076071126759
1780625222996315600,4.240315673828125,2.24095404920578,-1.4147586616188288,-0.4194933861799538
1780625223006344400,4.250344482421875,1.1357520428851247,-2.6930209406018255,-0.8381124737434089
1780625223016373800,4.260373779296875,0.14231179091632365,-3.079538962766528,-0.7313489660702646
1780625223026403600,4.270403564453125,-0.11027122353315352,-3.9309576389372345,-0.700568043359369
1780625223036432600,4.2804326171875,0.017684125250577925,-3.9663334882229564,-0.7106574756972491
1780625223046461700,4.290461669921875,1.436076759457588,-3.7851182584166523,-1.18770142583102
1780625223056491500,4.300491455078125,2.6657600087106226,-3.230794523116946,-1.4281336914986371
1780625223066520600,4.3105205078125,3.334900794279575,-2.350316341200471,-1.6692006018079817
1780625223076550000,4.3205498046875,3.511982869803905,-2.387791793113947,-1.6800496203415094
1780625223086579500,4.330579345703125,3.9667888307750223,-1.705331507244706,-1.986508017363399
1780625223096608500,4.3406083984375,3.367900562083721,-0.35227906795442104,-2.3466563573881984
1780625223106637800,4.350637939453125,2.7592344112217426,0.23231004174947736,-2.385687075919658
1780625223116667600,4.360667724609375,2.6502842071592805,0.4680786995202303,-2.4372156031049785
1780625223126696700,4.37069677734375,2.94622413277626,1.4979747049659489,-2.424676439527422
1780625223136725800,4.380725830078125,3.0582535981535908,1.482297243362665,-2.412383651926368
1780625223146755600,4.390755615234375,2.9523873315811158,2.3948072248339654,-2.085729877485335
1780625223156785000,4.400784912109375,1.3734955078601836,2.71641876732409,-0.08995134295150638
1780625223166813700,4.410813720703125,0.5626935042381286,4.366237061661481,1.0833028937235474
1780625223176843500,4.420843505859375,0.1621171461045742,5.728242038214207,1.9271764152117072
1780625223186872800,4.430872802734375,0.08905534395985305,5.738470002239942,1.9191620355822145
1780625223196901600,4.440901611328125,-0.44620998206138607,4.481544525796175,4.351553871792555
1780625223206931700,4.450931640625,0.40717904433421787,2.4402415267974136,5.365868861746788
1780625223216960800,4.460960693359375,0.4106802573882043,2.4554244828820226,5.304294741365314
1780625223226989800,4.47098974609375,2.080174435315281,-0.49733343557715415,5.0807846766650675
1780625223237019600,4.48101953125,2.1105133133471012,-0.5006096807688475,5.0788884876549245
1780625223247048700,4.491048583984375,1.1350806464295833,-1.0251882661461829,0.8265367483705282
1780625223257077800,4.501077880859375,1.5019136518500744,-1.193245908215642,-0.17982655192688107
1780625223267107800,4.51110791015625,1.5439279162369668,-0.8299392502903937,-0.6923267231062055
1780625223277136600,4.52113671875,1.0994203541792928,-1.378075236865878,-1.0816612639963625
1780625223287165700,4.531165771484375,1.0967103645682335,-1.3659855706214905,-1.1258847288653253
1780625223297195800,4.54119580078125,-1.0076327357113362,-1.4516004918038845,-1.008839481152594
1780625223307224800,4.551224853515625,-1.6056429063938558,-0.6876058320641517,-0.7867936437860131
1780625223317253600,4.561253662109375,-1.5903284328840672,-0.6785580177336931,-0.8254156353861093
1780625223327283200,4.571283203125,-1.3124610473133622,-2.9821815813422203,-0.6687339583337306
1780625223337312000,4.58131201171875,-1.2840263954676687,-2.983392126175761,-0.6757108116090297
1780625223347341000,4.591341064453125,-1.412725109964609,-3.845177882581949,-0.5729843043670058
1780625223357371100,4.60137109375,-1.320583563492447,-4.6460564580827945,-0.7235276247948408
1780625223367400000,4.61139990234375,-1.1066005480069667,-5.157596698188781,-0.9420917575255036
1780625223377429000,4.621428955078125,-1.5981611723363398,-4.237302054190636,-0.6243272458523511
1780625223387459000,4.631458984375,-1.4784043275773524,-4.270941873463988,-0.5288381425179541
1780625223397488000,4.641488037109375,-2.2614345271766183,1.2423784801751374,0.772239340993762
1780625223407517000,4.651516845703125,-1.4737363357663154,1.9976298614889383,1.2740129509754479
1780625223417547000,4.661547119140625,-1.1479904699504375,2.8620804531902073,1.7614594910494983
1780625223427576000,4.671576171875,-1.075531967461109,3.286817439112067,2.222157432668656
1780625223437605000,4.681605224609375,-0.9324456850409507,3.2878573035538197,2.219205450995266
1780625223447635000,4.691635009765625,-1.3186445582538842,3.372811715000868,2.4741537332713603
1780625223457664000,4.7016640625,-1.2485650598555802,3.381407109388709,2.4446619735881683
1780625223467693000,4.711693115234375,-2.1752198865354058,4.526066973611712,1.6825060735829174
1780625223477723100,4.72172314453125,-2.4645617290616033,4.560594097113609,1.078392179197818
1780625223487752000,4.731751953125,-2.5055858133673667,4.58517324257493,0.9762602768480777
1780625223497781000,4.741781005859375,-2.738233124247193,3.315211758947372,0.0670356006577611
1780625223507811000,4.75181103515625,-2.860588753327727,2.103295637053251,-0.19996318489611148
1780625223517840100,4.761840087890625,-2.3231676375120878,-0.6700614075452089,-0.9387529684916138
1780625223527869000,4.771868896484375,-1.763790125954151,-2.7544021687597033,-1.7594716782331465
1780625223537899000,4.78189892578125,-1.8381717054605482,-2.7287673767656084,-1.83787009216547
1780625223547928000,4.791927978515625,-1.321160924988985,-3.435125840094685,-2.8561007942587135
1780625223557956900,4.801956787109375,-1.419025086891651,-3.427574986323714,-2.8722368132844567
1780625223567987000,4.811987060546875,-1.7639853562653063,0.3145131086617708,-2.6277920971050857
1780625223578016000,4.82201611328125,1.3509528366625307,-0.8925029662311077,-3.050594315572083
1780625223588045000,4.832045166015625,1.2616916679322718,-0.8776654625833034,-3.078768855176866
1780625223598075100,4.8420751953125,2.9273417376518247,-3.8212007946670052,-2.574441615189612
1780625223608104000,4.85210400390625,1.613834542286396,-3.4382962868243454,-1.7983190030217169
1780625223618133000,4.862133056640625,0.4962603264529258,-2.2319185098350047,-0.8975427139639854
1780625223628163000,4.8721630859375,0.5207447063028812,-2.2432453750133514,-0.8691197525560855
1780625223638191900,4.88219189453125,0.21877024976201354,-1.4259037404894828,-0.36334465184807774
1780625223648221000,4.892220947265625,0.8054466140687465,-0.9860340673655271,-0.017001695944368837
1780625223658250000,4.90225,0.9790635707657783,-0.8696960911393166,0.21459961301386354
1780625223668280000,4.912280029296875,0.8492248924534768,-0.3161597068250179,0.30288784505873917
1780625223678308900,4.922308837890625,0.5557879261007532,0.5051619372457266,0.2690045724183321
1780625223688338000,4.932337890625,0.5390541969101875,0.5048153157651424,0.27292320716679097
1780625223698368000,4.942367919921875,1.1349088700592518,-1.140717848598957,-0.45622518011927604
1780625223708397000,4.95239697265625,0.9889162717383354,-1.5421908633112906,-0.7138987957060337
1780625223718426000,4.962426025390625,0.4329027567207813,-1.275617317432165,-0.8884788252815604
1780625223728456000,4.9724560546875,0.3951543330848217,-1.2703081051081417,-0.8967349047124386
1780625223738485000,4.982485107421875,-0.21275193932056427,-0.7751707182705402,-1.0709653901979326
1780625223748514000,4.99251416015625,-0.6039736091315746,0.8831471088647842,-1.0032663571953773
1780625223758544000,5.0025439453125,-0.7039328436173499,1.823804157412052,-0.8565534087106585
1780625223768573000,5.012572998046875,-0.46059513883180914,2.4091350253939625,-0.7728288313195109
1780625223778602200,5.022602294921875,-0.2552922734081745,2.4805875657111405,-0.9064666096538305
1780625223788631800,5.0326318359375,-0.25693244183063507,2.4969547631442546,-0.9534484333202242
1780625223798661000,5.0426611328125,-0.21368951243162154,1.9389584768116472,-1.3791428660973906
1780625223808690200,5.052690185546875,0.05057407600469887,2.8030793981671334,-1.9050278578981756
1780625223818720000,5.062719970703125,0.35247510198317467,2.76517023101151,-2.256224391312897
1780625223828749000,5.0727490234375,0.3869499107759446,2.936922051423788,-2.423614509384334
1780625223838778000,5.082778076171875,0.3979202906668186,2.9549855313807725,-2.474047934809327
1780625223848808000,5.092807861328125,-0.3303074015777558,2.8670500582963228,-2.3459432406827805
1780625223858837200,5.102837158203125,-0.5963467675149441,2.1858581849277017,-2.2412734904184934
1780625223868866000,5.112865966796875,-0.589652749769017,2.189772143501043,-2.2527032314494253
1780625223878895900,5.122895751953125,0.2714624869644642,1.3330588680535553,-1.6634952297732233
1780625223888925200,5.13292529296875,0.2829787372350693,1.3198586102187633,-1.6316829181879757
1780625223898954000,5.1429541015625,-1.6240519849181174,-0.46871524385809893,-1.2397115990534424
1780625223908984000,5.152984130859375,-1.2544589401997626,-0.0013578443497419357,-0.37133360477536914
1780625223919013000,5.16301318359375,-1.8213550106942653,0.6217997732013464,0.421860553702712
1780625223929042200,5.173042236328125,-2.3128806367754935,0.7052075397282839,1.293808515422046
1780625223939072300,5.183072265625,-2.4252890184678138,0.7132680965870618,1.3019254786431789
1780625223949101000,5.19310107421875,-1.0697485617540776,-0.6519587646216154,2.8102438829690217
1780625223959130000,5.203130126953125,0.5567931941531599,-2.3871955807864667,2.9958418579041957
1780625223969160200,5.21316015625,0.4015406731210649,-2.368089313778281,3.0061139533326027
1780625223979189000,5.22318896484375,1.6138557312048971,-2.099017521342635,1.7475985773488878
1780625223989218000,5.233218017578125,1.5573383096911013,-2.0946979045778513,1.7626213744357226
1780625223999248100,5.243248046875,-0.3612415420889854,0.44060909331440923,0.03590513385683298
1780625224009277200,5.253277099609375,-0.32943419893980025,1.2615104661464691,-0.44115123736709355
1780625224019306000,5.263305908203125,0.06849427503347397,2.0964783582538367,-1.0372276635080575
1780625224029336000,5.273336181640625,0.35892566636204715,2.6855612722456454,-1.4013886001750826
1780625224039365000,5.283365234375,0.3237199129462242,2.6922464490979907,-1.4033625305965542
1780625224049394200,5.293394287109375,0.18155249893665312,1.0120002832710742,-0.9109721043795347
1780625224059424000,5.303424072265625,0.2471507602676749,-0.7407441325336694,-0.4863496847480535
1780625224069453000,5.313453125,0.5376956949733197,-2.4852561420440673,-0.3651061085626483
1780625224079482000,5.323482177734375,0.6856826089166105,-3.873664556875825,-0.5479644294008612
1780625224089512200,5.33351220703125,0.6412824723064899,-3.868268835312128,-0.538300528998673
1780625224099541000,5.343541015625,0.5288543630003929,-5.30243537723422,-1.1025509072899817
1780625224109570000,5.353570068359375,0.42400282642841336,-5.609616243311763,-1.5927014456257222
1780625224119600000,5.36360009765625,0.45318201303109523,-5.801498413082957,-2.1091607296943664
1780625224129629200,5.373629150390625,0.5286835364781319,-5.5781514299899335,-2.4610443685904144
1780625224139658000,5.383657958984375,0.5508160194396973,-5.588257228940725,-2.4455349570304152
1780625224149688000,5.39368798828125,0.16244900840744375,-4.26709571942985,-2.358082006765902
1780625224159717000,5.403717041015625,-0.14198518931046128,-3.4950334885686636,-2.042566443063319
1780625224169746000,5.413745849609375,-0.5417993308998644,-3.1715275106340646,-1.793535275876522
1780625224179776000,5.42377587890625,-0.6266017666555941,-2.8276556210190056,-1.1675021028891206
1780625224189805000,5.43380517578125,-0.598849690246582,-2.853312040323019,-1.106644314083457
1780625224199834000,5.443834228515625,0.3249906635344028,-1.6095184326529501,-0.44936230861246584
1780625224209864200,5.4538642578125,0.3605003683328628,-1.6319424459069967,-0.3996040059700608
1780625224219893000,5.46389306640625,0.12476619735360145,-1.1640274125158787,-0.08487433194816112
1780625224229922000,5.473922119140625,0.053295682988315815,-1.0603086793661116,0.26954174803495407
1780625224239952100,5.4839521484375,0.14800211151242254,-1.0783528701007365,0.27868104004114863
1780625224249981000,5.49398095703125,0.22111425560489295,-0.9551239653170108,0.7406123228475451
1780625224260010000,5.504010009765625,1.0373194334447384,-0.21526596796810626,0.9202841226041316
1780625224270040000,5.5140400390625,2.407779957523197,1.3144471065640448,0.9318629167169332
1780625224280069000,5.524069091796875,2.4989947445392606,1.3074854508578777,0.9222980927750468
1780625224290098000,5.534097900390625,3.284002966213226,3.2934020781993865,0.8338964634835719
1780625224300128000,5.5441279296875,1.4950256459020077,4.421127758756279,-0.23208646212667225
1780625224310157000,5.554156982421875,1.3452793210707603,4.415314104041457,-0.15306465559899807
1780625224320186000,5.56418603515625,-0.7690693326555192,2.1778987503558396,-2.085988528421521
1780625224330215700,5.574215576171875,-1.189091565015167,1.584410294881463,-1.9586974887654185
1780625224340244700,5.58424462890625,-1.3028173129163683,1.5653116266578435,-1.8120150815494358
1780625224350273500,5.5942734375,0.8272598019480705,1.9981699597150087,0.5951210251122713
1780625224360303600,5.6043037109375,0.5246424443937838,2.3314655102580786,2.4535557664006946
1780625224370332700,5.614332763671875,-0.0029798925936222074,3.5930244917213914,3.368111282224953
1780625224380361700,5.62436181640625,0.1190410977050662,3.607600714084506,3.2327652386680246
1780625224390391600,5.6343916015625,1.0843139704622327,5.409781068709492,3.3205098653554916
1780625224400420600,5.644420654296875,3.863990135079622,7.808013591817021,4.0123938131302594
1780625224410449700,5.65444970703125,5.760279682987928,2.071605782803893,5.636642781925201
1780625224420479700,5.664479736328125,2.833495579218864,-2.7077415398716926,4.773897240576148
1780625224430508500,5.674508544921875,-1.3496236338853835,-3.3466420854777095,3.8850843610346315
1780625224440537600,5.68453759765625,-1.428999368417263,-3.301502967068553,3.804300805531442
1780625224450567700,5.694567626953125,-5.068783273226022,-3.204464734596014,2.6610250891432163
1780625224460596700,5.7045966796875,-7.6968544795334335,-1.2404764459460973,1.2068185064941643
1780625224470625500,5.71462548828125,-4.737810612672567,-0.8214023080915213,1.482051159647107
1780625224480655600,5.724655517578125,-1.9905279205292463,0.29469489399194715,1.401158590811491
1780625224490684700,5.7346845703125,-1.734636512184143,0.2404617840230465,1.427162216117978
1780625224500713500,5.74471337890625,1.5667127256274223,3.0693636057108638,0.7123869298383593
1780625224510743600,5.75474365234375,2.137517055606842,3.9994413925766943,0.29454671769291163
1780625224520772600,5.764772705078125,2.4808371565580365,4.005078521680832,0.13529811276197432
1780625224530801700,5.7748017578125,2.0671265915632246,2.6581670693635937,0.15366934349387884
1780625224540831700,5.784831787109375,2.151623906892538,2.6428765612512826,0.18343962785750625
1780625224550860500,5.794860595703125,0.5280710306029767,0.9245902953654527,-0.046722003686428065
1780625224560889600,5.8048896484375,-1.3601964658260344,-0.42339667722880836,-0.26637276261001824
1780625224570919700,5.814919677734375,-1.2463140660583971,-0.7221253567814827,-0.2584519064828753
1780625224580948500,5.824948486328125,-0.8280594278931617,-0.8473591716468334,-0.18968670555353165
1780625224590977800,5.834977783203125,-0.8559844497162848,-0.8466746965140104,-0.18637948070168495
1780625224601007600,5.845007568359375,-1.170237373071909,-1.746533286204934,-0.13791063334792852
1780625224611036700,5.85503662109375,-1.357457396250963,-2.3233529309511183,-0.30320787079334255
1780625224621065700,5.865065673828125,-1.3484277020990847,-2.3233599452137947,-0.30515345190316434
1780625224631095600,5.875095458984375,-0.7334908004045486,-2.4955466499119994,-0.35296383534818887
1780625224641124600,5.88512451171875,-0.7146645193815231,-2.4950521443933247,-0.35856910800933833
1780625224651154000,5.89515380859375,-0.4280629520067945,-2.3441671709209677,-0.6518415679827332
1780625224661183500,5.90518359375,-0.23848493099212645,-2.3800579839915037,-0.8196966732174158
1780625224671212800,5.915212890625,0.013309563428163527,-2.40059866771698,-1.0222092503353952
1780625224681241900,5.925241943359375,0.49161556938700374,-2.161408218804002,-1.2360288188874722
1780625224691271700,5.935271728515625,0.4754863454282284,-2.1623896310567856,-1.2295496860012411
1780625224701300700,5.94530078125,0.7664286819536238,-0.9228998580604791,-1.3807716363430023
1780625224711329800,5.955329833984375,0.48289340681433673,-0.16576514721810817,-1.369509068572521
1780625224721359600,5.965359619140625,0.3063315557718277,0.45327451362013815,-1.3817778907760976
1780625224731389000,5.975388916015625,0.33170806215591725,0.8457511519283055,-1.4908219106018543
1780625224741417700,5.985417724609375,0.3102782475709915,0.8429623979926109,-1.476045781752467
1780625224751447600,5.995447509765625,0.3359386854629963,1.2113169869571923,-1.7022779648929833
1780625224761476900,6.005476806640625,0.4814180004995316,1.2052835520118474,-1.7105960036441683
1780625224771505700,6.015505615234375,0.43070721943788226,1.2314338923126458,-1.6781068157106638
1780625224781535700,6.02553564453125,0.3477565490286797,1.2051684011995791,-1.493089855533838
1780625224791564800,6.035564697265625,0.3000689882457256,1.2102093179762363,-1.4970833090841769
1780625224801593900,6.04559375,-0.07769348053336143,0.7678478280365466,-1.1414061231240629
1780625224811624000,6.0556240234375,-0.1846038493312895,0.4217500790655613,-1.2237813317328692
1780625224821652700,6.06565283203125,-0.2763024012763053,-0.0149795424669981,-1.441628840626776
1780625224831681800,6.075681884765625,-0.22254399614706635,-0.6430909830331802,-1.558190104214847
1780625224841711900,6.0857119140625,-0.30031901748403905,-0.6377350089579821,-1.5445394722640513
1780625224851740700,6.09574072265625,0.08836948058754206,-2.3152321683377024,-1.7912760987728833
1780625224861769700,6.105769775390625,0.014251958844810723,-2.310989123940468,-1.7705381389096377
1780625224871799800,6.1157998046875,-0.3718541215181351,-2.8248393945544956,-1.5303145475566386
1780625224881828900,6.125828857421875,-0.880982039785385,-2.028333627310395,-1.1677277283385394
1780625224891857700,6.135857666015625,-0.8974201104976236,-2.0308651916146276,-1.1489783119440078
1780625224901887700,6.1458876953125,-2.311257857879251,2.09775904571414,1.1610527806192636
1780625224911916800,6.155916748046875,0.40426352221369743,6.678881551593542,3.7227488960042594
1780625224921945900,6.16594580078125,-0.05157587345838546,8.953314092031121,5.299573558062315
1780625224931975700,6.1759755859375,-2.1157047445103525,6.60555328053236,5.422804800933599
1780625224942004700,6.186004638671875,-2.3370234366461635,6.723316321125626,5.206422980678081
1780625224952033800,6.19603369140625,0.7167606148779392,1.3267267424225806,4.107729625599086
1780625224962064000,6.20606396484375,0.6010159283697605,1.3986176741570233,3.9939726057767864
1780625224972092700,6.2160927734375,-3.8221369064733386,-0.5427431876212359,2.903332793293893
1780625224982121700,6.226121826171875,-3.2057188263103362,-0.9445815285146236,2.031482446730137
1780625224992151800,6.23615185546875,-3.321336671568453,-0.9070072924017906,2.0259666059181094
1780625225002180900,6.246180908203125,-2.153934229661524,-0.648169893732667,1.9244795773431658
1780625225012209700,6.256209716796875,-2.1668916186511513,-1.045117539975047,2.05187933807075
1780625225022239700,6.26623974609375,-1.9974106657803057,-1.3171177870780229,2.0736109851464626
1780625225032268800,6.276268798828125,-2.1174565566137433,-1.2625339639753101,2.047265999056399
1780625225042297600,6.286297607421875,-2.055895295713842,-1.814443623870611,1.9199442720010875
1780625225052327700,6.29632763671875,-1.2667220633149145,-2.2555939844548702,1.606215883976221
1780625225062356700,6.306356689453125,-0.9465393845841288,-2.0192688618451355,1.5500143965438007
1780625225072385800,6.3163857421875,-0.36492578355968,-2.197950773781538,1.5090692226931453
1780625225082415600,6.32641552734375,0.5079781637102365,-2.4351427423536776,1.509511413502693
1780625225092444700,6.336444580078125,0.4513216259866953,-2.432020226418972,1.565797364348173
1780625225102473700,6.3464736328125,1.0462298851311207,-2.764361837238073,1.3422700562521814
1780625225112503800,6.35650390625,1.3497072205156087,-3.393087610310316,0.3519616725683212
1780625225122532600,6.36653271484375,1.3521201268762348,-3.356811012792587,-0.26353432431370016
1780625225132561700,6.376561767578125,1.6982514858558773,-3.1448131067097185,-0.6921414296671747
1780625225142591700,6.386591796875,1.8137062495067715,-3.20107743024528,-0.6721922820940613
1780625225152620800,6.396620849609375,2.1478329901769757,-2.1181004074752328,-0.7319196055650711
1780625225162649600,6.406649658203125,1.9587495112136004,-1.1637485955744982,-0.6019470717400313
1780625225172679700,6.4166796875,1.4399886722043156,-0.2795727281838655,-0.6807222100302577
1780625225182708700,6.426708740234375,0.971330419230461,0.11260405039489269,-0.6710241150975227
1780625225192737800,6.43673779296875,1.1312412874624131,0.05761866075396537,-0.66184390655905
1780625225202767600,6.446767578125,0.8454968849062919,-0.09811492179334164,-0.5603244370192288
1780625225212796700,6.456796630859375,-0.1946881671026349,-0.6825012024015188,-0.8909992836698889
1780625225222825700,6.46682568359375,-0.35710663424134254,-1.2360171284496784,-1.0474436448350548
1780625225232855800,6.476855712890625,0.18720248752236365,-1.4489906015664338,-1.1326640137419104
1780625225242884600,6.486884521484375,0.22215660426467657,-1.466468975111842,-1.1078925605788825
1780625225252913700,6.49691357421875,1.706878590556234,0.33770284559130664,-1.307221831485629
1780625225262943700,6.50694384765625,1.6961922152385114,1.3672621664285658,-1.2055185298115014
1780625225272972500,6.51697265625,1.6443714271083474,1.3719851032972334,-1.1781474155440925
1780625225283001600,6.527001708984375,0.1529474589601159,1.7047458163112401,0.32892712620049713
1780625225293031700,6.53703173828125,0.13519172977805136,1.7117320219367742,0.32238574173301454
1780625225303060700,6.547060791015625,-2.9309681114554405,-0.19522212784886359,3.4066645925030112
1780625225313089500,6.557089599609375,-3.103381026124954,-0.1751578294634819,4.463671307714283
1780625225323119600,6.56711962890625,-1.7042285144388674,1.1522948891460896,6.320949572443962
1780625225333149200,6.577149169921875,4.0219539608970285,3.456132387766242,8.538734342986345
1780625225343178200,6.58717822265625,4.1632837550386785,3.482415414535999,8.379253390604257
1780625225353208000,6.5972080078125,-0.5858665822938084,-0.1152957736968994,6.662588588440418
1780625225363237000,6.607237060546875,-4.255181409752368,-1.4678589681655168,4.018358274492622
1780625225373266200,6.61726611328125,-3.57649392042011,-1.9185937341749666,0.18584405865073203
1780625225383296300,6.627296142578125,-2.0288097203895448,-2.8905630358308554,-1.2255650002792478
1780625225393325000,6.637324951171875,-2.1018457305058837,-2.8719904373079537,-1.2299696649789809
1780625225403354000,6.64735400390625,-1.5116776516258716,-2.695107683748007,-1.8361939756467938
1780625225413384200,6.65738427734375,-1.6897078216552734,-1.3712147034466267,-1.2682222387447952
1780625225423413200,6.667413330078125,-2.4628292061805723,0.05880757827758789,-0.5219689874008298
1780625225433442000,6.677442138671875,-2.8163135582715273,1.3731412875950335,0.06963146236985922
1780625225443472100,6.68747216796875,-2.665182501083612,1.3518845645546913,0.04978752873688936
1780625225453501200,6.697501220703125,-2.7193606659948824,3.3141701409399507,0.5747925228327513
1780625225463530000,6.707530029296875,-2.2862930741012093,3.3324738593935965,0.652623366010189
1780625225473560000,6.71756005859375,-1.6105401769161223,2.4516987403571604,0.6280050575822591
1780625225483589000,6.727589111328125,-1.3715534338817,0.9406950424700975,0.5294441455870866
1780625225493618200,6.7376181640625,-1.309638829499483,0.9318097252249717,0.5320397150382399
1780625225503648000,6.74764794921875,-1.7168588634312152,-1.3859072456657886,0.9564484919190406
1780625225513677000,6.757677001953125,-1.6982547007262705,-1.3834201050251722,0.9451736491888761
1780625225523706000,6.7677060546875,-1.7516836547054349,-2.454094111061096,1.411886028791964
1780625225533736200,6.777736083984375,-1.7729191888272762,-2.120342048922181,1.2927192588806151
1780625225543765000,6.787764892578125,-1.779848111307621,-2.110399916100502,1.271068568086624
1780625225553794000,6.7977939453125,-1.4154782080650328,-0.8016121504724025,0.6194193078055977
1780625225563823000,6.807822998046875,-0.9182336198151111,-0.23478023125529288,0.30100013161599637
1780625225573853200,6.817853271484375,-0.3733341309428215,0.20121347721815108,0.056632864587008946
1780625225583882000,6.827882080078125,-0.37159108666777607,0.2058750392884016,0.04532645767480135
1780625225593911300,6.837911376953125,0.028449849414825437,0.36629473382532596,-0.26738427774012086
1780625225603941000,6.847941162109375,-0.035992666009813545,0.2658686124801636,-0.8644549756154417
1780625225613970000,6.857969970703125,-0.019074118304252624,0.26911095540225505,-0.8764350440055131
1780625225623999200,6.867999267578125,-0.5890813065566122,0.213477915507555,-0.2415790976151824
1780625225634029000,6.878029052734375,-0.7536042716939002,0.19235855511128902,0.36296646618545053
1780625225644058000,6.88805810546875,-0.7470164908014237,0.19954525174498558,0.3450026472106576
1780625225654087200,6.898087158203125,-1.0604596321441233,0.04338087656497955,1.0514069955080747
1780625225664117000,6.908116943359375,-1.1109645884353667,-0.2142097369134426,1.0130345947548747
1780625225674146000,6.91814599609375,-1.117551930936426,-0.4401467364996671,0.687476652726531
1780625225684175400,6.92817529296875,-1.1365829407513142,-0.43210605338513847,0.6744973441660403
1780625225694205000,6.938204833984375,-1.1297989796996115,-0.5265291349232196,0.3230363145962357
1780625225704234200,6.948234130859375,-0.839649547117576,-0.5817313821852207,-0.21080372786223886
1780625225714263300,6.95826318359375,-0.812922649037838,-0.2618769124954939,-0.44174949552118775
1780625225724293000,6.968293212890625,-0.5501039256475866,0.17709551952779293,-0.4687067682906985
1780625225734322200,6.978322265625,-0.43197555887326594,0.7125690084069967,-0.39871027200073
1780625225744351200,6.988351318359375,-0.4465618642389774,0.7226695466607809,-0.4165530949443578
1780625225754381000,6.998381103515625,-0.4360089060425758,1.1625298674345015,-0.3950876975893974
1780625225764410400,7.008410400390625,-1.1158253994047642,1.08974169459939,-0.28163404462784525
1780625225774439200,7.018439208984375,-1.2896493499159811,0.7037626016169786,-0.14519114574491976
1780625225784469200,7.02846923828125,-1.249439066211134,0.1889034462213516,-0.07112374675422907
1780625225794498300,7.038498291015625,-1.2710311586856842,0.19710604189932346,-0.08206424296349286
1780625225804527000,7.048527099609375,-1.179055616430193,-0.331892698007822,-0.3771560273185372
1780625225814557200,7.05855712890625,-1.2993525594152509,-0.4855062196612358,-0.5851669095918536
1780625225824586200,7.068586181640625,-1.3458409004762768,-0.4638771561771631,-0.8415370413646102
1780625225834615300,7.078615234375,-1.2362215649805963,-0.12054653383195399,-1.025596846947074
1780625225844645400,7.088645263671875,-1.2587037381626665,-0.11143617565929889,-1.0374459824338556
1780625225854674200,7.098674072265625,-1.0668751982748508,0.5315127685546874,-0.8764324136570095
1780625225864703200,7.108703125,-1.3769324965715408,0.923854966828227,-0.42476825784295796
1780625225874733300,7.1187333984375,-1.608786757377535,0.6879618058949708,-0.3902800050467253
1780625225884762000,7.12876220703125,-1.6271232090570031,0.2837088050752878,-0.3041276159867644
1780625225894791200,7.138791259765625,-1.6820903323888778,0.2939431988418102,-0.3053992433577776
1780625225904821200,7.1488212890625,-1.3667103777647018,-0.43822541304826734,0.10139759672582149
1780625225914850300,7.158850341796875,-1.4034918560646474,-0.5170832611858844,-0.11097440336644648
1780625225924879000,7.168879150390625,-1.4509366210676728,-0.5081126037448644,-0.11059183378964661
1780625225934909200,7.1789091796875,-1.4932276565693319,-0.3858960908740759,-1.0606173069238662
1780625225944938200,7.188938232421875,-1.5506478721417485,-0.37679450052976604,-1.055179207523167
1780625225954967300,7.19896728515625,-1.534823257152736,0.4525520445644855,-0.8192313937932253
1780625225964997000,7.2089970703125,-1.0265019790932535,1.2792109580099582,0.06318360140472651
1780625225975026200,7.219026123046875,-0.13000965096503495,1.8594062166690826,0.7255798811495303
1780625225985055200,7.22905517578125,0.5149687532499432,1.884297496819496,0.47175154281407594
1780625225995085300,7.239085205078125,0.47724034948870536,1.8871762671262025,0.48436727875918145
1780625226005114000,7.249114013671875,-0.2968877278611064,0.40825171506702895,-0.6695443979337811
1780625226015143200,7.25914306640625,0.4135565434768796,-0.18969138172864913,-0.17429478289335965
1780625226025173200,7.26917333984375,1.4835180173292755,-0.28907588506639004,0.5497092272415757
1780625226035202300,7.279202392578125,1.9127283492729066,-0.30536124943494797,1.1348901653587817
1780625226045231000,7.289231201171875,1.8623492843836544,-0.2917816368937492,1.1354495528072117
1780625226055261200,7.29926123046875,1.7100817705117166,-0.5144815542548895,1.8466291526824234
1780625226065290200,7.309290283203125,1.4963263532370328,-1.0133183801323176,1.8715116650044916
1780625226075319000,7.319319091796875,1.3568208519130944,-1.2449357634425162,1.797011719815433
1780625226085349000,7.32934912109375,1.343020582358539,-1.466299463763833,1.7923779225349425
1780625226095378200,7.339378173828125,1.3026511625692248,-1.4591934311509132,1.8025366207167506
1780625226105407200,7.3494072265625,1.315058516460657,-1.7106091553866862,1.7721008581817148
1780625226115437300,7.359437255859375,1.2802113672241568,-1.4419623103648422,1.4957108516871929
1780625226125466000,7.369466064453125,1.2532584783688188,-0.915141499018669,1.0213473728090523
1780625226135495200,7.3794951171875,1.1174752124384044,-0.4832201545506716,0.4358461166962981
1780625226145525200,7.389525146484375,1.1049027311131356,-0.4847252984166145,0.44731092904061076
1780625226155554000,7.399553955078125,0.7550675491794944,0.11063596519231796,-0.6749293058425188
1780625226165583000,7.4095830078125,0.7561439462393522,0.1041986256211996,-0.6621802989065647
1780625226175613200,7.41961328125,0.47504093974828715,0.19930618229210376,-1.2747320590302347
1780625226185642200,7.429642333984375,0.5286202619835734,0.19786416679024696,-1.3550561803281307
1780625226195671000,7.439671142578125,0.5110416429340839,0.19250936175882816,-1.3316691672608256
1780625226205701000,7.449701171875,0.8968556084826588,0.18214812674224376,-1.0299453975453972
1780625226215730200,7.459730224609375,1.0421624895617365,0.11829495551288127,-0.771333039803803
1780625226225759200,7.46975927734375,1.08414665107131,-0.002477203768491745,-0.6429375460371375
1780625226235789000,7.4797890625,1.0679778988197446,-0.006031096857786179,-0.6235510007828474
1780625226245818000,7.489818115234375,1.166518644809723,-0.16519465385377405,-0.6581973667502403
1780625226255847200,7.49984716796875,1.0290776748001575,-0.3432756772875786,-0.9378756011351942
1780625226265877200,7.509877197265625,0.8492813718810677,-0.3743739953845739,-0.9966671050608158
1780625226275906000,7.519906005859375,0.6375105525523423,-0.3764695063591003,-0.9624527007699012
1780625226285935000,7.52993505859375,0.6465776561051607,-0.38538404969871043,-0.9492281852766871
1780625226295965200,7.539965087890625,0.47468350461274383,-0.4559890332758426,-0.8057873903304338
1780625226305994200,7.549994140625,0.26424627197533845,-0.6752361798346043,-0.23278905743807554
1780625226316023000,7.56002294921875,0.28285949476957317,-0.7495242358386516,0.11169687242209911
1780625226326052600,7.570052490234375,0.41711949665546416,-0.7732417960345744,0.47290012832731004
1780625226336081400,7.580081298828125,0.4110691105753183,-0.7719757216215133,0.4744970421299338
1780625226346110500,7.5901103515625,0.6961389748707413,-0.7872288203328848,0.7790048896059394
1780625226356140500,7.600140625,1.3343851482212543,-1.1012877554863691,1.091191016624868
1780625226366169600,7.610169677734375,1.363390001170337,-1.1131634867191313,0.9884230083286761
1780625226376198700,7.62019873046875,1.1597940127298236,-0.8422095337986946,0.6780532830819487
1780625226386228500,7.630228515625,0.8399696459174155,-0.579580341631174,0.3595487666964531
1780625226396257500,7.640257568359375,0.8450406655713916,-0.5835013144671917,0.36459289834350345
1780625226406286600,7.65028662109375,0.6160325879767536,-0.4153495643734932,0.10482640213072299
1780625226416316400,7.66031640625,0.38679362423568964,-0.21897885101139544,-0.4840367316305637
1780625226426345500,7.670345458984375,0.3053463441267609,-0.1532540406912565,-0.7586977223753929
1780625226436374800,7.680374755859375,0.26366701078265903,-0.03863689690828323,-1.015387879882753
1780625226446403600,7.690403564453125,0.28767098670452834,-0.05028232651650905,-1.0063140543282032
1780625226456433400,7.700433349609375,0.2175555402100086,0.09774784204661846,-1.2517659017235039
1780625226466462700,7.710462646484375,0.15133096367418766,-0.0390916549384594,-1.1510285224720835
1780625226476491800,7.72049169921875,0.16900544431358575,-0.043431729969382285,-1.153713231511414
1780625226486521600,7.730521484375,0.2685316942095756,-0.2926578352063894,-0.6057198682770133
1780625226496550700,7.740550537109375,0.27860066828131674,-0.2923755111336708,-0.6135001468896866
1780625226506579700,7.750579833984375,0.472697006970644,-0.2927157028734684,-0.3067240622207522
1780625226516609800,7.76060986328125,0.859547622090578,-0.33539749125838275,0.2190568846836686
1780625226526638600,7.770638671875,1.0724424770131706,-0.5072177007317543,0.4157169363811612
1780625226536667600,7.780667724609375,1.1829077618137,-0.7123036354690789,0.5254553682118654
1780625226546697700,7.79069775390625,1.1811407521411776,-0.7070283254146575,0.5147422510176897
1780625226556726500,7.8007265625,1.1985174188777803,-0.873112037062645,0.5717191067367792
1780625226566755600,7.810755615234375,1.2676917851299048,-0.7650824549764395,0.5076923325061797
1780625226576785700,7.82078564453125,1.2572110153868794,-0.7593044560968876,0.5019996738225221
1780625226586814700,7.830814697265625,1.3604708988532423,-0.28732758009433745,0.2781029478922486
1780625226596843500,7.840843505859375,1.340959850436449,-0.2797966000676155,0.2749278249874711
1780625226606873600,7.85087353515625,0.930854324196279,0.1454986042588949,-0.20469430507123468
1780625226616902700,7.860902587890625,0.6122437170878052,0.42120121301114555,-0.39666502990871666
1780625226626931700,7.870931640625,0.26579817759245633,0.6018909576386213,-0.5604197140872478
1780625226636961500,7.88096142578125,-0.01820025807917118,0.617649083262682,-0.6802686210438609
1780625226646990600,7.890990478515625,-0.028165479515492916,0.6173287652671337,-0.6723062638625502
1780625226657019600,7.90101953125,0.012613105596601962,0.5904167929440737,-0.4386857240363955
1780625226667049700,7.9110498046875,0.24079233115166424,0.6354238094061613,-0.14085107071399688
1780625226677078500,7.92107861328125,0.46977527430504556,0.6263835938602685,0.2363818212330341
1780625226687107600,7.931107666015625,0.6590928542852401,0.579530072748661,0.537172109490633
1780625226697137700,7.9411376953125,0.6243257845476269,0.593579056367278,0.53191842674613
1780625226707166700,7.951166748046875,0.8782239732488989,0.45448096680045125,0.7528183089479804
1780625226717195500,7.961195556640625,0.8168532664850354,0.4781774842083454,0.7477931742623448
1780625226727225600,7.9712255859375,0.5337462266951799,0.28588088841736314,0.6471203846797347
1780625226737254700,7.981254638671875,0.4340133483111858,0.13147183247208594,0.5143196416914463
1780625226747283500,7.991283447265625,0.3377659739553928,0.16834873397052286,0.5140370253577828
1780625226757313500,8.0013134765625,0.3141282009974122,-0.057197220471501345,0.28682489126920696
1780625226767342600,8.011342529296876,0.09439151735603808,-0.2312631630450487,0.2167252268657088
1780625226777371600,8.02137158203125,-0.1731926668703556,-0.6033399874031543,0.034820845751464366
1780625226787401700,8.031401611328125,-0.2586079738274217,-0.5590519328653812,0.01979191118478775
1780625226797430500,8.041430419921875,-0.5514771136969328,-1.115469425573945,-0.2734264805138111
1780625226807459600,8.05145947265625,-1.0894745680958031,-2.1446815404087305,-0.7784399491995573
1780625226817489700,8.06148974609375,-1.1297469572514296,-2.124860987651348,-0.7807561171874403
1780625226827518500,8.0715185546875,-1.00570439799726,-1.995403417611122,-1.0659434703826904
1780625226837547500,8.081547607421875,-0.22501813117563724,-1.5291922655284405,-0.8101721812859177
1780625226847577600,8.09157763671875,-0.20019114843308924,-1.5498247191905974,-0.7911091688975691
1780625226857606700,8.101606689453124,0.9988935489386319,-0.6097808341056108,-0.7235267480120062
1780625226867635500,8.111635498046875,1.0180962620586156,-0.24727146403789518,-1.040391388235986
1780625226877665500,8.12166552734375,0.6718082512125373,-0.10254968937039374,-1.3616510485485196
1780625226887694600,8.131694580078126,0.7657762824594974,-0.14458908819854258,-1.3581062155485153
1780625226897723600,8.1417236328125,0.20206103395819663,-0.2181225264430046,-1.667339630241692
1780625226907753500,8.15175341796875,-0.5476873660251498,-0.23718203170001506,-1.9135981178447603
1780625226917782500,8.161782470703125,-0.45734249371141195,-0.15379296987354754,-1.7764464861705898
1780625226927811600,8.1718115234375,-0.13046528577804564,-0.09751870946586132,-1.5554741232544183
1780625226937841700,8.181841552734374,0.30876638170331716,-0.05866670850217342,-1.4101900385290382
1780625226947870500,8.191870361328125,0.4278709000334143,-0.10033084427714348,-1.4067343451172112
1780625226957899500,8.2018994140625,0.805688313870132,-0.06719780548214913,-1.3260615565121172
1780625226967929600,8.2119296875,1.5886825653731822,0.2694382876604795,-1.162131808027625
1780625226977958700,8.221958740234374,1.6981567933097481,0.5074275440901518,-0.9170590230777859
1780625226987987500,8.231987548828124,1.7511314276501535,0.4877314944952726,-0.9073077366530895
1780625226998017500,8.242017578125,1.5297390857562423,0.690421474006772,-0.5177104531735182
1780625227008046600,8.252046630859375,1.3399664554849267,1.6628864502251148,0.49462446887940165
1780625227018075400,8.262075439453126,1.403066470259428,2.03742586530447,1.1542743725255131
1780625227028105500,8.27210546875,0.778421829020977,1.3955401664078235,1.8534274345204234
1780625227038134500,8.282134521484375,0.5134326297238468,0.39496027181744575,2.256866488608718
1780625227048163600,8.29216357421875,0.5309390603199601,0.3914735987454653,2.2539912254333494
1780625227058193700,8.302193603515626,1.6092378621459007,-0.6976847430080175,2.344289628256857
1780625227068222500,8.312222412109374,2.4333389078021046,-1.2960323289513587,1.0682073236614464
1780625227078251500,8.32225146484375,0.5776720237918198,-0.8683534443587064,0.05540156922638416
1780625227088280600,8.332280517578125,-0.60967518177405,-0.5529466017276048,-0.481898842819035
1780625227098310400,8.342310302734376,-0.6121323656678199,-0.5670289030939341,-0.4468614317074418
1780625227108339500,8.35233935546875,-0.8785024979293345,0.034676176583766934,-0.723364835448563
1780625227118368500,8.362368408203125,-0.6655529902100563,0.40836628135740755,-0.6154200090363622
1780625227128398600,8.372398681640625,-0.6153590726293623,0.3752285663872957,-0.566044275970757
1780625227138427400,8.382427490234376,0.1677447767280042,0.8391472236186266,-0.5836310783267021
1780625227148456400,8.39245654296875,0.21601503276973963,0.8100900559604167,-0.5401189765974879
1780625227158486500,8.402486572265625,0.4498939312711358,0.45114451585412024,0.1130173073709011
1780625227168515600,8.412515625,-0.05882832880467176,0.04378478119075298,0.5064493467077612
1780625227178544600,8.422544677734376,-0.5084488499619066,-0.1578209102153778,0.8150392028003931
1780625227188574500,8.432574462890624,-0.7904431062042713,-0.2519423784583807,0.9903887554436922
1780625227198603500,8.442603515625,-0.782164814941585,-0.26202888818681236,1.0124790066987275
1780625227208632600,8.452632568359375,-0.7582239673838019,-0.5203624289870262,1.2229212077721954
1780625227218662400,8.462662353515626,-0.7136191019818187,-0.649257104447484,1.236510172663629
1780625227228691500,8.47269140625,-0.7149167405769229,-0.6572013414502144,1.2593380905434488
1780625227238720800,8.482720703125,-0.7575801165223122,-0.5679080240160227,0.898720233310759
1780625227248750600,8.49275048828125,-0.7590136564567684,-0.577180294752121,0.9257762902796268
1780625227258779600,8.502779541015625,-1.1916254674069582,-0.12334931629300117,0.064963762819767
1780625227268808700,8.51280859375,-1.182457533828169,0.048662616360187524,-0.22634148873388765
1780625227278838500,8.522838623046875,-1.0206957770325242,0.13745090688169,-0.28233196376413106
1780625227288867600,8.53286767578125,-1.0106967994570732,0.12464870845377445,-0.2513306763008237
1780625227298896600,8.542896728515625,-0.8629752584517002,0.09787468329668045,-0.18778116419315338
1780625227308926500,8.552926513671874,-0.817922649282217,0.1399310332596302,0.0013049451187252998
1780625227318955800,8.562955810546875,-0.8668870250679552,0.1736801581263542,0.10507073228061199
1780625227328985600,8.572985595703125,-0.8800868445113301,0.15236322933137417,0.22422698079794645
1780625227339015400,8.583015380859376,-0.755609108710289,0.03856383167207241,0.39619185943901536
1780625227349044500,8.59304443359375,-0.750032769882679,0.03483399749398231,0.40385581819564104
1780625227359073500,8.603073486328125,-0.6018012335285544,-0.08936404458284378,0.6037573360323906
1780625227369103600,8.613103515625,-0.5941035186327993,-0.09307049788534641,0.6099857090279459
1780625227379132400,8.62313232421875,-0.4827928690493107,-0.19204466685652732,0.5034644856780767
1780625227389161500,8.633161376953124,-0.5631520616605877,-0.2694949862837791,0.4160632656008005
1780625227399191600,8.643191650390625,-0.5455211279019713,-0.2746241658657789,0.42024201259016986
1780625227409220400,8.653220458984375,-0.6126186878800391,-0.18712533063292502,0.3182227768346667
1780625227419249400,8.66324951171875,-0.2668853883072734,-0.053366848528385157,0.3006917963191867
1780625227429279500,8.673279541015624,-0.09837240368574857,0.06675356884598732,0.295963306492567
1780625227439308500,8.68330859375,-0.09394172776192426,0.08321721239089966,0.30227818872779605
1780625227449337600,8.693337646484375,-0.08434037120193243,0.08032967425584793,0.30509733780175446
1780625227459367400,8.703367431640626,-0.033292174879461525,0.09725509009361266,0.31878333332687614
1780625227469396500,8.713396484375,-0.02492839729040861,0.09571253682672977,0.31824323510080577
1780625227479425800,8.72342578125,-0.1428001589551568,0.05603285286724567,0.3539578148216009
1780625227489455400,8.733455322265625,-0.2509399234175682,0.051699207577109337,0.3393368765339255
1780625227499484400,8.743484375,-0.24062311206459996,0.04970481888949871,0.33906244350671766
1780625227509513700,8.753513671875,-0.5382616582930088,-0.08425999944210052,0.32058541431277987
1780625227519543600,8.76354345703125,-0.44205973051413894,-0.14672083953022955,0.28573972638100387
1780625227529572600,8.773572509765625,-0.33182620864287016,-0.1891442692399025,0.27856822731643915
1780625227539601700,8.7836015625,-0.326583924075216,-0.19105390225350855,0.2813108040228486
1780625227549631500,8.793631591796874,-0.3052199412681162,-0.172744338580966,0.2681459097623825
1780625227559660800,8.803660888671875,-0.08356558743715285,-0.08512626088261604,0.2775014748677611
1780625227569689600,8.813689697265625,-0.028296850810199975,-0.07964753721058368,0.32221681490689513
1780625227579719400,8.823719482421875,-0.029054391179233786,-0.10354337658286095,0.37095132745951415
1780625227589748700,8.833748779296876,-0.05192191041707992,-0.1924333739131689,0.4331505940020084
1780625227599777500,8.843777587890624,-0.04319733669161796,-0.1940624364197254,0.43297816004455086
1780625227609806600,8.853806640625,-0.003013940993696451,-0.2536491823762655,0.5103019304826856
1780625227619836700,8.863836669921875,-0.02472425302043557,-0.21400398520827293,0.5246384988710284
1780625227629865700,8.87386572265625,-0.048224078812450166,-0.1362058752566576,0.3750450265139341
1780625227639894500,8.88389453125,-0.10710676815286278,-0.06572422579824924,0.15876228271871803
1780625227649924600,8.893924560546875,-0.10074249381795525,-0.06692717184722423,0.15877777254879474
1780625227659953700,8.90395361328125,-0.15663900695443153,-0.0936807387381792,0.010276187081634998
1780625227669982700,8.913982666015626,-0.07299056353941559,-0.10879413671791553,-0.016221651482582092
1780625227680012500,8.924012451171874,0.004996346982568502,-0.07525017903447151,0.04568038567900658
1780625227690041600,8.93404150390625,-0.008122662309557199,-0.10074760838449001,0.12910101168751717
1780625227700070700,8.944070556640625,-0.0034242753602564333,-0.10200140783786774,0.13030717260688543
1780625227710100700,8.954100830078126,-0.08808189581781625,-0.15686989310085772,0.17693828313946722
1780625227720129500,8.964129638671874,-0.12745762839466332,-0.2575140411108732,0.2959229744821787
1780625227730158600,8.97415869140625,-0.09721052029952407,-0.3100093675017357,0.29162440050542354
1780625227740188700,8.984188720703125,-0.07123685173988342,-0.3217249397367239,0.24781039322018622
1780625227750217700,8.9942177734375,-0.06589797492995858,-0.3228916454285383,0.24842297216057777
1780625227760246500,9.00424658203125,0.02162248761281371,-0.260990777310729,0.1683677309319377
1780625227770276600,9.014276611328125,0.048133039528131485,-0.29329613310992714,0.11843874789774417
1780625227780305700,9.0243056640625,0.05092836933508515,-0.294016264078021,0.11912293076962231
1780625227790334500,9.03433447265625,0.011532616883516311,-0.2783756273537874,0.08981997165679931
1780625227800364500,9.044364501953124,0.014746318233013152,-0.279224937659502,0.09067834205180406
1780625227810393600,9.0543935546875,-0.150204736123234,-0.07481120309531689,0.18038550098389386
1780625227820422700,9.064422607421875,-0.18657456488236784,0.023068740898370743,0.16825959438234567
1780625227830452700,9.07445263671875,-0.13268281569704413,0.07539747855067253,0.07468056245297193
1780625227840481500,9.0844814453125,-0.1133352872788906,0.07626724712252617,-0.022794892393052577
1780625227850510600,9.094510498046875,-0.11122516325712203,0.07500058818757534,-0.01995470053106546
1780625227860540700,9.104540771484375,0.1532851664818823,-0.027084990802407262,-0.01133095683157444
1780625227870569500,9.114569580078125,0.1820950813807547,-0.15697335347533226,0.023632804521918297
1780625227880598500,9.1245986328125,0.18307006389275193,-0.15788053144812583,0.025979952169954777
1780625227890628600,9.134628662109375,-0.06355842606648802,-0.36030396897792816,0.18973668217509984
1780625227900657700,9.14465771484375,-0.061142158704996105,-0.36163141818940636,0.19261486795991659
1780625227910686500,9.1546865234375,-0.16487389746680856,-0.35899463994503017,0.23756255545020102
1780625227920716500,9.164716552734374,-0.10821589843854308,-0.29584581759274003,0.2016983381256461
1780625227930745600,9.17474560546875,-0.008811082965135573,-0.19186638768017292,0.16226795275211334
1780625227940774700,9.184774658203125,0.14457447515130042,-0.12160451845228672,0.1763297958523035
1780625227950804500,9.194804443359375,0.1465313083074987,-0.12262801628112792,0.17852292198240757
1780625227960833500,9.20483349609375,0.13951499980464577,0.0033200843334197996,0.11750672774463891
1780625227970862600,9.214862548828124,0.040599721413850785,-0.037460838866233824,0.08240852635651827
1780625227980892700,9.224892578125,-0.04099485821127891,-0.1361269648015499,0.09241144945472478
1780625227990921500,9.23492138671875,-0.07958046332374215,-0.20516133806109427,0.057797816713154315
1780625228000950500,9.244950439453126,-0.08136310895681381,-0.20672610315978526,0.06387596758306026
1780625228010980600,9.254980712890625,0.18112798991426823,-0.20357085399925706,0.061090428517758845
1780625228021009700,9.265009765625,0.17792597900256513,-0.20511749891936779,0.06795213098078966
1780625228031038500,9.27503857421875,0.5441572922028601,0.08424597091674804,-0.08461801909953355
1780625228041068500,9.285068603515626,0.33338892791494723,0.13918226071894169,-0.10702712704539298
1780625228051097600,9.29509765625,0.33201778569221496,0.13781564854085446,-0.10176204612404108
1780625228061126400,9.30512646484375,-0.08101122677922248,-0.01876373718082905,0.0447401822194457
1780625228071156500,9.315156494140625,-0.14636413504704832,-0.05980126549005508,0.21101444800347088
1780625228081185500,9.325185546875,-0.1162814237333834,-0.10176935264766215,0.3452005078703165
1780625228091214600,9.335214599609374,-0.11825360058918595,-0.10339607706665992,0.35171968050599095
1780625228101244700,9.34524462890625,-0.007107640048116445,-0.21395196276009082,0.4128381660744548
1780625228111273500,9.3552734375,0.1660530242487788,-0.16197393824160097,0.33642537300139663
1780625228121302500,9.365302490234376,0.16635712176188824,-0.1643564494639635,0.3441732106491923
1780625228131331600,9.37533154296875,0.0783960758447647,-0.14250760574936866,-0.03211275583654642
1780625228141361400,9.385361328125,0.07901318482980131,-0.06820376765429974,-0.17100275561064482
1780625228151390500,9.395390380859375,0.08114113676920533,-0.07203413959741592,-0.15937398487627505
1780625228161419500,9.40541943359375,0.23825901328176258,0.35409926911890505,-0.2895657144099474
1780625228171449600,9.41544970703125,0.18430208990573882,0.35324586715996265,-0.3196040020599961
1780625228181478400,9.425478515625,0.07794497107639908,0.10351765761971474,-0.24741584094464777
1780625228191507500,9.435507568359375,0.079830638692528,0.10137304680645465,-0.2412172785654664
1780625228201537500,9.44553759765625,0.08058233384266496,-0.166718502420187,-0.06331161169856786
1780625228211566600,9.455566650390624,0.1332300743162632,-0.2651993349164724,0.16304565912634134
1780625228221595600,9.465595703125,0.00472892821803689,-0.24407646738886832,0.13287263918071984
1780625228231625500,9.47562548828125,-0.12021876318231224,-0.22731822481155395,0.14987287382036446
1780625228241654500,9.485654541015625,-0.13552125399336218,-0.23944296236932278,0.0846048673570156
1780625228251683600,9.49568359375,-0.1318367202617228,-0.2428881343871355,0.09436141447871924
1780625228261713400,9.50571337890625,-0.20564049988016486,-0.2498410222649574,0.06792465845197439
1780625228271742500,9.515742431640625,-0.005751841524988413,-0.27272213163673875,-0.03402881859093904
1780625228281771800,9.525771728515625,0.06638400488123297,-0.14434241996109484,-0.06616290947645902
1780625228291801600,9.535801513671874,0.06766542299389838,-0.0478185667514801,-0.051259354855120176
1780625228301830700,9.54583056640625,0.06843947610631584,-0.04975917942523956,-0.04485884016305208
1780625228311859700,9.555859619140625,-0.051302171083539724,-0.06157762751281261,-0.031055063477158546
1780625228321889500,9.5658896484375,-0.029533406867831943,0.0013414777368307112,0.020680968979001044
1780625228331918600,9.575918701171876,-0.03092690705284476,-0.0002969371199607849,0.027392449316382406
1780625228341948000,9.585947998046874,0.2120845614530146,0.09269991100728511,0.07205927403867245
1780625228351977500,9.5959775390625,0.2084194630742073,0.09106324971616267,0.08021978414058685
1780625228362006800,9.6060068359375,0.19928236302509902,-0.02448971361219883,-0.1022442766830325
1780625228372035800,9.616035888671876,-0.060839230235666036,-0.08907236815989017,-0.1580038655668497
1780625228382065700,9.626065673828125,-0.22068083262369034,-0.058196752902865405,-0.13980857592374085
1780625228392094700,9.6360947265625,-0.277542683660984,0.06982523137629032,-0.025242285545170304
1780625228402123800,9.646123779296875,-0.2726912981070578,0.0668067603379488,-0.01727700575441122
1780625228412153600,9.656153564453126,-0.08342077213898301,-0.19756664514839647,0.026440555419027803
1780625228422183000,9.666182861328124,0.14163666813373565,-0.14361585925221443,-0.040214813749492165
1780625228432211700,9.676211669921875,0.13989683872908354,-0.14577216050326824,-0.031154432198405264
1780625228442241800,9.68624169921875,0.17956278642416,-0.01923427730202675,-0.034492928971350194
1780625228452270800,9.696270751953126,0.17719430372714995,-0.02091068608164787,-0.026744214540719985
1780625228462299600,9.706299560546874,0.10164499561563134,-0.02940086652934551,0.040078035627305504
1780625228472329700,9.716329833984375,0.2257807861112058,-0.07810966011881827,-0.04650134667307138
1780625228482358800,9.72635888671875,0.24978330072835087,-0.10870587391257286,-0.2021756002485752
1780625228492387800,9.736387939453126,0.25708193330392237,-0.07002864499390125,-0.23438626350164413
1780625228502418000,9.74641796875,0.25448665611371396,-0.07130757888853549,-0.22787176704108714
1780625228512446700,9.75644677734375,0.014819821860641241,-0.13547522289454936,-0.1848190995171666
1780625228522475800,9.766475830078125,-0.10444120220541954,-0.09889292042851447,-0.1404091721653938
1780625228532504800,9.7765048828125,-0.2710850319541991,-0.041432080584764476,-0.12721738989800213
1780625228542534700,9.78653466796875,-0.32629911578446624,-0.009584405425190925,-0.1380591019079089
1780625228552563700,9.796563720703125,-0.3235679372549057,-0.012522212442755698,-0.12862038856372238
1780625228562592800,9.8065927734375,-0.07545476169586181,0.1925070236712694,-0.151260382656008
1780625228572622800,9.816622802734376,-0.009147767573595046,0.12304770299792289,-0.2147606487944722
1780625228582651600,9.826651611328124,0.01285349022373557,0.07129647297263145,-0.18712956841662526
1780625228592680700,9.8366806640625,-0.018706015644222498,-0.042428690406680104,-0.17493936440721153
1780625228602710800,9.846710693359375,-0.017829378940165043,-0.044967853495478625,-0.1655959281310439
1780625228612739800,9.85673974609375,0.07783142769932747,-0.1085252566486597,-0.038743133761733765
1780625228622768600,9.8667685546875,0.07956292766705154,-0.06315174496173859,0.008511953888088465
1780625228632798700,9.876798828125,-0.054482262424379584,-0.11378770722150802,-0.02606646140962839
1780625228642827800,9.886827880859375,-0.18362053738236425,-0.02503331896960735,0.025728753887861965
1780625228652856600,9.896856689453125,-0.18067688514590263,-0.02763619494438171,0.03408946273699403
1780625228662886700,9.90688671875,-0.20612813726663587,0.046400516647100445,0.00043254619836807247
1780625228672915700,9.916915771484375,-0.2056441531419754,0.043866614255309105,0.010284954909980297
1780625228682944800,9.92694482421875,-0.17726196213588116,-0.003208440652489662,-0.14782646268457172
1780625228692974800,9.936974853515625,-0.09789587221518159,-0.004932195705175399,-0.1736070928901434
1780625228703003600,9.947003662109376,-0.1006185751773417,-0.006954641443490982,-0.1634558473624289
1780625228713032700,9.95703271484375,0.08968436257839202,0.09789280347526073,-0.14598668003678322
1780625228723062800,9.967062744140625,0.11541662359759211,0.12421090155839919,-0.15182459241002796
1780625228733091600,9.977091552734375,-0.07050751455202699,0.07927987294197082,-0.07758549011424183
1780625228743120600,9.98712060546875,-0.06918152664527297,0.07788111205995082,-0.07274637951999903
1780625228753150700,9.997150634765624,-0.18563260785713792,0.07984802821874618,0.0919585911206901
1780625228763179800,10.0071796875,-0.1510882409594953,-0.016804419806599614,0.1741939528673887
1780625228773208600,10.01720849609375,-0.15009221565946937,-0.018165186765789983,0.1791476297520101
1780625228783238700,10.02723876953125,-0.19442951616644857,-0.14383271687328814,0.23561770499274134
1780625228793267700,10.037267822265624,-0.12721052176579833,-0.15270225202739238,0.12344576240479946
1780625228803296800,10.047296875,-0.1257609074793756,-0.15434475853741167,0.1292958036072552
1780625228813326600,10.05732666015625,-0.14293299155458808,-0.02796118911504745,-0.00006824293062090873
1780625228823355600,10.067355712890626,-0.09242109406590461,-0.05866963111162185,-0.037489480438828465
1780625228833384700,10.077384765625,-0.03777048933729529,-0.08381284019649028,-0.04379018801823258
1780625228843414800,10.087414794921875,-0.03829451321139932,-0.08438684069216251,-0.04098068355545401
1780625228853443600,10.097443603515625,-0.03532382683753967,-0.09915537075698375,-0.04981251704767346
1780625228863472600,10.10747265625,-0.09057619685158133,-0.00940554172694683,-0.02436827918961644
1780625228873502700,10.117502685546874,-0.007497223887592554,0.0026040450185537338,0.010154898789525031
1780625228883531800,10.12753173828125,0.00042319384813308713,-0.05488485187590122,0.00957066916078329
1780625228893560600,10.137560546875,-0.07823255584612489,-0.11726736603081225,-0.011645867999643086
1780625228903590700,10.147590576171876,0.008368015372753142,-0.13754910655915736,-0.0821292710237205
1780625228913619700,10.15761962890625,0.009494827445596456,-0.13788812925517557,-0.08151070073395968
1780625228923648500,10.1676484375,0.03299742971658706,-0.06287818871736527,-0.14511150463744998
1780625228933678600,10.1776787109375,-0.00838905816078186,-0.030729484784603116,-0.11010331962034106
1780625228943707600,10.187707763671876,-0.01221869945153594,-0.04621639225184917,-0.08737667015790938
1780625228953736700,10.19773681640625,-0.011426233899593352,-0.04628010513782501,-0.08768076767101883
1780625228963766800,10.207766845703125,-0.16565701066851615,-0.23411153821349143,-0.05115370252355933
1780625228973795600,10.217795654296875,-0.1816448533952236,-0.1922024877667427,0.022296879743039608
1780625228983824600,10.22782470703125,-0.18255787658691405,-0.19221710081398485,0.023020371711999176
1780625228993853700,10.237853759765626,-0.18793416279777883,-0.1535457171142101,0.003307955504208803
1780625229003883500,10.247883544921875,-0.19022709604054688,-0.1535544849425554,0.005013736508786678
1780625229013912600,10.25791259765625,-0.06590937310680747,-0.07922142075300216,-0.04507730521932244
1780625229023941600,10.267941650390625,0.12253551569208503,0.011771686336398125,-0.16308087657019496
1780625229033971700,10.2779716796875,0.07145093288198114,-0.041402269968390464,-0.1922705845668912
1780625229044000500,10.28800048828125,-0.01880757632255554,-0.027779987329244613,-0.13466960560008884
1780625229054029800,10.29802978515625,-0.017872341299057005,-0.02730652459859848,-0.13737258094847202
1780625229064059600,10.3080595703125,-0.13168576748371125,0.015868600261211393,0.012692746704071759
1780625229074088700,10.318088623046876,-0.20670900589451194,-0.03902034326791763,0.04234963382109999
1780625229084117800,10.32811767578125,-0.20458748369589447,-0.038920390024781225,0.040386224793642754
1780625229094147600,10.338147705078125,-0.07198021745309233,-0.08259411205649375,-0.03666252809539437
1780625229104176600,10.3481767578125,-0.07240107321366668,-0.0823480283409357,-0.03739946406781673
1780625229114205700,10.358205810546876,0.27048502023443577,0.041133389899134634,-0.21099135938882826
1780625229124235500,10.368235595703124,0.20839958932995795,0.07600304322838783,-0.3221577781960368
1780625229134264800,10.378264892578125,0.1527848157443106,0.10203472558557987,-0.30221476810276504
1780625229144294000,10.3882939453125,0.11074936243891716,0.11982874095141886,-0.21313757763728497
1780625229154323700,10.39832373046875,0.11444120269417762,0.11997311785817145,-0.21641820674315093
1780625229164352800,10.408352783203124,-0.16831906948462128,0.06556406680047512,-0.015561287877708673
1780625229174381800,10.4183818359375,-0.2967313682556152,-0.035410336077213285,0.034345191063731906
1780625229184411600,10.42841162109375,-0.33582536128163337,-0.13092355093955993,-0.02441270285323262
1780625229194440700,10.438440673828126,-0.2814708168901503,-0.17573066091537476,-0.10281038613319396
1780625229204469800,10.4484697265625,-0.2784885862089693,-0.17607435978651045,-0.10347542591318487
1780625229214499600,10.45849951171875,0.03597133096083999,-0.015849311038851736,-0.24445903696566817
1780625229224529000,10.46852880859375,0.08199789972901343,-0.011057400587201118,-0.29504399969056244
1780625229234557700,10.4785576171875,0.07011559262499213,0.03358312065005302,-0.2907908722907305
1780625229244587800,10.488587890625,-0.07871756288409233,0.11589198602437972,-0.28224019382745025
1780625229254616800,10.498616943359375,-0.07134089663624762,0.11519698949754237,-0.28447409035935994
1780625229264646000,10.50864599609375,-0.08054828544259071,0.05710720410048961,-0.30699235776811834
1780625229274675700,10.51867578125,-0.11935133269801736,0.04092939175963402,-0.2744315659031272
1780625229284704800,10.528704833984374,-0.17772139634117484,0.03145546097159385,-0.2378762975744903
1780625229294733800,10.53873388671875,-0.1323335638679564,-0.04242752136290073,-0.21739318925514817
1780625229304764000,10.548763916015625,-0.12764321409463883,-0.042271454018354415,-0.2212212231107056
1780625229314792700,10.558792724609376,-0.07149506428465247,-0.11864274603724478,-0.1667449520356953
1780625229324821800,10.56882177734375,-0.07237769233807921,-0.11775836441814899,-0.1698164684355259
1780625229334851000,10.57885107421875,-0.14924495118036865,-0.034414310777187346,-0.10717632625773549
1780625229344879900,10.5888798828125,-0.2602348443768918,-0.02232464453279972,-0.1067234679237008
1780625229354909000,10.598908935546875,-0.2639398363746703,-0.021089549779891966,-0.10931742993965744
1780625229364939000,10.60893896484375,-0.18718495186567305,0.01619768608510494,-0.09078837829753755
1780625229374967800,10.6189677734375,-0.20874197302684186,0.07881985421478747,-0.09650339494347572
1780625229384996900,10.628996826171875,-0.30152824714332815,0.15827216111421585,-0.09991977925822138
1780625229395027000,10.63902685546875,-0.302411605849117,0.16014087759554385,-0.10696896711736917
1780625229405056000,10.649055908203126,-0.4014100324787199,0.18652093499898909,-0.10799641046896576
1780625229415084800,10.659084716796874,-0.6629954146817326,0.1082160445690155,-0.1504940744586289
1780625229425113900,10.66911376953125,-0.6647590633533894,0.11084639307260513,-0.15995032345950602
1780625229435144000,10.67914404296875,-0.6453567360080779,0.15826865398287773,0.019524492420256136
1780625229445173000,10.689173095703126,-0.5537772073328495,0.07848258508443832,0.0815082165159285
1780625229455201800,10.699201904296874,-0.5602000799871981,0.08245148871541023,0.06995411845296622
1780625229465232000,10.70923193359375,-0.5167654274083674,0.006349661287665367,0.06227350082248449
1780625229475261000,10.719260986328125,-0.5054758255004882,-0.04354980339109897,-0.027879940572381016
1780625229485289700,10.729289794921876,-0.47948228319659825,-0.017895137652754783,-0.10685995378494262
1780625229495319800,10.73931982421875,-0.4877369013227522,-0.012667173871397971,-0.12173998140022158
1780625229505348900,10.749348876953125,-0.43221185184717176,0.08682371245026588,-0.09616115737706422
1780625229515378000,10.7593779296875,-0.5149031406678259,0.09841770413219929,-0.008868658371269702
1780625229525407700,10.76940771484375,-0.6324713893413544,0.12153846747875213,-0.0054752165406942365
1780625229535436800,10.779436767578124,-0.665684946026653,0.03191021900177002,-0.07029284888803959
1780625229545465900,10.7894658203125,-0.718669809500128,0.0755950469493866,-0.1133291497990489
1780625229555496000,10.799495849609375,-0.7260558280982077,0.08209259227514266,-0.13262392511665821
1780625229565524700,10.809524658203125,-0.7801905922591685,-0.013222469666600227,-0.21826514978408812
1780625229575553800,10.8195537109375,-0.6352420230984688,-0.05000818575024604,-0.559236934043467
1780625229585583900,10.829583984375,-0.6309621538221836,0.07828969286084175,-0.6330030120000243
1780625229595613000,10.839613037109375,-0.6550104072771966,0.08469663729369639,-0.6402636506527661
1780625229605641700,10.849641845703125,-0.19395386147871613,0.03932020299732685,-0.6903411022469401
1780625229615671800,10.859671875,-0.2267185053527355,0.25355624339580535,-1.0155787262797356
1780625229625700900,10.869700927734375,-0.4511408625923097,0.4502741627603769,-1.0309309014514088
1780625229635729700,10.879729736328125,-0.5271976818345486,0.3992652755349874,-0.8946791412264108
1780625229645759700,10.889759765625,-0.6570226238824427,0.4017307888656854,-0.6006193302676082
1780625229655788800,10.899788818359376,-0.6696411363065242,0.40934067934751506,-0.618661767436564
1780625229665817900,10.90981787109375,-0.6097042617380619,0.36267771237194535,-0.26114304526299237
1780625229675848000,10.919847900390625,-0.6690190588854253,0.2651905670881271,0.5215411173775791
1780625229685876700,10.929876708984375,-0.6891207666717469,0.2617068166255951,0.7783926029264926
1780625229695906000,10.939906005859376,-0.4424208189114928,0.18826573283970355,0.9795990658819674
1780625229705936000,10.949935791015625,-0.4521089769721031,0.19574585946202278,0.9609612931683659
1780625229715964700,10.959964599609375,-0.07738456071466207,-0.009274608823657035,0.8338450255572796
1780625229725994000,10.969993896484375,0.07539601724594831,-0.11239362251460551,0.5478694445937872
1780625229736023800,10.98002392578125,0.057821197588741775,-0.10409925689995288,0.5324319292262196
1780625229746052900,10.990052978515624,0.42289954136162994,-0.09391688558161258,0.14937982960641383
1780625229756082000,11.00008203125,0.4130766510054469,-0.08618424550294876,0.1309165366768837
1780625229766111700,11.01011181640625,0.38691929644197226,-0.19554186132252216,0.15731676008552312
1780625229776141000,11.02014111328125,0.2516083241984248,-0.21550737550854682,0.21460224336236713
1780625229786170000,11.030170166015624,0.2577510647371411,-0.20976327889859675,0.1923065326631069
1780625229796199700,11.04019970703125,-0.006162029761075973,-0.310497443279624,0.09795914670974015
1780625229806229000,11.05022900390625,-0.0012824410259723662,-0.30464345655441283,0.07652706710249185
1780625229816258000,11.060258056640626,-0.1048453990921378,-0.18949498237371443,-0.08351093464046716
1780625229826287900,11.070287841796874,0.00005962123274803161,-0.14335282440185546,-0.06348726052641868
1780625229836317000,11.08031689453125,-0.002625380067527294,-0.13693009787797927,-0.08138415174484252
1780625229846346000,11.090345947265625,0.29158523753881455,-0.2708066534042358,-0.028221301355957983
1780625229856375000,11.100375,0.2897489620223641,-0.26442367436885833,-0.04628828844428062
1780625229866405000,11.110405029296874,0.3819499835968017,-0.48059915839731693,-0.06525953089594841
1780625229876434000,11.120433837890625,0.3322057094797492,-0.4180898029923439,0.039212650969624514
1780625229886463000,11.130462890625,0.41289223434925076,-0.32539573720395565,0.17780600588470696
1780625229896493000,11.1404931640625,0.6186741885267197,-0.1553290933996439,0.38356560209989543
1780625229906521900,11.15052197265625,0.6117644091382622,-0.14909692101180552,0.36962650859653945
1780625229916551000,11.160551025390625,0.661637716462463,-0.3395499347627163,0.4453460587084293
1780625229926581000,11.1705810546875,0.6696222854755819,-0.4536258112758398,0.33618367320001125
1780625229936610000,11.180610107421876,0.7656661000832915,-0.3227536982625723,0.38014293417483563
1780625229946638800,11.190638916015626,1.0269931236110628,-0.30578502780497074,0.3122562696456909
1780625229956669000,11.2006689453125,1.001711528968811,-0.30051790105700493,0.3132455729439854
1780625229966698000,11.210697998046875,1.6030068588018416,-0.23928806406855582,0.1748284513786435
1780625229976727000,11.22072705078125,1.5777343242488802,-0.2349538342565298,0.17893822478502988
1780625229986756900,11.2307568359375,1.5737132520392536,-0.30363749438226223,-0.2009367061033845
1780625229996786000,11.240785888671875,1.6241161361955105,-0.3622901743590832,-0.15425561894923448
1780625230006815000,11.25081494140625,1.6075325195327401,-0.35777240467369553,-0.15604571723639965
1780625230016845000,11.260844970703126,0.9363257413446903,-0.97058632286489,0.11760901907533407
1780625230026873900,11.270873779296876,0.7846712448045611,-1.1324398495972157,0.39458091711103915
1780625230036903000,11.28090283203125,0.8514612001381814,-1.1170149014502764,0.7614601728260517
1780625230046933000,11.29093310546875,0.8098015944078564,-1.1971908464491368,1.0183066899389028
1780625230056962000,11.300962158203125,0.7997665226057171,-1.196298866045475,1.0227513943880795
1780625230066990800,11.310990966796876,0.6269280760005116,-1.4561235221862792,0.9980734647274017
1780625230077021000,11.32102099609375,0.633355040308088,-1.4621131179898976,1.0108210103586315
1780625230087050000,11.331050048828125,-0.3567386777117848,-1.4691653745889663,0.16774842998981473
1780625230097078800,11.341078857421875,-0.937614904372394,-1.17154085688591,-0.15084347241818905
1780625230107108900,11.35110888671875,-0.8914778609670698,-1.1912304767400026,-0.12467296611219644
1780625230117138000,11.361137939453124,-1.1415955082163214,-0.514918776628375,0.09949965415000915
1780625230127167000,11.3711669921875,-1.0328504713371396,-0.6628624359518289,0.3334863969400525
1780625230137197000,11.381197021484375,-0.8753913801714778,-0.9647685764968394,0.47526159676164387
1780625230147225900,11.391225830078126,-0.7820121085979044,-0.9879279182881117,0.4893184714257717
1780625230157255000,11.4012548828125,-0.26794717231988907,-1.1582809778183698,0.5480135292395949
1780625230167285000,11.411284912109375,0.9248654590450227,-0.19050386715531348,0.10369447549134492
1780625230177313800,11.421313720703125,2.580723764199018,1.5157704738974571,0.07727554738223552
1780625230187342800,11.4313427734375,3.741795541779697,2.326255666655302,0.02493482703119516
1780625230197373000,11.441373046875,3.3126877934277057,2.0209791728943585,0.2034238467440009
1780625230207402000,11.451402099609375,3.266982857829332,2.0276006368607282,0.20756401528865098
1780625230217430800,11.4614306640625,2.606538296674192,0.5953986730098724,1.1169941509231924
1780625230227459800,11.4714599609375,-0.7153380347289144,-1.9266665659934281,1.8488564733430741
1780625230237490000,11.481489990234374,-2.3439878688313067,-0.8835212028741836,1.2622837886065243
1780625230247519000,11.49151904296875,-2.322853749257326,-0.88778002936244,1.263573243895173
1780625230257547800,11.5015478515625,-2.3606994957879186,0.41145080336928364,0.8411731764882803
1780625230267577900,11.511577880859376,-0.16143091740608215,1.182147006574273,0.17941110299378632
1780625230277607000,11.52160693359375,0.349867622898519,1.0331716661155224,-0.1364589732348919
1780625230287635700,11.5316357421875,0.36332258614674207,1.022957730615139,-0.11112608679682015
1780625230297665800,11.541665771484375,-0.5026736275613307,0.2020616184800863,-1.1315618977189064
1780625230307694800,11.55169482421875,-0.48109074130654333,0.19148001871109008,-1.108833640821278
1780625230317724000,11.561723876953126,-0.2980303220249712,0.07552256623506545,-1.0052321043103933
1780625230327754000,11.57175390625,0.9943452379845082,-0.4228992491006851,0.01519172391295433
1780625230337782800,11.58178271484375,1.033272057750076,-0.47655368239879603,0.379634984652698
1780625230347811800,11.591811767578125,0.6747438662730157,-0.2999789718747139,0.6345242302179336
1780625230357842000,11.601842041015624,0.6832989286504686,-0.3037298488408327,0.6425245813220739
1780625230367870700,11.61187060546875,-0.0986696330666542,-0.19982640677392483,0.6490086826443672
1780625230377899800,11.621899658203125,-0.33863837287575005,-0.2869248445123434,0.5668783887073398
1780625230387929900,11.631929931640625,-0.3389046225965023,-0.29214520950913425,0.5848457148134708
1780625230397959000,11.641958984375,-0.6620144408203661,-0.4682803595721721,-0.21251140856295822
1780625230407987700,11.65198779296875,-0.661860857693851,-0.475181225001812,-0.18863047449886797
1780625230418017800,11.662017822265625,-0.3504116666473448,-0.2918494414329529,-0.5216241194859147
1780625230428046800,11.672046875,0.18526172871813176,-0.2714320918262005,-0.5358735941126942
1780625230438076000,11.682075927734376,0.43936639977693553,-0.14537293205261229,-0.4896612935140729
1780625230448105700,11.692105712890625,0.5078815714679659,0.034573300731182095,-0.33672201786041256
1780625230458134800,11.702134765625,0.5110204540155827,0.029661563292145726,-0.3206684164211154
1780625230468163800,11.712163818359375,0.23868469134792683,0.054745735666155815,-0.06753624365627765
1780625230478194000,11.72219384765625,-0.074181526889652,0.12705226246416568,0.15672084001898764
1780625230488222700,11.73222265625,-0.07360781865492462,0.12410276500880718,0.16727584404200316
1780625230498252000,11.742251953125,-0.27312852048054337,-0.1504009893476963,0.2746291343018412
1780625230508281900,11.75228173828125,-0.2767817822910845,-0.15379647700488566,0.28943799637705087
1780625230518311000,11.762310791015626,-0.1386450851023197,-0.14601882874071598,0.041644262030720705
1780625230528340000,11.772340087890624,-0.0027659575819969176,-0.10203297201991081,-0.11639701293706893
1780625230538369800,11.782369873046875,0.10286182405948638,-0.061739540076255796,-0.2666904502570629
1780625230548398800,11.79239892578125,0.41208690931573505,0.04063596177101135,-0.4553913596436381
1780625230558428000,11.802427978515626,0.41928471186533567,0.03410568321943283,-0.43441301515325903
1780625230568457700,11.812457763671874,0.19854338122606277,0.20257307513356207,-0.32659283803403377
1780625230578487000,11.822487060546875,0.16937208566889167,0.06699439186453819,-0.3035077305227518
1780625230588516000,11.83251611328125,-0.16577873735204338,0.1333037240743637,-0.1264030047751963
1780625230598545700,11.842545654296876,0.0540881485402584,-0.08016133195161819,-0.155950878559798
1780625230608575000,11.852574951171874,0.06528408081531524,-0.08505202660262584,-0.1429953892663121
1780625230618604000,11.86260400390625,-0.1550456002831459,0.02807984705865383,0.11449731679558753
1780625230628633000,11.872633056640625,-0.14740356109738348,0.02355155597925186,0.12837722745761274
1780625230638663000,11.882662841796876,-0.016556144133955238,0.10221125119626522,0.006499152760952711
1780625230648692000,11.89269189453125,0.038431145203113554,0.09143325207233428,-0.18472338405773042
1780625230658721000,11.902720947265625,0.05425546793118119,0.08476093470156193,-0.16638620172590016
1780625230668751000,11.912751220703125,-0.17011457459926604,0.3543763324946165,-0.2384245791070163
1780625230678780000,11.92277978515625,-0.3900574483372271,0.31361352947354315,-0.2459739715732634
1780625230688809000,11.93280908203125,-0.7072856611765921,0.3920861776858568,-0.10465352978184819
1780625230698839000,11.942839111328125,-0.54180269190073,0.11883563826084136,-0.15012304918915031
1780625230708868000,11.9528681640625,-0.5285783225379884,0.11239479155838489,-0.1297094989746809
1780625230718897000,11.96289697265625,-0.24715222157239913,-0.08556289873421191,0.04082154747098684
1780625230728927000,11.972927001953124,-0.24434534745812414,-0.09025076428949833,0.060071752994507545
1780625230738956000,11.9829560546875,-0.13351444421559572,-0.2901478982120752,-0.0641942397519946
1780625230748984800,11.99298486328125,0.01149170035123825,-0.23590894302427767,-0.15988485700786112
1780625230759015000,12.003014892578125,0.01209010463580489,-0.24032792851030826,-0.1399506147429347
1780625230769044000,12.0130439453125,0.1463759716153145,-0.08385317220687866,-0.25189970836043357
1780625230779073000,12.023072998046874,0.14774842901229857,-0.14755670583248137,-0.2719711671389639
1780625230789102800,12.033102783203125,0.15411723339185118,-0.15129238522946833,-0.2582762576550245
1780625230799132000,12.0431318359375,0.042483050942420955,-0.20850947944521903,-0.3021528087824583
1780625230809161000,12.053160888671876,-0.038376200145483014,-0.2006681182950735,-0.275040783842653
1780625230819191000,12.06319091796875,-0.11509221394881605,-0.24210019887983797,-0.3314700886815786
1780625230829219800,12.0732197265625,-0.13234744626283645,-0.0828273362904787,-0.2895703905850649
1780625230839249000,12.083248779296875,-0.20319383738040922,-0.016355506995320318,-0.23095745809674262
1780625230849279000,12.093279052734376,-0.15506087091751397,0.0058294368058443066,-0.14005816677063704
1780625230859308000,12.10330810546875,-0.15351415293216705,0.004204465952515602,-0.13307780636399982
1780625230869336800,12.1133369140625,0.010991349613666533,-0.018168693897128104,-0.08971139671579002
1780625230879367000,12.123366943359375,0.20238237486705182,-0.013681903871893882,-0.028307518334686754
1780625230889396000,12.13339599609375,0.3136974814299494,-0.20763678826391696,-0.21602759999036789
1780625230899424800,12.1434248046875,0.09611286125592887,-0.08261223223507404,-0.3293402370460331
1780625230909454800,12.153454833984375,0.10059504817128181,-0.08444178574979305,-0.323027400637418
1780625230919484000,12.16348388671875,-0.012148702955245972,0.016571195572614668,-0.2505409872278571
1780625230929513000,12.173512939453126,0.0001426233410835266,0.005821253499388695,-0.2151103390149772
1780625230939543000,12.18354296875,-0.07298223410248755,-0.05518588064908981,-0.15037687781974673
1780625230949571800,12.19357177734375,-0.17987514030896126,-0.0769628281712532,-0.02221884607076645
1780625230959601000,12.203600830078125,-0.17559490570649502,-0.07756137858629227,-0.02184270623475313
1780625230969631000,12.213630859375,-0.1712226819716394,-0.10465981339216232,0.07274184947535395
1780625230979659800,12.22365966796875,-0.13729257451482116,-0.13028934468925,-0.08566241358593106
1780625230989688800,12.233688720703125,-0.06880882087536155,0.0031248540222644804,-0.19687778610140083
1780625230999719000,12.243718994140625,0.31174064827375114,-0.07587035675942898,-0.32998043464571236
1780625231009748000,12.253748046875,0.3094027799107134,-0.07559796955883502,-0.3299025471039116
1780625231019776800,12.26377685546875,0.27506781798005103,0.0497357985496521,-0.2524015204027295
1780625231029805800,12.273805908203125,0.06764313809685409,-0.08049684751629829,-0.20595394974350928
1780625231039836000,12.2838359375,0.06958718483671546,-0.08005962514281273,-0.20935104483589528
1780625231049865000,12.293864990234376,-0.21678411744609474,0.007993921363353728,-0.05132803617715835
1780625231059893800,12.303893798828126,-0.2167709657035768,0.008507716104388236,-0.05390417027547955
1780625231069923800,12.313923828125,-0.10174421820640564,0.09955985990464687,-0.016287410195171832
1780625231079953000,12.323952880859375,-0.1559818582199514,0.03139993139207363,0.02647416542768478
1780625231089981700,12.333981689453125,0.049841158620268104,-0.35315351270139217,-0.05371405453085899
1780625231100011800,12.34401171875,0.031912703219801185,-0.2926309471994638,-0.04053118622228503
1780625231110040800,12.354040771484375,0.034848318280279636,-0.29319267273545263,-0.039529315703362225
1780625231120070000,12.36406982421875,0.09910334830880164,-0.1909685620576143,-0.18707579240277408
1780625231130100000,12.374099853515625,0.1615616311136633,-0.12106325118243694,-0.28041356292217967
1780625231140128800,12.384128662109376,0.16238368808627127,-0.12165478733479976,-0.2779562328979373
1780625231150157800,12.39415771484375,0.20322890869379043,0.16602642850279806,-0.4251527271158993
1780625231160188000,12.40418798828125,0.20363222879767418,0.16642390338778495,-0.42738823108300567
1780625231170216700,12.414216796875,0.14117832990698514,0.03887830444872379,-0.26879034514576194
1780625231180245800,12.424245849609376,0.054556935095787046,-0.013719313272833824,-0.1662548304311931
1780625231190275800,12.43427587890625,-0.004618965037539601,-0.22221885584592818,-0.11921440844535827
1780625231200305000,12.444304931640625,0.052700639704614874,-0.2823813558638096,-0.038821167434006924
1780625231210334000,12.454333984375,0.05817059554830193,-0.28239070821404455,-0.04204582856893539
1780625231220363800,12.46436376953125,0.18702946904301643,-0.22670681491494177,0.01938259973153472
1780625231230392800,12.474392822265624,0.12499430702105163,-0.23412615126073358,-0.07344473704770207
1780625231240422000,12.484421875,0.02589446584358811,-0.21277298210859297,-0.21350348834022878
1780625231250451700,12.49445166015625,0.04649287110567093,-0.15377660326063633,-0.3406912137523293
1780625231260480800,12.504480712890626,0.04814005379080772,-0.154579151815176,-0.33769261645823717
1780625231270510000,12.514510009765624,0.24700609109997748,0.09814531693160533,-0.49455651820972557
