time,seconds_elapsed,z,y,x
1780625218807826000,0.051825927734375,-0.7309722900390625,-0.4154205322265625,-0.3449249267578125
1780625218817855000,0.06185498046875,-0.78814697265625,-0.4129486083984375,-0.346435546875
1780625218827883800,0.0718837890625,-0.8507537841796875,-0.38507080078125,-0.3337860107421875
1780625218837913900,0.081913818359375,-0.91339111328125,-0.3566131591796875,-0.336273193359375
1780625218847943000,0.09194287109375,-0.95281982421875,-0.3259735107421875,-0.3462066650390625
1780625218857971700,0.1019716796875,-0.9459228515625,-0.3123931884765625,-0.3484954833984375
1780625218868000800,0.112000732421875,-0.90557861328125,-0.327178955078125,-0.342071533203125
1780625218878030800,0.12203076171875,-0.85272216796875,-0.345306396484375,-0.3205718994140625
1780625218888060000,0.132059814453125,-0.7881927490234375,-0.3760986328125,-0.29766845703125
1780625218898088700,0.142088623046875,-0.7271728515625,-0.40631103515625,-0.2812957763671875
1780625218908117800,0.15211767578125,-0.6735382080078125,-0.4372711181640625,-0.2529754638671875
1780625218918147800,0.16214794921875,-0.6341094970703125,-0.45721435546875,-0.2112274169921875
1780625218928177000,0.172177001953125,-0.664215087890625,-0.405670166015625,-0.20721435546875
1780625218938205700,0.182205810546875,-0.8311614990234375,-0.269134521484375,-0.250396728515625
1780625218948235800,0.19223583984375,-0.996246337890625,-0.23291015625,-0.2103271484375
1780625218958264800,0.202264892578125,-0.958740234375,-0.2288970947265625,-0.1966400146484375
1780625218968293600,0.212293701171875,-0.88385009765625,-0.2670135498046875,-0.1904449462890625
1780625218978322700,0.22232275390625,-0.8306732177734375,-0.310211181640625,-0.171539306640625
1780625218988352800,0.232352783203125,-0.7595672607421875,-0.3656463623046875,-0.14422607421875
1780625218998381800,0.2423818359375,-0.673248291015625,-0.4139251708984375,-0.1241607666015625
1780625219008410600,0.25241064453125,-0.6011810302734375,-0.467132568359375,-0.098480224609375
1780625219018440700,0.262440673828125,-0.596038818359375,-0.514801025390625,-0.06524658203125
1780625219028469800,0.2724697265625,-0.6527099609375,-0.4615478515625,-0.063385009765625
1780625219038498800,0.282498779296875,-0.81805419921875,-0.4385528564453125,-0.0831451416015625
1780625219048527600,0.292527587890625,-0.9621734619140625,-0.4065704345703125,-0.11767578125
1780625219058557700,0.3025576171875,-1.079315185546875,-0.33514404296875,-0.1577301025390625
1780625219068586800,0.312586669921875,-1.1565399169921875,-0.264434814453125,-0.190887451171875
1780625219078615600,0.322615478515625,-1.1706085205078125,-0.2152252197265625,-0.199066162109375
1780625219088645600,0.332645751953125,-1.1415863037109375,-0.199493408203125,-0.1787567138671875
1780625219098674700,0.3426748046875,-1.0654754638671875,-0.2155609130859375,-0.13958740234375
1780625219108703700,0.352703857421875,-0.9922027587890625,-0.240692138671875,-0.0971832275390625
1780625219118732800,0.36273291015625,-0.9574432373046875,-0.27191162109375,-0.072174072265625
1780625219128762600,0.3727626953125,-0.9602203369140625,-0.3129425048828125,-0.0572052001953125
1780625219138791700,0.382791748046875,-1.014862060546875,-0.338531494140625,-0.06854248046875
1780625219148821000,0.392821044921875,-1.118255615234375,-0.37115478515625,-0.08551025390625
1780625219158849800,0.402849853515625,-1.2485809326171875,-0.3596343994140625,-0.1132965087890625
1780625219168879900,0.4128798828125,-1.3491058349609375,-0.321136474609375,-0.1475830078125
1780625219178909000,0.422908935546875,-1.339202880859375,-0.2626800537109375,-0.1925811767578125
1780625219188937700,0.432937744140625,-1.32818603515625,-0.2089080810546875,-0.25177001953125
1780625219198967800,0.4429677734375,-1.3091888427734375,-0.1940460205078125,-0.28875732421875
1780625219208996900,0.452996826171875,-1.2564849853515625,-0.250823974609375,-0.2812957763671875
1780625219219026000,0.46302587890625,-1.1647186279296875,-0.263763427734375,-0.2837677001953125
1780625219229054700,0.4730546875,-1.0897216796875,-0.2500457763671875,-0.2773284912109375
1780625219239084800,0.483084716796875,-1.0598602294921875,-0.27008056640625,-0.242279052734375
1780625219249113900,0.49311376953125,-1.03277587890625,-0.2698974609375,-0.2222442626953125
1780625219259143000,0.503142822265625,-1.037994384765625,-0.270721435546875,-0.1866607666015625
1780625219269172700,0.5131728515625,-1.0011749267578125,-0.2820587158203125,-0.089447021484375
1780625219279201800,0.523201904296875,-0.98651123046875,-0.257904052734375,-0.0682220458984375
1780625219289230800,0.53323095703125,-1.013275146484375,-0.2198944091796875,-0.131103515625
1780625219299260000,0.543260009765625,-1.045684814453125,-0.204345703125,-0.2024078369140625
1780625219309289700,0.553289794921875,-1.0464630126953125,-0.2292938232421875,-0.2482757568359375
1780625219319318800,0.56331884765625,-1.016265869140625,-0.3218536376953125,-0.2482452392578125
1780625219329349000,0.57334912109375,-0.980377197265625,-0.3722076416015625,-0.20611572265625
1780625219339379000,0.58337890625,-0.9425048828125,-0.3238677978515625,-0.1717681884765625
1780625219349408000,0.593407958984375,-0.9296722412109375,-0.2648162841796875,-0.1565093994140625
1780625219359437000,0.60343701171875,-0.8761749267578125,-0.2196197509765625,-0.1431732177734375
1780625219369466000,0.613466064453125,-0.7850189208984375,-0.1981048583984375,-0.129302978515625
1780625219379496000,0.623495849609375,-0.7010955810546875,-0.2036590576171875,-0.1179046630859375
1780625219389525000,0.63352490234375,-0.64849853515625,-0.2538299560546875,-0.117279052734375
1780625219399554000,0.643553955078125,-0.6147308349609375,-0.3236541748046875,-0.0968475341796875
1780625219409584000,0.653584228515625,-0.6665802001953125,-0.370452880859375,-0.078338623046875
1780625219419613000,0.663613037109375,-0.7317657470703125,-0.3617401123046875,-0.082183837890625
1780625219429642000,0.67364208984375,-0.7893829345703125,-0.343841552734375,-0.051300048828125
1780625219439671000,0.683671142578125,-0.85528564453125,-0.3299407958984375,-0.0330810546875
1780625219449700900,0.693700927734375,-0.8643951416015625,-0.28729248046875,-0.0421905517578125
1780625219459730000,0.70372998046875,-0.8858795166015625,-0.218414306640625,-0.08837890625
1780625219469759000,0.713759033203125,-0.939605712890625,-0.21795654296875,-0.135833740234375
1780625219479789000,0.7237890625,-0.92974853515625,-0.203338623046875,-0.221160888671875
1780625219489817900,0.73381787109375,-0.95147705078125,-0.242706298828125,-0.277099609375
1780625219499847000,0.743846923828125,-0.97137451171875,-0.288177490234375,-0.2925262451171875
1780625219509876000,0.7538759765625,-0.970794677734375,-0.292022705078125,-0.300994873046875
1780625219519906000,0.763906005859375,-0.9478912353515625,-0.29754638671875,-0.296905517578125
1780625219529934800,0.773934814453125,-0.87518310546875,-0.3211517333984375,-0.272369384765625
1780625219539964000,0.7839638671875,-0.821502685546875,-0.345947265625,-0.2210540771484375
1780625219549994000,0.793993896484375,-0.798095703125,-0.365936279296875,-0.179046630859375
1780625219560022800,0.804022705078125,-0.8212127685546875,-0.350830078125,-0.1706390380859375
1780625219570051800,0.8140517578125,-0.8340606689453125,-0.3145751953125,-0.186004638671875
1780625219580081000,0.824080810546875,-0.8839263916015625,-0.307403564453125,-0.2189788818359375
1780625219590111000,0.834111083984375,-0.9571533203125,-0.330780029296875,-0.2665863037109375
1780625219600139800,0.844139892578125,-1.0262603759765625,-0.353240966796875,-0.3125457763671875
1780625219610168800,0.8541689453125,-1.074249267578125,-0.34814453125,-0.354217529296875
1780625219620199000,0.864198974609375,-1.0793914794921875,-0.3283843994140625,-0.3782196044921875
1780625219630228000,0.87422802734375,-1.0241241455078125,-0.29656982421875,-0.3777008056640625
1780625219640256800,0.8842568359375,-0.9262847900390625,-0.2639923095703125,-0.3545684814453125
1780625219650286800,0.894286865234375,-0.82708740234375,-0.2505950927734375,-0.307525634765625
1780625219660316000,0.90431591796875,-0.752349853515625,-0.2508392333984375,-0.25494384765625
1780625219670345000,0.914344970703125,-0.73162841796875,-0.2569732666015625,-0.1941375732421875
1780625219680374000,0.9243740234375,-0.7581329345703125,-0.239501953125,-0.17938232421875
1780625219690403800,0.93440380859375,-0.814361572265625,-0.1767578125,-0.220428466796875
1780625219700433000,0.944432861328125,-0.8705902099609375,-0.154693603515625,-0.2655792236328125
1780625219710462000,0.9544619140625,-0.919403076171875,-0.1639556884765625,-0.298309326171875
1780625219720491800,0.96449169921875,-0.9686737060546875,-0.1684417724609375,-0.319305419921875
1780625219730521000,0.97452099609375,-0.9986114501953125,-0.1819305419921875,-0.3279266357421875
1780625219740550100,0.984550048828125,-0.994384765625,-0.1955413818359375,-0.3196258544921875
1780625219750579000,0.994578857421875,-0.9625701904296875,-0.2078094482421875,-0.2879638671875
1780625219760609000,1.004609130859375,-0.917877197265625,-0.214111328125,-0.2495880126953125
1780625219770638000,1.01463818359375,-0.884124755859375,-0.2017059326171875,-0.2295379638671875
1780625219780667100,1.024667236328125,-0.8709259033203125,-0.1855621337890625,-0.2237396240234375
1780625219790697000,1.034697021484375,-0.861328125,-0.1758575439453125,-0.219818115234375
1780625219800726000,1.04472607421875,-0.8569183349609375,-0.146636962890625,-0.227508544921875
1780625219810755000,1.054755126953125,-0.861175537109375,-0.114013671875,-0.250732421875
1780625219820783900,1.064783935546875,-0.8847198486328125,-0.0981292724609375,-0.2806549072265625
1780625219830814000,1.07481396484375,-0.928985595703125,-0.1259002685546875,-0.318695068359375
1780625219840843000,1.084843017578125,-0.9710235595703125,-0.1713714599609375,-0.344818115234375
1780625219850872000,1.0948720703125,-1.0029296875,-0.2154998779296875,-0.357086181640625
1780625219860902000,1.10490185546875,-1.0067291259765625,-0.238616943359375,-0.346893310546875
1780625219870931000,1.114930908203125,-0.97821044921875,-0.2355194091796875,-0.3174285888671875
1780625219880960000,1.1249599609375,-0.92987060546875,-0.223541259765625,-0.2879638671875
1780625219890990000,1.134989990234375,-0.8856201171875,-0.219940185546875,-0.277923583984375
1780625219901019000,1.145018798828125,-0.8495025634765625,-0.2211761474609375,-0.2787322998046875
1780625219911048000,1.1550478515625,-0.8259429931640625,-0.2219390869140625,-0.3058929443359375
1780625219921077000,1.165076904296875,-0.876953125,-0.2393341064453125,-0.33489990234375
1780625219931107000,1.175107177734375,-0.946868896484375,-0.248748779296875,-0.332000732421875
1780625219941136000,1.185135986328125,-0.972564697265625,-0.25103759765625,-0.304718017578125
1780625219951165000,1.1951650390625,-0.9494476318359375,-0.2492828369140625,-0.2527313232421875
1780625219961195000,1.205195068359375,-0.900848388671875,-0.2238311767578125,-0.21063232421875
1780625219971223800,1.215223876953125,-0.8577117919921875,-0.203277587890625,-0.1827392578125
1780625219981252900,1.2252529296875,-0.8324432373046875,-0.1919097900390625,-0.1768646240234375
1780625219991282000,1.235281982421875,-0.834991455078125,-0.171051025390625,-0.1840057373046875
1780625220001312000,1.24531201171875,-0.8675384521484375,-0.1534271240234375,-0.2034759521484375
1780625220011340800,1.2553408203125,-0.934417724609375,-0.16937255859375,-0.2431640625
1780625220021369900,1.265369873046875,-1.00408935546875,-0.1879119873046875,-0.25347900390625
1780625220031400000,1.27539990234375,-1.01800537109375,-0.186553955078125,-0.245391845703125
1780625220041429000,1.285428955078125,-1.01544189453125,-0.1939697265625,-0.22015380859375
1780625220051457800,1.295457763671875,-0.9836578369140625,-0.1773834228515625,-0.19757080078125
1780625220061487900,1.30548779296875,-0.9405364990234375,-0.152862548828125,-0.1715545654296875
1780625220071517000,1.315516845703125,-0.9087677001953125,-0.13031005859375,-0.1504974365234375
1780625220081546000,1.3255458984375,-0.88336181640625,-0.11114501953125,-0.1455078125
1780625220091574800,1.33557470703125,-0.8679962158203125,-0.09283447265625,-0.1517486572265625
1780625220101604900,1.34560498046875,-0.8822021484375,-0.08514404296875,-0.1766204833984375
1780625220111634000,1.355634033203125,-0.909027099609375,-0.08514404296875,-0.2025299072265625
1780625220121663000,1.3656630859375,-0.939910888671875,-0.0763092041015625,-0.2455596923828125
1780625220131692800,1.37569287109375,-1.006134033203125,-0.1035003662109375,-0.287811279296875
1780625220141721900,1.385721923828125,-1.052978515625,-0.1330718994140625,-0.30108642578125
1780625220151751200,1.395751220703125,-1.0694122314453125,-0.140716552734375,-0.29901123046875
1780625220161780700,1.40578076171875,-1.09674072265625,-0.123626708984375,-0.290863037109375
1780625220171809800,1.415809814453125,-1.113372802734375,-0.064300537109375,-0.2774200439453125
1780625220181839000,1.425839111328125,-1.0970916748046875,0.0169219970703125,-0.2563629150390625
1780625220191868200,1.4358681640625,-1.05084228515625,0.0912933349609375,-0.2534332275390625
1780625220201898000,1.44589794921875,-1.01800537109375,0.1255645751953125,-0.26116943359375
1780625220211927000,1.455927001953125,-0.979278564453125,0.1346435546875,-0.2899169921875
1780625220221956000,1.4659560546875,-0.9048309326171875,0.110321044921875,-0.305633544921875
1780625220231986000,1.47598583984375,-0.838043212890625,0.1095123291015625,-0.287109375
1780625220242015000,1.486014892578125,-0.8270111083984375,0.18109130859375,-0.3043670654296875
1780625220252044000,1.4960439453125,-0.811798095703125,0.1992340087890625,-0.3048858642578125
1780625220262073000,1.506072998046875,-0.7636260986328125,0.1802978515625,-0.2716064453125
1780625220272103000,1.51610302734375,-0.6656494140625,0.1875762939453125,-0.2807464599609375
1780625220282132000,1.526132080078125,-0.6256561279296875,0.146209716796875,-0.2660064697265625
1780625220292161000,1.5361611328125,-0.6703338623046875,0.2012939453125,-0.2717132568359375
1780625220302191000,1.546191162109375,-0.7414703369140625,0.2943267822265625,-0.3198699951171875
1780625220312220000,1.556219970703125,-0.8574676513671875,0.3462066650390625,-0.385345458984375
1780625220322249000,1.5662490234375,-0.8982391357421875,0.3897857666015625,-0.423675537109375
1780625220332277800,1.57627783203125,-0.8716583251953125,0.3780364990234375,-0.4396209716796875
1780625220342306600,1.586306640625,-0.8408050537109375,0.3377227783203125,-0.4547882080078125
1780625220352335600,1.596335693359375,-0.7964019775390625,0.3228912353515625,-0.4769439697265625
1780625220362364700,1.60636474609375,-0.753997802734375,0.318572998046875,-0.52545166015625
1780625220372394500,1.61639453125,-0.748870849609375,0.361236572265625,-0.561279296875
1780625220382423600,1.626423583984375,-0.7762908935546875,0.4652252197265625,-0.628326416015625
1780625220392452600,1.63645263671875,-0.766571044921875,0.5579681396484375,-0.7032928466796875
1780625220402482700,1.646482666015625,-0.7268524169921875,0.643157958984375,-0.7527008056640625
1780625220412511500,1.656511474609375,-0.5677337646484375,0.8757171630859375,-0.7601776123046875
1780625220422540500,1.66654052734375,-0.1903228759765625,0.9899139404296875,-0.7104644775390625
1780625220432570600,1.676570556640625,-0.60113525390625,0.575164794921875,-0.8395233154296875
1780625220442599700,1.686599609375,-0.599029541015625,0.596832275390625,-0.986328125
1780625220452628700,1.696628662109375,-0.5811309814453125,0.7347412109375,-1.0796966552734375
1780625220462657800,1.70665771484375,-0.54840087890625,0.789825439453125,-1.1023101806640625
1780625220472687600,1.7166875,-0.487762451171875,0.879730224609375,-1.004791259765625
1780625220482716700,1.726716552734375,-0.4052581787109375,1.025482177734375,-0.9087066650390625
1780625220492745700,1.736745849609375,-0.24981689453125,1.1716156005859375,-0.7848663330078125
1780625220502775600,1.746775634765625,-0.0781707763671875,1.2695770263671875,-0.669281005859375
1780625220512804900,1.756804931640625,0.015594482421875,1.336822509765625,-0.615081787109375
1780625220522833700,1.766833740234375,-0.0454559326171875,1.471954345703125,-0.6546173095703125
1780625220532863700,1.77686376953125,-0.152679443359375,1.62310791015625,-0.7505950927734375
1780625220542892800,1.786892822265625,-0.19317626953125,1.704254150390625,-0.7734832763671875
1780625220552921900,1.796921875,-0.23822021484375,1.7051849365234375,-0.7619171142578125
1780625220562951700,1.80695166015625,-0.3454742431640625,1.699249267578125,-0.7948455810546875
1780625220572980700,1.816980712890625,-0.4693450927734375,1.6745452880859375,-0.863189697265625
1780625220583009800,1.827009765625,-0.489166259765625,1.594268798828125,-0.9730987548828125
1780625220593038600,1.83703857421875,-0.449615478515625,1.4420013427734375,-1.1287994384765625
1780625220603068700,1.847068603515625,-0.452545166015625,1.2558135986328125,-1.3004913330078125
1780625220613097700,1.85709765625,-0.53314208984375,1.1345977783203125,-1.64093017578125
1780625220623126800,1.867126708984375,-0.6680450439453125,1.0102081298828125,-2.19342041015625
1780625220633156900,1.877156982421875,-0.87823486328125,0.645751953125,-2.90289306640625
1780625220643185700,1.887185546875,-0.9832000732421875,0.1407928466796875,-3.5864105224609375
1780625220653214700,1.897214599609375,-0.77972412109375,-0.3500518798828125,-4.0798492431640625
1780625220663244800,1.907244873046875,-0.4191741943359375,-0.8000946044921875,-4.2100830078125
1780625220673273600,1.917273681640625,-0.003387451171875,-0.9844207763671875,-4.0679779052734375
1780625220683302700,1.927302734375,0.380584716796875,-0.8579559326171875,-3.7474212646484375
1780625220693331700,1.937331787109375,0.7314605712890625,-0.6744842529296875,-3.373504638671875
1780625220703361800,1.94736181640625,1.0604248046875,-0.5289306640625,-3.0089263916015625
1780625220713390600,1.957390625,1.239654541015625,-0.42327880859375,-2.6097259521484375
1780625220723419600,1.967419677734375,1.3012237548828125,-0.328094482421875,-2.2373504638671875
1780625220733449700,1.97744970703125,1.2027740478515625,-0.2625579833984375,-1.971588134765625
1780625220743478800,1.987478759765625,0.9796905517578125,-0.167022705078125,-1.754669189453125
1780625220753507600,1.997507568359375,0.74322509765625,-0.0071563720703125,-1.5697021484375
1780625220763537700,2.00753759765625,0.5423583984375,0.2068939208984375,-1.421356201171875
1780625220773566700,2.017566650390625,0.381622314453125,0.572845458984375,-1.1293487548828125
1780625220783595500,2.027595458984375,0.2042388916015625,1.237396240234375,-0.338165283203125
1780625220793625600,2.03762548828125,0.017791748046875,1.3307647705078125,0.0933380126953125
1780625220803654700,2.047654541015625,-0.100677490234375,1.1009521484375,-0.082366943359375
1780625220813683700,2.05768359375,-0.2366485595703125,0.84625244140625,-0.4390106201171875
1780625220823712500,2.06771240234375,-0.3673858642578125,0.86431884765625,-0.5250701904296875
1780625220833742600,2.07774267578125,-0.3636322021484375,1.334503173828125,-0.2234039306640625
1780625220843771600,2.087771728515625,-0.2924346923828125,1.7284393310546875,0.34881591796875
1780625220853800700,2.09780078125,-0.1437530517578125,1.6088714599609375,0.444488525390625
1780625220863830500,2.10783056640625,-0.1287994384765625,1.85906982421875,0.4979400634765625
1780625220873859600,2.117859619140625,-0.06109619140625,1.6259918212890625,0.5068817138671875
1780625220883888600,2.127888671875,0.1750030517578125,1.3107452392578125,0.29254150390625
1780625220893918700,2.137918701171875,0.5928802490234375,0.821319580078125,0.048797607421875
1780625220903947500,2.147947509765625,0.893096923828125,0.483612060546875,-0.2415008544921875
1780625220913976600,2.1579765625,1.0115509033203125,0.493499755859375,-0.3604888916015625
1780625220924006700,2.168006591796875,0.99505615234375,0.57745361328125,-0.38006591796875
1780625220934035500,2.178035400390625,0.79864501953125,0.7432403564453125,-0.5162506103515625
1780625220944064500,2.188064453125,0.53363037109375,0.8506927490234375,-0.7105865478515625
1780625220954093600,2.198093505859375,0.267425537109375,0.823455810546875,-0.9423980712890625
1780625220964123600,2.20812353515625,0.085906982421875,0.728424072265625,-1.149200439453125
1780625220974152400,2.21815234375,-0.1359710693359375,0.68017578125,-1.3151702880859375
1780625220984181800,2.228181640625,-0.4021148681640625,0.700225830078125,-1.3928375244140625
1780625220994211600,2.238211669921875,-0.59234619140625,0.6994171142578125,-1.472412109375
1780625221004240600,2.24824072265625,-0.7720794677734375,0.52386474609375,-1.506103515625
1780625221014269700,2.258269775390625,-0.509674072265625,0.7479248046875,-1.3985748291015625
1780625221024299500,2.268299560546875,-0.0599822998046875,1.098175048828125,-1.342987060546875
1780625221034328600,2.27832861328125,0.0133514404296875,1.005462646484375,-1.170989990234375
1780625221044358000,2.28835791015625,0.1306915283203125,0.9842681884765625,-0.965911865234375
1780625221054387500,2.298387451171875,0.0202178955078125,0.834136962890625,-0.891998291015625
1780625221064416800,2.308416748046875,0.00885009765625,0.7030029296875,-0.81622314453125
1780625221074445800,2.31844580078125,-0.0887451171875,0.7845916748046875,-0.7642822265625
1780625221084474600,2.328474609375,-0.2513427734375,0.863372802734375,-0.7567596435546875
1780625221094504700,2.338504638671875,-0.2789154052734375,1.0203399658203125,-0.700225830078125
1780625221104533800,2.34853369140625,-0.263427734375,1.081756591796875,-0.5891876220703125
1780625221114562800,2.358562744140625,-0.1945953369140625,1.0460052490234375,-0.524993896484375
1780625221124592600,2.368592529296875,-0.0497283935546875,0.96337890625,-0.5037689208984375
1780625221134621700,2.37862158203125,0.142333984375,0.81878662109375,-0.5183563232421875
1780625221144650800,2.388650634765625,0.108978271484375,0.7448272705078125,-0.6097412109375
1780625221154680800,2.398680908203125,0.0264129638671875,0.7586669921875,-0.711212158203125
1780625221164709600,2.408709716796875,0.014678955078125,0.7413330078125,-0.7667083740234375
1780625221174738700,2.41873876953125,-0.0045013427734375,0.67095947265625,-0.7394866943359375
1780625221184768800,2.428768798828125,-0.0302886962890625,0.5778656005859375,-0.683624267578125
1780625221194797800,2.4387978515625,-0.08392333984375,0.4312286376953125,-0.5749359130859375
1780625221204826600,2.44882666015625,-0.222503662109375,0.256317138671875,-0.496612548828125
1780625221214856700,2.458856689453125,-0.2435760498046875,0.213226318359375,-0.436004638671875
1780625221224885800,2.4688857421875,-0.1949462890625,0.20904541015625,-0.4025421142578125
1780625221234914600,2.47891455078125,-0.09661865234375,0.230926513671875,-0.3680877685546875
1780625221244943600,2.488943603515625,0.005401611328125,0.2867431640625,-0.36083984375
1780625221254973700,2.4989736328125,0.0919342041015625,0.31622314453125,-0.342041015625
1780625221265002800,2.509002685546875,0.1005401611328125,0.308837890625,-0.263092041015625
1780625221275031600,2.519031494140625,0.02740478515625,0.281036376953125,-0.1931915283203125
1780625221285061600,2.5290615234375,-0.0708770751953125,0.3801422119140625,-0.1874542236328125
1780625221295090700,2.539090576171875,-0.06268310546875,0.4954681396484375,-0.16412353515625
1780625221305119700,2.54911962890625,0.0202178955078125,0.6945953369140625,-0.1373748779296875
1780625221315149600,2.559149658203125,-0.0371246337890625,1.2079010009765625,-0.1653900146484375
1780625221325179100,2.56917919921875,-0.247467041015625,1.7588958740234375,-0.2490386962890625
1780625221335208200,2.579208251953125,-0.1667938232421875,1.64312744140625,-0.0308380126953125
1780625221345238300,2.58923828125,0.00323486328125,1.560028076171875,0.127655029296875
1780625221355267000,2.59926708984375,0.1946868896484375,1.648193359375,0.2135162353515625
1780625221365296000,2.609296142578125,0.21014404296875,1.4272613525390625,0.335479736328125
1780625221375325200,2.6193251953125,0.2055206298828125,1.1384124755859375,0.4645843505859375
1780625221385355300,2.629355224609375,0.183502197265625,0.9042510986328125,0.559844970703125
1780625221395384000,2.639384033203125,0.0908660888671875,0.8191680908203125,0.549774169921875
1780625221405413000,2.6494130859375,0.04290771484375,0.882354736328125,0.470245361328125
1780625221415443200,2.659443115234375,0.0203857421875,1.02789306640625,0.376739501953125
1780625221425472300,2.66947216796875,0.008636474609375,1.156951904296875,0.2530059814453125
1780625221435501000,2.6795009765625,0.095062255859375,1.3082122802734375,0.1967010498046875
1780625221445531100,2.68953125,0.2137908935546875,1.4563751220703125,0.168121337890625
1780625221455560200,2.699560302734375,0.1322021484375,1.465179443359375,0.1171875
1780625221465589000,2.709589111328125,-0.0534210205078125,1.3629150390625,0.0460205078125
1780625221475619000,2.719619140625,-0.1452789306640625,1.2478790283203125,-0.0084991455078125
1780625221485648100,2.729648193359375,-0.1736297607421875,1.175750732421875,-0.050994873046875
1780625221495677200,2.73967724609375,-0.1823883056640625,1.134124755859375,-0.106536865234375
1780625221505707300,2.749707275390625,-0.1731414794921875,1.0697021484375,-0.1573944091796875
1780625221515736000,2.759736083984375,-0.147430419921875,0.9938201904296875,-0.1977691650390625
1780625221525765000,2.76976513671875,-0.1362152099609375,0.91192626953125,-0.240966796875
1780625221535795200,2.779795166015625,-0.15435791015625,0.7880859375,-0.2923583984375
1780625221545824000,2.789823974609375,-0.2422943115234375,0.840179443359375,-0.312896728515625
1780625221555853000,2.79985302734375,-0.202911376953125,0.9296112060546875,-0.3440093994140625
1780625221565882000,2.809882080078125,-0.10858154296875,1.01824951171875,-0.3665618896484375
1780625221575912200,2.819912109375,-0.05084228515625,1.1690216064453125,-0.3317108154296875
1780625221585941000,2.82994091796875,-0.0980682373046875,1.3512725830078125,-0.221221923828125
1780625221595970000,2.839969970703125,-0.1735382080078125,1.3637847900390625,-0.0776824951171875
1780625221606000000,2.850000244140625,-0.174163818359375,1.229034423828125,0.0465087890625
1780625221616029200,2.860029296875,-0.18280029296875,1.104583740234375,0.1368560791015625
1780625221626058000,2.87005810546875,-0.19659423828125,0.9974822998046875,0.2429656982421875
1780625221636088000,2.880088134765625,-0.22174072265625,0.9148712158203125,0.3249359130859375
1780625221646117000,2.8901171875,-0.2143096923828125,0.8413848876953125,0.369598388671875
1780625221656146200,2.900146240234375,-0.031829833984375,0.7640228271484375,0.357086181640625
1780625221666176000,2.910176025390625,0.2148284912109375,0.7565765380859375,0.286651611328125
1780625221676205000,2.920205078125,0.33209228515625,0.8454132080078125,0.18707275390625
1780625221686234000,2.930234130859375,0.2986602783203125,0.9478759765625,0.0909576416015625
1780625221696264200,2.94026416015625,0.2467803955078125,1.0101776123046875,0.0560760498046875
1780625221706293000,2.95029296875,0.1638031005859375,1.0448150634765625,0.063690185546875
1780625221716322300,2.960322265625,0.05828857421875,1.0758056640625,0.1101837158203125
1780625221726352100,2.97035205078125,0.0731658935546875,1.105987548828125,0.1696929931640625
1780625221736381000,2.980380859375,0.150238037109375,1.068939208984375,0.204833984375
1780625221746410200,2.99041015625,0.250396728515625,1.02618408203125,0.226409912109375
1780625221756439300,3.000439208984375,0.357208251953125,0.955474853515625,0.2216949462890625
1780625221766469000,3.01046923828125,0.3708648681640625,0.8753814697265625,0.19512939453125
1780625221776498200,3.020498291015625,0.305145263671875,0.8053436279296875,0.1670684814453125
1780625221786527200,3.03052734375,0.2601776123046875,0.7155914306640625,0.152130126953125
1780625221796557300,3.040557373046875,0.2493438720703125,0.6802215576171875,0.1389617919921875
1780625221806586400,3.05058642578125,0.2831573486328125,0.6764068603515625,0.095611572265625
1780625221816615200,3.060615234375,0.3142242431640625,0.662017822265625,0.048095703125
1780625221826645200,3.070645263671875,0.310821533203125,0.6891632080078125,0.0075531005859375
1780625221836674300,3.08067431640625,0.2832489013671875,0.7476654052734375,-0.0080718994140625
1780625221846703000,3.090703125,0.2485504150390625,0.8119659423828125,-0.0233154296875
1780625221856733200,3.100733154296875,0.2559051513671875,0.82037353515625,-0.0791168212890625
1780625221866762200,3.11076220703125,0.2856292724609375,0.8037567138671875,-0.142852783203125
1780625221876791300,3.120791259765625,0.286041259765625,0.8054046630859375,-0.1578369140625
1780625221886821400,3.1308212890625,0.2613983154296875,0.8322296142578125,-0.144256591796875
1780625221896850200,3.14085009765625,0.2441253662109375,0.8634033203125,-0.1235198974609375
1780625221906879200,3.150879150390625,0.223968505859375,0.90643310546875,-0.0790557861328125
1780625221916909300,3.160909423828125,0.22918701171875,0.92205810546875,-0.0391387939453125
1780625221926938000,3.170938232421875,0.2658538818359375,0.9168853759765625,-0.0166778564453125
1780625221936967200,3.18096728515625,0.2878265380859375,0.9197235107421875,-0.0199127197265625
1780625221946997200,3.190997314453125,0.2815093994140625,0.9477386474609375,-0.0366058349609375
1780625221957026300,3.2010263671875,0.29608154296875,1.0156402587890625,-0.067596435546875
1780625221967055000,3.21105517578125,0.3159332275390625,1.1146392822265625,-0.094818115234375
1780625221977084200,3.221084228515625,0.248931884765625,1.215667724609375,-0.0913238525390625
1780625221987114200,3.2311142578125,0.1255340576171875,1.272003173828125,-0.055877685546875
1780625221997143300,3.241143310546875,0.015167236328125,1.3390655517578125,0.0036468505859375
1780625222007172000,3.251172119140625,-0.0748291015625,1.4187164306640625,0.07818603515625
1780625222017202200,3.2612021484375,-0.038818359375,1.418914794921875,0.1347198486328125
1780625222027231200,3.271231201171875,0.206298828125,1.4057464599609375,0.20831298828125
1780625222037260000,3.281260009765625,0.4555206298828125,1.38873291015625,0.2587127685546875
1780625222047290000,3.2912900390625,0.334136962890625,1.3150482177734375,0.2494354248046875
1780625222057319200,3.301319091796875,-0.021331787109375,1.1690216064453125,0.23309326171875
1780625222067348200,3.31134814453125,-0.16864013671875,1.0610504150390625,0.265167236328125
1780625222077378300,3.32137841796875,-0.048309326171875,0.994537353515625,0.3354644775390625
1780625222087407000,3.331406982421875,0.1034393310546875,0.883575439453125,0.4056854248046875
1780625222097436200,3.341436279296875,0.123931884765625,0.8376007080078125,0.4422149658203125
1780625222107466200,3.35146630859375,0.0804290771484375,0.805450439453125,0.4428253173828125
1780625222117495000,3.3614951171875,0.019073486328125,0.821380615234375,0.434814453125
1780625222127524000,3.371524169921875,-0.00433349609375,0.8712005615234375,0.385711669921875
1780625222137554200,3.38155419921875,0.0084381103515625,0.94879150390625,0.2889404296875
1780625222147583200,3.391583251953125,0.053253173828125,1.0383758544921875,0.20428466796875
1780625222157612000,3.401612060546875,0.080963134765625,1.0494232177734375,0.1567535400390625
1780625222167641000,3.41164111328125,0.04327392578125,0.977783203125,0.135650634765625
1780625222177671200,3.421671142578125,-0.0735626220703125,0.9423065185546875,0.145233154296875
1780625222187700200,3.4317001953125,-0.1689453125,0.939056396484375,0.159027099609375
1780625222197729000,3.44172900390625,-0.1661224365234375,0.9514007568359375,0.14697265625
1780625222207759000,3.451759033203125,-0.1289825439453125,0.9652099609375,0.14215087890625
1780625222217788200,3.4617880859375,-0.1331787109375,0.93798828125,0.139495849609375
1780625222227817000,3.47181689453125,-0.164764404296875,0.910919189453125,0.145416259765625
1780625222237847000,3.481846923828125,-0.2011260986328125,0.9026336669921875,0.1527557373046875
1780625222247876000,3.4918759765625,-0.220001220703125,0.86712646484375,0.148681640625
1780625222257905200,3.5019052734375,-0.2520904541015625,0.8542022705078125,0.147308349609375
1780625222267935200,3.511935302734375,-0.317535400390625,0.8658599853515625,0.154632568359375
1780625222277964000,3.521964111328125,-0.3921661376953125,0.9075469970703125,0.1584320068359375
1780625222287993000,3.5319931640625,-0.4691009521484375,0.9817047119140625,0.1576385498046875
1780625222298023200,3.542023193359375,-0.4861907958984375,1.0069427490234375,0.1433563232421875
1780625222308052000,3.552052001953125,-0.4436798095703125,1.0088958740234375,0.1252899169921875
1780625222318081000,3.5620810546875,-0.4360504150390625,1.0172576904296875,0.1012420654296875
1780625222328111600,3.572111572265625,-0.4300689697265625,1.0031585693359375,0.0866851806640625
1780625222338140700,3.582140625,-0.4226226806640625,0.974365234375,0.0934295654296875
1780625222348169500,3.59216943359375,-0.3986358642578125,0.939544677734375,0.121246337890625
1780625222358199600,3.602199462890625,-0.38360595703125,0.9340057373046875,0.1429901123046875
1780625222368228600,3.612228515625,-0.428253173828125,0.937652587890625,0.167633056640625
1780625222378257700,3.622257568359375,-0.276580810546875,0.8398284912109375,0.166900634765625
1780625222388287500,3.63228759765625,-0.208740234375,0.8272705078125,0.1948699951171875
1780625222398316500,3.642316650390625,-0.24462890625,0.889312744140625,0.20928955078125
1780625222408345600,3.652345703125,-0.226165771484375,0.9044189453125,0.216888427734375
1780625222418374700,3.662374755859375,-0.2316436767578125,0.9256591796875,0.2290191650390625
1780625222428404500,3.672404541015625,-0.260467529296875,0.9539794921875,0.2378082275390625
1780625222438433500,3.68243359375,-0.27056884765625,0.9618072509765625,0.238739013671875
1780625222448462800,3.692462890625,-0.2570648193359375,0.9311065673828125,0.2333221435546875
1780625222458492700,3.70249267578125,-0.2299957275390625,0.8720703125,0.2189178466796875
1780625222468521500,3.712521484375,-0.221893310546875,0.828369140625,0.2028045654296875
1780625222478550800,3.72255078125,-0.221343994140625,0.78131103515625,0.1902008056640625
1780625222488580600,3.73258056640625,-0.2345733642578125,0.7884979248046875,0.1947174072265625
1780625222498609700,3.742609619140625,-0.2048187255859375,0.825836181640625,0.20343017578125
1780625222508638700,3.752638671875,-0.1754913330078125,0.884765625,0.2046661376953125
1780625222518668500,3.76266845703125,-0.1943206787109375,0.949066162109375,0.1987457275390625
1780625222528697900,3.77269775390625,-0.21392822265625,0.9707489013671875,0.1779937744140625
1780625222538726700,3.7827265625,-0.246063232421875,0.9880523681640625,0.15118408203125
1780625222548756500,3.792756591796875,-0.307037353515625,0.994293212890625,0.13079833984375
1780625222558785800,3.802785888671875,-0.3152923583984375,0.8977813720703125,0.1168670654296875
1780625222568814800,3.81281494140625,-0.3855133056640625,0.8925628662109375,0.124114990234375
1780625222578844700,3.8228447265625,-0.37139892578125,0.9461669921875,0.1488494873046875
1780625222588873700,3.832873779296875,-0.2865753173828125,0.9738006591796875,0.157562255859375
1780625222598902800,3.84290283203125,-0.2354888916015625,0.9340972900390625,0.132354736328125
1780625222608932600,3.8529326171875,-0.3127593994140625,0.9965667724609375,0.1093292236328125
1780625222618961700,3.862961669921875,-0.2785797119140625,0.9926300048828125,0.0854339599609375
1780625222628990700,3.87299072265625,-0.23583984375,0.985443115234375,0.0583648681640625
1780625222639020800,3.883020751953125,-0.1733856201171875,0.9586334228515625,0.031982421875
1780625222649049900,3.8930498046875,-0.1703033447265625,1.01287841796875,0.0235137939453125
1780625222659078700,3.90307861328125,-0.1611480712890625,1.0202789306640625,0.0308990478515625
1780625222669108700,3.913108642578125,-0.161224365234375,0.9893798828125,0.0451202392578125
1780625222679137800,3.9231376953125,-0.16119384765625,0.94915771484375,0.056976318359375
1780625222689166600,3.93316650390625,-0.1954803466796875,0.9718017578125,0.0858306884765625
1780625222699196700,3.94319677734375,-0.22393798828125,0.984710693359375,0.1178131103515625
1780625222709225700,3.953225830078125,-0.225494384765625,0.99920654296875,0.150390625
1780625222719254800,3.9632548828125,-0.1914215087890625,0.968109130859375,0.1788482666015625
1780625222729284900,3.973284912109375,-0.1641998291015625,0.938262939453125,0.2039947509765625
1780625222739313700,3.983313720703125,-0.1543121337890625,0.9644927978515625,0.2274322509765625
1780625222749342700,3.9933427734375,-0.18115234375,1.0276641845703125,0.2356719970703125
1780625222759371800,4.003371826171875,-0.1724853515625,1.0500640869140625,0.2304840087890625
1780625222769401600,4.013401611328125,-0.0877685546875,1.055908203125,0.197906494140625
1780625222779430700,4.0234306640625,-0.0278167724609375,1.0473785400390625,0.1416778564453125
1780625222789459700,4.033459716796875,-0.1156005859375,1.04351806640625,0.095733642578125
1780625222799489800,4.04348974609375,-0.2077178955078125,1.0218658447265625,0.0797576904296875
1780625222809518600,4.0535185546875,-0.23907470703125,0.9839630126953125,0.0981597900390625
1780625222819547600,4.063547607421875,-0.131683349609375,0.873199462890625,0.1260528564453125
1780625222829577700,4.07357763671875,0.033966064453125,0.735687255859375,0.170928955078125
1780625222839606800,4.083606689453125,0.093231201171875,0.9310455322265625,0.3104705810546875
1780625222849635600,4.093635498046875,0.17657470703125,0.946502685546875,0.377899169921875
1780625222859665700,4.103665771484375,0.1850433349609375,0.92041015625,0.39532470703125
1780625222869694700,4.11369482421875,0.2491912841796875,0.794189453125,0.3448486328125
1780625222879723500,4.1237236328125,0.2053985595703125,0.755126953125,0.3090057373046875
1780625222889753600,4.133753662109375,0.1417388916015625,0.7316131591796875,0.2891693115234375
1780625222899782700,4.14378271484375,0.137237548828125,0.6806488037109375,0.300506591796875
1780625222909811700,4.153811767578125,0.1405181884765625,0.7231903076171875,0.326385498046875
1780625222919841800,4.163841796875,0.1559295654296875,0.8291015625,0.3650665283203125
1780625222929870600,4.17387060546875,0.2254180908203125,0.9498138427734375,0.4022674560546875
1780625222939899600,4.183899658203125,0.2726287841796875,1.0872039794921875,0.4503021240234375
1780625222949929700,4.1939296875,0.3253173828125,1.13702392578125,0.444000244140625
1780625222959958500,4.20395849609375,0.4855804443359375,1.0735321044921875,0.3369293212890625
1780625222969987600,4.213987548828125,0.6109619140625,1.0275115966796875,0.2757110595703125
1780625222980017700,4.224017578125,0.662933349609375,1.05517578125,0.2773895263671875
1780625222990046700,4.234046630859375,0.6334075927734375,1.0137939453125,0.24542236328125
1780625223000075500,4.244075439453125,0.5712890625,0.84918212890625,0.1973419189453125
1780625223010105600,4.254105712890625,0.4665374755859375,0.6856842041015625,0.1540069580078125
1780625223020134700,4.264134765625,0.346343994140625,0.6224822998046875,0.1489410400390625
1780625223030163700,4.274163818359375,0.2761383056640625,0.5532379150390625,0.1639404296875
1780625223040193500,4.284193603515625,0.279388427734375,0.556671142578125,0.1649017333984375
1780625223050222600,4.29422265625,0.356414794921875,0.5484771728515625,0.131927490234375
1780625223060251600,4.304251708984375,0.478302001953125,0.5796356201171875,0.09844970703125
1780625223070281700,4.31428173828125,0.548187255859375,0.67352294921875,0.0795745849609375
1780625223080310500,4.324310546875,0.5832977294921875,0.7511444091796875,0.0477294921875
1780625223090339600,4.334339599609375,0.591644287109375,0.8191986083984375,0.0242767333984375
1780625223100369700,4.34436962890625,0.54266357421875,0.88592529296875,0.0063018798828125
1780625223110398700,4.354398681640625,0.4568634033203125,0.9713287353515625,0.0025177001953125
1780625223120427500,4.364427490234375,0.4029083251953125,0.9863128662109375,-0.0033721923828125
1780625223130457600,4.37445751953125,0.4074249267578125,1.07586669921875,-0.0032958984375
1780625223140486700,4.384486572265625,0.4100799560546875,1.1766357421875,0.0113372802734375
1780625223150515500,4.394515380859375,0.3609771728515625,1.2385406494140625,0.0706329345703125
1780625223160545500,4.404545654296875,0.272247314453125,1.2250823974609375,0.17901611328125
1780625223170574600,4.41457470703125,0.1823272705078125,1.3412628173828125,0.3043975830078125
1780625223180603600,4.424603759765625,0.1318206787109375,1.5090484619140625,0.3946533203125
1780625223190633700,4.4346337890625,0.1050262451171875,1.5888671875,0.49005126953125
1780625223200662500,4.44466259765625,0.071136474609375,1.4840240478515625,0.62481689453125
1780625223210691600,4.454691650390625,0.1199188232421875,1.3028411865234375,0.75482177734375
1780625223220721700,4.4647216796875,0.2548828125,1.0586395263671875,0.827362060546875
1780625223230750500,4.47475048828125,0.347412109375,0.9215087890625,0.8197479248046875
1780625223240779500,4.484779541015625,0.2704925537109375,0.90960693359375,0.6211090087890625
1780625223250809600,4.4948095703125,0.2210235595703125,0.8821868896484375,0.392059326171875
1780625223260838700,4.504838623046875,0.2573394775390625,0.8320159912109375,0.26190185546875
1780625223270867700,4.51486767578125,0.272369384765625,0.8730010986328125,0.1964263916015625
1780625223280897500,4.5248974609375,0.254425048828125,0.8443450927734375,0.153839111328125
1780625223290926600,4.534926513671875,0.1580963134765625,0.782806396484375,0.131500244140625
1780625223300955600,4.54495556640625,0.0462493896484375,0.7759857177734375,0.1484832763671875
1780625223310985500,4.5549853515625,-0.038238525390625,0.88311767578125,0.1789093017578125
1780625223321014500,4.5650146484375,-0.0306549072265625,0.7872467041015625,0.18359375
1780625223331043000,4.57504296875,-0.0096893310546875,0.6543121337890625,0.1938934326171875
1780625223341073200,4.5850732421875,-0.042633056640625,0.6395263671875,0.219482421875
1780625223351102200,4.595102294921875,-0.039703369140625,0.589752197265625,0.21905517578125
1780625223361131000,4.605131103515625,-0.0428924560546875,0.517578125,0.20428466796875
1780625223371161000,4.6151611328125,-0.024627685546875,0.4439849853515625,0.1744537353515625
1780625223381190100,4.625190185546875,-0.048675537109375,0.4658203125,0.1707000732421875
1780625223391219200,4.63521923828125,-0.1648406982421875,0.7402496337890625,0.2398223876953125
1780625223401249000,4.6452490234375,-0.2011260986328125,1.04400634765625,0.2981719970703125
1780625223411278000,4.655278076171875,-0.13165283203125,1.1484832763671875,0.3411712646484375
1780625223421307100,4.66530712890625,-0.096954345703125,1.2325897216796875,0.384979248046875
1780625223431337200,4.675337158203125,-0.1007232666015625,1.3055267333984375,0.432403564453125
1780625223441366000,4.685365966796875,-0.11285400390625,1.2953643798828125,0.4683380126953125
1780625223451395000,4.69539501953125,-0.136474609375,1.293670654296875,0.478240966796875
1780625223461425200,4.705425048828125,-0.1912078857421875,1.37506103515625,0.4642333984375
1780625223471454200,4.7154541015625,-0.2392730712890625,1.42742919921875,0.4232635498046875
1780625223481483000,4.72548291015625,-0.2704925537109375,1.4356689453125,0.369354248046875
1780625223491513000,4.73551318359375,-0.292999267578125,1.4129638671875,0.3147735595703125
1780625223501542100,4.745542236328125,-0.29010009765625,1.3235931396484375,0.2740325927734375
1780625223511571000,4.755571044921875,-0.3119659423828125,1.245330810546875,0.2652587890625
1780625223521601000,4.76560107421875,-0.27001953125,1.0025787353515625,0.2243194580078125
1780625223531630000,4.775630126953125,-0.2076263427734375,0.739593505859375,0.1499481201171875
1780625223541659100,4.7856591796875,-0.1229095458984375,0.5883331298828125,0.083282470703125
1780625223551689200,4.795689208984375,-0.10406494140625,0.5818328857421875,0.034942626953125
1780625223561718000,4.805718017578125,-0.1573638916015625,0.66839599609375,0.0288848876953125
1780625223571747000,4.8157470703125,-0.20166015625,0.9232330322265625,0.0572357177734375
1780625223581777200,4.825777099609375,0.06134033203125,0.9402313232421875,0.023590087890625
1780625223591806000,4.835805908203125,0.334381103515625,0.69287109375,0.006439208984375
1780625223601835000,4.8458349609375,0.382843017578125,0.5686187744140625,0.0429534912109375
1780625223611865000,4.855864990234375,0.2892913818359375,0.5611419677734375,0.1087799072265625
1780625223621894100,4.86589404296875,0.143829345703125,0.66888427734375,0.2028350830078125
1780625223631923000,4.8759228515625,0.0865631103515625,0.778228759765625,0.269683837890625
1780625223641953000,4.885953125,0.083038330078125,0.8198089599609375,0.291290283203125
1780625223651982000,4.895982177734375,0.1231536865234375,0.84033203125,0.304412841796875
1780625223662011100,4.90601123046875,0.15008544921875,0.85601806640625,0.3277130126953125
1780625223672040000,4.9160400390625,0.1483154296875,0.8803558349609375,0.337860107421875
1780625223682070000,4.926070068359375,0.115386962890625,0.9828033447265625,0.3404388427734375
1780625223692099000,4.93609912109375,0.1220550537109375,0.96942138671875,0.3178253173828125
1780625223702127900,4.9461279296875,0.1685638427734375,0.852020263671875,0.270477294921875
1780625223712158000,4.956157958984375,0.162811279296875,0.8170318603515625,0.24658203125
1780625223722187000,4.96618701171875,0.137054443359375,0.7887420654296875,0.22296142578125
1780625223732216000,4.976216064453125,0.060211181640625,0.8672637939453125,0.2093353271484375
1780625223742246100,4.98624609375,0.0589599609375,0.8571014404296875,0.1983795166015625
1780625223752275000,4.99627490234375,0.0267486572265625,0.9874114990234375,0.2066497802734375
1780625223762304000,5.006303955078125,0.004425048828125,1.100372314453125,0.2198486328125
1780625223772334000,5.016333984375,0.0168304443359375,1.1735992431640625,0.2382659912109375
1780625223782363000,5.02636279296875,0.0496063232421875,1.2024078369140625,0.2381134033203125
1780625223792392000,5.036391845703125,0.0546112060546875,1.1553192138671875,0.2069091796875
1780625223802422000,5.046422119140625,0.059234619140625,1.1580657958984375,0.174774169921875
1780625223812451000,5.056451171875,0.0727996826171875,1.2217254638671875,0.1546478271484375
1780625223822480000,5.06647998046875,0.1043548583984375,1.2170562744140625,0.1231536865234375
1780625223832510000,5.076510009765625,0.12176513671875,1.2279510498046875,0.104034423828125
1780625223842539000,5.0865390625,0.1011810302734375,1.238739013671875,0.1027679443359375
1780625223852568000,5.096568115234375,0.058319091796875,1.2373046875,0.113922119140625
1780625223862598000,5.106597900390625,0.0201873779296875,1.1808013916015625,0.1273651123046875
1780625223872627000,5.116626953125,0.015289306640625,1.1181182861328125,0.148651123046875
1780625223882656000,5.126656005859375,0.0962677001953125,1.0713043212890625,0.172882080078125
1780625223892686000,5.13668603515625,0.020599365234375,1.0622100830078125,0.216827392578125
1780625223902715000,5.14671484375,-0.1021270751953125,0.9249420166015625,0.2121124267578125
1780625223912744000,5.156743896484375,-0.060028076171875,0.898193359375,0.275054931640625
1780625223922774000,5.16677392578125,-0.082183837890625,0.9868621826171875,0.356536865234375
1780625223932802800,5.176802734375,-0.1407470703125,1.00616455078125,0.433013916015625
1780625223942831900,5.186831787109375,-0.14471435546875,1.0154876708984375,0.53143310546875
1780625223952862000,5.196862060546875,-0.0576629638671875,0.9343414306640625,0.6092529296875
1780625223962891000,5.20689111328125,0.117523193359375,0.7504119873046875,0.6375885009765625
1780625223972920000,5.216920166015625,0.279388427734375,0.623931884765625,0.6346435546875
1780625223982950000,5.226949951171875,0.3365936279296875,0.66253662109375,0.559814453125
1780625223992979000,5.23697900390625,0.258453369140625,0.81451416015625,0.4325408935546875
1780625224003008000,5.247008056640625,0.1463470458984375,0.9394073486328125,0.353790283203125
1780625224013037800,5.257037841796875,0.1188201904296875,1.02655029296875,0.30853271484375
1780625224023067000,5.26706689453125,0.1468353271484375,1.10986328125,0.2536163330078125
1780625224033096200,5.27709619140625,0.1863861083984375,1.1859283447265625,0.20501708984375
1780625224043126000,5.2871259765625,0.188385009765625,1.198944091796875,0.199371337890625
1780625224053155000,5.297155029296875,0.183319091796875,1.0925445556640625,0.2305755615234375
1780625224063184100,5.30718408203125,0.1869354248046875,0.917755126953125,0.2733306884765625
1780625224073214000,5.3172138671875,0.2188873291015625,0.7372283935546875,0.3016815185546875
1780625224083243000,5.327242919921875,0.247314453125,0.575164794921875,0.288604736328125
1780625224093272000,5.33727197265625,0.2567901611328125,0.468658447265625,0.264007568359375
1780625224103302000,5.347302001953125,0.248779296875,0.40093994140625,0.2363433837890625
1780625224113331200,5.357331298828125,0.2379150390625,0.360504150390625,0.19146728515625
1780625224123360000,5.367360107421875,0.237152099609375,0.336151123046875,0.1348419189453125
1780625224133389800,5.377389892578125,0.242401123046875,0.34112548828125,0.09228515625
1780625224143419100,5.387419189453125,0.2456512451171875,0.38653564453125,0.0661163330078125
1780625224153448200,5.3974482421875,0.2176513671875,0.4574432373046875,0.072509765625
1780625224163478000,5.40747802734375,0.182525634765625,0.544952392578125,0.11224365234375
1780625224173507000,5.417507080078125,0.1433868408203125,0.5967559814453125,0.124542236328125
1780625224183536000,5.4275361328125,0.1075439453125,0.6250152587890625,0.1746063232421875
1780625224193566200,5.437566162109375,0.14801025390625,0.688079833984375,0.2248382568359375
1780625224203595000,5.447594970703125,0.1971435546875,0.7550201416015625,0.250701904296875
1780625224213624000,5.4576240234375,0.2051544189453125,0.792266845703125,0.26446533203125
1780625224223654100,5.467654052734375,0.18505859375,0.8136138916015625,0.2756805419921875
1780625224233683200,5.47768310546875,0.1660003662109375,0.8324432373046875,0.3067169189453125
1780625224243712000,5.4877119140625,0.1565093994140625,0.8360748291015625,0.337921142578125
1780625224253742000,5.4977421875,0.1513824462890625,0.8377685546875,0.3590850830078125
1780625224263771100,5.507771240234375,0.19207763671875,0.89178466796875,0.381011962890625
1780625224273800200,5.51780029296875,0.3042449951171875,1.012908935546875,0.38983154296875
1780625224283830000,5.527830078125,0.417938232421875,1.213653564453125,0.3833465576171875
1780625224293859000,5.537859130859375,0.4108123779296875,1.374176025390625,0.3629608154296875
1780625224303888100,5.54788818359375,0.2970123291015625,1.4107513427734375,0.302032470703125
1780625224313918200,5.557918212890625,0.2097930908203125,1.359100341796875,0.19769287109375
1780625224323947000,5.567947021484375,0.1050262451171875,1.22064208984375,0.0859222412109375
1780625224333975800,5.577975830078125,0.02203369140625,1.1306610107421875,0.0450592041015625
1780625224344005600,5.588005615234375,0.1014404296875,1.1036224365234375,0.09716796875
1780625224354034700,5.59803466796875,0.2312469482421875,1.14105224609375,0.2220001220703125
1780625224364063700,5.608063720703125,0.249603271484375,1.18304443359375,0.4140167236328125
1780625224374093800,5.61809375,0.168792724609375,1.259124755859375,0.5493316650390625
1780625224384122600,5.62812255859375,0.2043304443359375,1.4536285400390625,0.6041412353515625
1780625224394151700,5.638151611328125,0.2857818603515625,1.5639801025390625,0.5498809814453125
1780625224404181800,5.648181640625,0.411041259765625,1.7488250732421875,0.579803466796875
1780625224414210800,5.6582109375,0.7299041748046875,1.4462738037109375,0.8284149169921875
1780625224424239600,5.668239501953125,0.6329345703125,0.7732086181640625,0.8074188232421875
1780625224434269700,5.678269775390625,0.2353515625,0.599884033203125,0.7175445556640625
1780625224444298800,5.688298828125,-0.151947021484375,0.5846099853515625,0.6217803955078125
1780625224454327600,5.69832763671875,-0.4766693115234375,0.6517181396484375,0.4967041015625
1780625224464357600,5.708357666015625,-0.60223388671875,0.769744873046875,0.42626953125
1780625224474386700,5.71838671875,-0.4022979736328125,0.82867431640625,0.4464111328125
1780625224484415700,5.728415771484375,-0.0991363525390625,0.907806396484375,0.4530181884765625
1780625224494445800,5.73844580078125,0.093475341796875,1.065155029296875,0.4221038818359375
1780625224504474600,5.748474609375,0.2549285888671875,1.203369140625,0.3816986083984375
1780625224514503700,5.758503662109375,0.31915283203125,1.3341064453125,0.33966064453125
1780625224524533800,5.76853369140625,0.3360137939453125,1.3734588623046875,0.301055908203125
1780625224534562600,5.7785625,0.33038330078125,1.2937164306640625,0.3000640869140625
1780625224544591600,5.788591552734375,0.184417724609375,1.111358642578125,0.2819671630859375
1780625224554621700,5.79862158203125,0.02276611328125,0.9823760986328125,0.255706787109375
1780625224564650800,5.808650634765625,-0.066192626953125,0.9276580810546875,0.2479095458984375
1780625224574679600,5.818679443359375,-0.0829925537109375,0.89630126953125,0.2502288818359375
1780625224584709600,5.828709716796875,-0.0454559326171875,0.8754425048828125,0.2527313232421875
1780625224594738700,5.83873876953125,-0.017303466796875,0.856658935546875,0.265167236328125
1780625224604767700,5.848767822265625,-0.044097900390625,0.8052520751953125,0.2673492431640625
1780625224614797600,5.858797607421875,-0.075347900390625,0.740203857421875,0.2493438720703125
1780625224624826600,5.86882666015625,-0.064605712890625,0.7120513916015625,0.2441558837890625
1780625224634855700,5.878855712890625,-0.026824951171875,0.7068328857421875,0.2447509765625
1780625224644885800,5.8888857421875,-0.0056304931640625,0.7072601318359375,0.2314453125
1780625224654914600,5.89891455078125,0.004974365234375,0.7191314697265625,0.2167816162109375
1780625224664943600,5.908943603515625,0.021942138671875,0.7183685302734375,0.199737548828125
1780625224674973700,5.9189736328125,0.0390472412109375,0.7134246826171875,0.1819305419921875
1780625224685002800,5.929002685546875,0.083099365234375,0.7256927490234375,0.1576385498046875
1780625224695031600,5.939031494140625,0.1273193359375,0.77008056640625,0.143798828125
1780625224705061600,5.9490615234375,0.1381988525390625,0.83642578125,0.1360015869140625
1780625224715090700,5.959090576171875,0.116485595703125,0.914825439453125,0.1341705322265625
1780625224725119500,5.969119384765625,0.0948486328125,0.9852142333984375,0.134796142578125
1780625224735149600,5.979149658203125,0.091033935546875,1.03302001953125,0.1246795654296875
1780625224745178600,5.9891787109375,0.098114013671875,1.0680084228515625,0.111846923828125
1780625224755207700,5.999207763671875,0.0961761474609375,1.0835418701171875,0.0988006591796875
1780625224765237800,6.00923779296875,0.1119537353515625,1.0843505859375,0.093780517578125
1780625224775266600,6.0192666015625,0.1190032958984375,1.08489990234375,0.092254638671875
1780625224785295600,6.029295654296875,0.1122894287109375,1.087310791015625,0.1046295166015625
1780625224795325700,6.03932568359375,0.10760498046875,1.073333740234375,0.128814697265625
1780625224805354500,6.0493544921875,0.084869384765625,1.049652099609375,0.1481475830078125
1780625224815383600,6.059383544921875,0.074951171875,1.0162506103515625,0.1485748291015625
1780625224825413600,6.06941357421875,0.0724029541015625,0.975494384765625,0.1282196044921875
1780625224835442700,6.079442626953125,0.0778350830078125,0.9195709228515625,0.1103363037109375
1780625224845471700,6.0894716796875,0.1051025390625,0.8408966064453125,0.1007232666015625
1780625224855501600,6.09950146484375,0.12884521484375,0.7517547607421875,0.084991455078125
1780625224865530600,6.109530517578125,0.1312408447265625,0.6795501708984375,0.07763671875
1780625224875559700,6.1195595703125,0.1128082275390625,0.6576995849609375,0.0915679931640625
1780625224885589500,6.129589599609375,0.0761566162109375,0.7087860107421875,0.1231842041015625
1780625224895618600,6.13961865234375,-0.018585205078125,0.8442230224609375,0.179046630859375
1780625224905647900,6.14964794921875,-0.1323699951171875,1.0458526611328125,0.297760009765625
1780625224915677700,6.159677734375,0.089599609375,1.4549713134765625,0.5361175537109375
1780625224925706800,6.169706787109375,0.2339019775390625,1.83685302734375,0.7628021240234375
1780625224935735800,6.17973583984375,0.013885498046875,1.745208740234375,0.8429412841796875
1780625224945765600,6.189765625,0.0653228759765625,1.358673095703125,0.8026885986328125
1780625224955794700,6.199794677734375,0.324310302734375,1.0872344970703125,0.7447509765625
1780625224965823700,6.20982373046875,0.1190948486328125,1.0102386474609375,0.7444915771484375
1780625224975853600,6.219853515625,-0.1214599609375,0.890838623046875,0.6766204833984375
1780625224985883000,6.2298828125,-0.096771240234375,0.8055572509765625,0.5809783935546875
1780625224995911700,6.23991162109375,0.0096893310546875,0.8240966796875,0.5338134765625
1780625225005941500,6.24994140625,0.0672149658203125,0.8378448486328125,0.5410614013671875
1780625225015970800,6.259970703125,0.0757904052734375,0.7946624755859375,0.55517578125
1780625225026000000,6.269999755859375,0.1001434326171875,0.7591552734375,0.5659637451171875
1780625225036029700,6.28002978515625,0.12158203125,0.71307373046875,0.5613250732421875
1780625225046058800,6.290058837890625,0.1577301025390625,0.6384429931640625,0.5395050048828125
1780625225056087800,6.300087890625,0.2088165283203125,0.6254119873046875,0.523651123046875
1780625225066118000,6.310117919921875,0.249298095703125,0.6513519287109375,0.516204833984375
1780625225076146700,6.320146728515625,0.3078765869140625,0.644989013671875,0.5081787109375
1780625225086175700,6.33017578125,0.3970947265625,0.617828369140625,0.5028839111328125
1780625225096205800,6.340205810546875,0.482421875,0.5887603759765625,0.485565185546875
1780625225106235000,6.35023486328125,0.519561767578125,0.5494537353515625,0.44354248046875
1780625225116263700,6.360263671875,0.5327911376953125,0.51873779296875,0.3912200927734375
1780625225126293800,6.370293701171875,0.5196533203125,0.5152740478515625,0.3252410888671875
1780625225136322800,6.38032275390625,0.535125732421875,0.535797119140625,0.2698974609375
1780625225146351900,6.390351806640625,0.5671234130859375,0.56561279296875,0.24176025390625
1780625225156381700,6.400381591796875,0.5735015869140625,0.6279754638671875,0.2434234619140625
1780625225166410800,6.41041064453125,0.5508880615234375,0.727752685546875,0.2570648193359375
1780625225176439800,6.420439697265625,0.49139404296875,0.8328857421875,0.2536163330078125
1780625225186470000,6.430469970703125,0.4209747314453125,0.9022369384765625,0.2471923828125
1780625225196498700,6.440498779296875,0.371734619140625,0.90435791015625,0.255584716796875
1780625225206527700,6.45052783203125,0.319580078125,0.89630126953125,0.2576141357421875
1780625225216557800,6.460557861328125,0.257415771484375,0.8638916015625,0.2339324951171875
1780625225226586600,6.470586669921875,0.214630126953125,0.80975341796875,0.211578369140625
1780625225236615700,6.48061572265625,0.2321929931640625,0.769744873046875,0.201690673828125
1780625225246645800,6.490645751953125,0.319244384765625,0.8026275634765625,0.1851348876953125
1780625225256674800,6.5006748046875,0.396697998046875,0.9090118408203125,0.1735992431640625
1780625225266703600,6.51070361328125,0.4189910888671875,1.028350830078125,0.1759033203125
1780625225276733700,6.520733642578125,0.395172119140625,1.0954132080078125,0.1982421875
1780625225286762800,6.5307626953125,0.323028564453125,1.1066436767578125,0.281768798828125
1780625225296791800,6.540791748046875,0.145843505859375,1.0412750244140625,0.4382781982421875
1780625225306821600,6.550821533203125,-0.01507568359375,0.926513671875,0.60577392578125
1780625225316850700,6.5608505859375,-0.07794189453125,0.888031005859375,0.716033935546875
1780625225326879700,6.570879638671875,-0.0227508544921875,0.969451904296875,0.87353515625
1780625225336910300,6.580910400390625,0.354339599609375,1.1882171630859375,1.1196441650390625
1780625225346939100,6.590939208984375,0.91693115234375,1.300537109375,1.23291015625
1780625225356968200,6.60096826171875,0.412445068359375,1.0142059326171875,1.0977935791015625
1780625225366998300,6.610998291015625,-0.1722564697265625,0.789031982421875,0.9063568115234375
1780625225377027300,6.62102734375,-0.2275848388671875,0.73724365234375,0.512725830078125
1780625225387056000,6.63105615234375,-0.05609130859375,0.6514892578125,0.2718963623046875
1780625225397086200,6.641086181640625,0.044830322265625,0.5711669921875,0.2067108154296875
1780625225407115300,6.651115234375,0.0558929443359375,0.5965728759765625,0.175201416015625
1780625225417144000,6.66114404296875,0.057403564453125,0.707550048828125,0.213348388671875
1780625225427174100,6.671174072265625,-0.01910400390625,0.8585968017578125,0.2946624755859375
1780625225437203200,6.681203125,-0.088165283203125,0.9940032958984375,0.36480712890625
1780625225447232300,6.691232177734375,-0.114837646484375,1.1306915283203125,0.4162139892578125
1780625225457262000,6.701261962890625,-0.1241302490234375,1.2279205322265625,0.438018798828125
1780625225467291100,6.711291015625,-0.1102294921875,1.2617645263671875,0.44635009765625
1780625225477320200,6.7213203125,-0.056671142578125,1.210235595703125,0.4475555419921875
1780625225487350300,6.731350341796875,-0.0204010009765625,1.071533203125,0.4373626708984375
1780625225497379000,6.741379150390625,-0.032470703125,0.9248199462890625,0.4357147216796875
1780625225507408100,6.751408203125,-0.057098388671875,0.8118133544921875,0.4630126953125
1780625225517438200,6.761438232421875,-0.0772705078125,0.7305450439453125,0.5013275146484375
1780625225527467300,6.77146728515625,-0.074249267578125,0.67529296875,0.5250701904296875
1780625225537496000,6.78149609375,-0.07183837890625,0.678802490234375,0.52227783203125
1780625225547526100,6.791526123046875,-0.072479248046875,0.7472686767578125,0.5015869140625
1780625225557555200,6.80155517578125,-0.050567626953125,0.8122406005859375,0.465606689453125
1780625225567584300,6.811584228515625,-0.004852294921875,0.868072509765625,0.4321136474609375
1780625225577613000,6.821613037109375,0.050018310546875,0.9204864501953125,0.40728759765625
1780625225587643100,6.83164306640625,0.0999298095703125,0.9462127685546875,0.3805389404296875
1780625225597672200,6.841672119140625,0.1183624267578125,0.95062255859375,0.3452911376953125
1780625225607701000,6.851700927734375,0.11004638671875,0.942047119140625,0.3150177001953125
1780625225617731000,6.86173095703125,0.0858917236328125,0.938690185546875,0.310333251953125
1780625225627760000,6.871760009765625,0.0528717041015625,0.9371490478515625,0.3511962890625
1780625225637789200,6.8817890625,0.03131103515625,0.9293060302734375,0.4149627685546875
1780625225647819000,6.891819091796875,0.0146026611328125,0.935546875,0.4715423583984375
1780625225657848000,6.90184814453125,-0.0013427734375,0.923492431640625,0.5058746337890625
1780625225667877000,6.911877197265625,-0.011260986328125,0.8966827392578125,0.5132904052734375
1780625225677907200,6.9219072265625,-0.010101318359375,0.8698577880859375,0.49139404296875
1780625225687936000,6.93193603515625,-0.0087127685546875,0.854522705078125,0.454681396484375
1780625225697965000,6.941965087890625,0.001220703125,0.846649169921875,0.4268646240234375
1780625225707995100,6.9519951171875,0.0215606689453125,0.84100341796875,0.401275634765625
1780625225718024200,6.962024169921875,0.024017333984375,0.86376953125,0.37451171875
1780625225728053000,6.972052978515625,0.044219970703125,0.903045654296875,0.3657989501953125
1780625225738083000,6.9820830078125,0.065673828125,0.9542388916015625,0.37322998046875
1780625225748112100,6.992112060546875,0.0715789794921875,1.00390625,0.37933349609375
1780625225758141000,7.002140869140625,0.0614776611328125,1.02960205078125,0.38201904296875
1780625225768171000,7.0121708984375,0.0200347900390625,1.0191802978515625,0.38818359375
1780625225778200000,7.022199951171875,-0.0079345703125,0.9881439208984375,0.402435302734375
1780625225788229000,7.03222900390625,-0.0067901611328125,0.935150146484375,0.4152679443359375
1780625225798259200,7.04225927734375,0.00341796875,0.8916015625,0.4119110107421875
1780625225808288000,7.0522880859375,0.0081634521484375,0.8685302734375,0.3952484130859375
1780625225818317000,7.062317138671875,0.00213623046875,0.849365234375,0.376495361328125
1780625225828347100,7.07234716796875,-0.0069122314453125,0.8432159423828125,0.3531494140625
1780625225838376000,7.0823759765625,-0.0006866455078125,0.862152099609375,0.330078125
1780625225848405200,7.0924052734375,0.022247314453125,0.9195404052734375,0.3330535888671875
1780625225858435000,7.10243505859375,0.032135009765625,0.9739227294921875,0.36651611328125
1780625225868464000,7.112464111328125,0.0127105712890625,0.986358642578125,0.3884429931640625
1780625225878493200,7.1224931640625,-0.0135650634765625,0.970428466796875,0.3957061767578125
1780625225888523000,7.13252294921875,-0.016448974609375,0.932525634765625,0.399993896484375
1780625225898552000,7.142552001953125,-0.0067138671875,0.886077880859375,0.4189453125
1780625225908581400,7.152581298828125,0.0164794921875,0.849456787109375,0.444091796875
1780625225918611000,7.16261083984375,0.0280609130859375,0.8320465087890625,0.4391632080078125
1780625225928640000,7.172639892578125,0.018310546875,0.832244873046875,0.3939056396484375
1780625225938669300,7.18266943359375,0.022308349609375,0.8393707275390625,0.342437744140625
1780625225948699100,7.19269921875,0.0282745361328125,0.8550567626953125,0.3132476806640625
1780625225958728200,7.202728271484375,0.0271453857421875,0.8999176025390625,0.3304443359375
1780625225968757200,7.21275732421875,0.06280517578125,0.978302001953125,0.4027252197265625
1780625225978787000,7.222787109375,0.1534576416015625,1.05218505859375,0.4888916015625
1780625225988816400,7.23281640625,0.2430267333984375,1.0774688720703125,0.500946044921875
1780625225998845200,7.24284521484375,0.2525177001953125,1.0440521240234375,0.42071533203125
1780625226008875000,7.252875,0.1899261474609375,0.9573516845703125,0.35809326171875
1780625226018904300,7.262904296875,0.2236175537109375,0.8719024658203125,0.38458251953125
1780625226028933000,7.27293310546875,0.3434295654296875,0.8478546142578125,0.4537811279296875
1780625226038963200,7.282963134765625,0.421783447265625,0.84381103515625,0.5205078125
1780625226048992300,7.2929921875,0.4380035400390625,0.844024658203125,0.5664520263671875
1780625226059021300,7.303021240234375,0.4268798828125,0.835418701171875,0.6040496826171875
1780625226069051400,7.313051513671875,0.409149169921875,0.784088134765625,0.6171722412109375
1780625226079080200,7.323080078125,0.393310546875,0.7496490478515625,0.6108856201171875
1780625226089109200,7.333109130859375,0.393280029296875,0.7282867431640625,0.604766845703125
1780625226099139300,7.343139404296875,0.3965301513671875,0.70135498046875,0.611358642578125
1780625226109168000,7.353168212890625,0.40045166015625,0.6897735595703125,0.607940673828125
1780625226119197200,7.363197265625,0.399169921875,0.70654296875,0.586151123046875
1780625226129227300,7.373227294921875,0.4022064208984375,0.7513275146484375,0.5434722900390625
1780625226139256300,7.38325634765625,0.3939971923828125,0.8039398193359375,0.48516845703125
1780625226149285000,7.39328515625,0.3828887939453125,0.8362274169921875,0.424072265625
1780625226159315200,7.403315185546875,0.364044189453125,0.86767578125,0.365875244140625
1780625226169344300,7.41334423828125,0.337158203125,0.8891448974609375,0.318817138671875
1780625226179373300,7.423373291015625,0.323974609375,0.890594482421875,0.289398193359375
1780625226189403100,7.433403076171875,0.329803466796875,0.888641357421875,0.27484130859375
1780625226199432200,7.44343212890625,0.34222412109375,0.88934326171875,0.273590087890625
1780625226209461200,7.453461181640625,0.3654327392578125,0.889068603515625,0.2911834716796875
1780625226219491300,7.4634912109375,0.3856201171875,0.88470458984375,0.3159332275390625
1780625226229520100,7.47352001953125,0.3954620361328125,0.87548828125,0.3336639404296875
1780625226239549200,7.483549072265625,0.4032745361328125,0.859283447265625,0.333282470703125
1780625226249579300,7.493579345703125,0.412017822265625,0.8472747802734375,0.3213958740234375
1780625226259608300,7.5036083984375,0.4022216796875,0.8392791748046875,0.305328369140625
1780625226269637000,7.51363720703125,0.383544921875,0.8345489501953125,0.2938995361328125
1780625226279667200,7.523667236328125,0.3621826171875,0.8351898193359375,0.2927093505859375
1780625226289696300,7.5336962890625,0.3415679931640625,0.8322296142578125,0.3007049560546875
1780625226299725000,7.54372509765625,0.326019287109375,0.8204193115234375,0.3230133056640625
1780625226309755100,7.553755126953125,0.315216064453125,0.80963134765625,0.352081298828125
1780625226319784200,7.5637841796875,0.312164306640625,0.8013763427734375,0.3871307373046875
1780625226329812500,7.5738125,0.3209686279296875,0.7976226806640625,0.4229583740234375
1780625226339842600,7.583842529296875,0.3455810546875,0.795867919921875,0.4573516845703125
1780625226349871600,7.59387158203125,0.3815460205078125,0.7903289794921875,0.481414794921875
1780625226359900400,7.603900390625,0.416656494140625,0.7706146240234375,0.4975433349609375
1780625226369930500,7.613930419921875,0.43023681640625,0.756927490234375,0.4965667724609375
1780625226379959600,7.62395947265625,0.41851806640625,0.77618408203125,0.470733642578125
1780625226389988600,7.633988525390625,0.3874359130859375,0.8057861328125,0.437347412109375
1780625226400018700,7.644018798828125,0.358245849609375,0.8278961181640625,0.40875244140625
1780625226410047500,7.654047607421875,0.341339111328125,0.839813232421875,0.3774566650390625
1780625226420076500,7.66407666015625,0.329803466796875,0.851043701171875,0.3472900390625
1780625226430106600,7.674106689453125,0.3195343017578125,0.8586578369140625,0.3187103271484375
1780625226440135400,7.684135498046875,0.3114776611328125,0.86871337890625,0.2906494140625
1780625226450164500,7.69416455078125,0.30621337890625,0.8854522705078125,0.2680511474609375
1780625226460193500,7.704193603515625,0.302642822265625,0.8928680419921875,0.2560577392578125
1780625226470223600,7.7142236328125,0.295440673828125,0.8833160400390625,0.2590789794921875
1780625226480252400,7.72425244140625,0.287139892578125,0.86590576171875,0.2806854248046875
1780625226490281500,7.734281494140625,0.293182373046875,0.853607177734375,0.309906005859375
1780625226500311600,7.7443115234375,0.3122100830078125,0.8523406982421875,0.341705322265625
1780625226510340600,7.754340576171875,0.33026123046875,0.8521575927734375,0.373077392578125
1780625226520369400,7.764369384765625,0.34967041015625,0.8511505126953125,0.399688720703125
1780625226530399500,7.7743994140625,0.3712615966796875,0.837738037109375,0.4229278564453125
1780625226540428500,7.784428466796875,0.3881988525390625,0.8153839111328125,0.4391937255859375
1780625226550457600,7.79445751953125,0.391143798828125,0.801025390625,0.4452972412109375
1780625226560487400,7.8044873046875,0.3921051025390625,0.792816162109375,0.4486236572265625
1780625226570516500,7.8145166015625,0.3970947265625,0.794647216796875,0.4457550048828125
1780625226580545500,7.824545654296875,0.4062347412109375,0.8163909912109375,0.437896728515625
1780625226590575400,7.834575439453125,0.4120330810546875,0.84149169921875,0.427459716796875
1780625226600604400,7.8446044921875,0.411712646484375,0.8593292236328125,0.4071197509765625
1780625226610633700,7.8546337890625,0.38720703125,0.88116455078125,0.381439208984375
1780625226620663600,7.86466357421875,0.353057861328125,0.909515380859375,0.360137939453125
1780625226630692600,7.874692626953125,0.3226470947265625,0.931060791015625,0.34075927734375
1780625226640721700,7.8847216796875,0.2904052734375,0.93988037109375,0.326263427734375
1780625226650751500,7.89475146484375,0.2751312255859375,0.9337005615234375,0.3187408447265625
1780625226660780500,7.904780517578125,0.2810516357421875,0.93267822265625,0.3347625732421875
1780625226670809600,7.9148095703125,0.30194091796875,0.93890380859375,0.3639068603515625
1780625226680839400,7.92483935546875,0.329254150390625,0.9393463134765625,0.398345947265625
1780625226690868700,7.93486865234375,0.3514862060546875,0.9356231689453125,0.433929443359375
1780625226700897500,7.9448974609375,0.37188720703125,0.9258880615234375,0.45574951171875
1780625226710927400,7.95492724609375,0.386962890625,0.9190826416015625,0.465789794921875
1780625226720956700,7.964956787109375,0.387451171875,0.908355712890625,0.46636962890625
1780625226730985700,7.97498583984375,0.373199462890625,0.8983612060546875,0.460601806640625
1780625226741015600,7.985015625,0.36578369140625,0.8832550048828125,0.4503631591796875
1780625226751044600,7.995044677734375,0.3729248046875,0.8633880615234375,0.434051513671875
1780625226761073700,8.00507373046875,0.378753662109375,0.851470947265625,0.424560546875
1780625226771103700,8.015103759765625,0.366607666015625,0.8366546630859375,0.4171600341796875
1780625226781132500,8.025132568359375,0.3533172607421875,0.80126953125,0.40521240234375
1780625226791161600,8.03516162109375,0.3308868408203125,0.7469329833984375,0.3802032470703125
1780625226801191700,8.045191650390626,0.3069915771484375,0.685760498046875,0.3491668701171875
1780625226811220700,8.055220703125,0.28173828125,0.633270263671875,0.32586669921875
1780625226821249500,8.06524951171875,0.2611846923828125,0.5943603515625,0.301422119140625
1780625226831279600,8.075279541015625,0.26806640625,0.61090087890625,0.2862548828125
1780625226841308700,8.08530859375,0.336151123046875,0.6573333740234375,0.3027496337890625
1780625226851337700,8.095337646484374,0.41778564453125,0.7045745849609375,0.3253021240234375
1780625226861367600,8.105367431640625,0.47552490234375,0.755157470703125,0.3247528076171875
1780625226871396600,8.115396728515625,0.487091064453125,0.8011016845703125,0.2978363037109375
1780625226881425700,8.12542578125,0.4572906494140625,0.8295745849609375,0.2628173828125
1780625226891455700,8.135455810546874,0.3960723876953125,0.83349609375,0.230255126953125
1780625226901484500,8.145484619140625,0.328125,0.824188232421875,0.204833984375
1780625226911513600,8.155513671875,0.288848876953125,0.8289947509765625,0.193389892578125
1780625226921543700,8.165543701171876,0.2757568359375,0.8422393798828125,0.199249267578125
1780625226931572700,8.17557275390625,0.289886474609375,0.853424072265625,0.2202301025390625
1780625226941601500,8.1856015625,0.3197784423828125,0.863861083984375,0.2376556396484375
1780625226951631600,8.195631591796875,0.3502349853515625,0.869354248046875,0.24810791015625
1780625226961660700,8.20566064453125,0.3777313232421875,0.8791961669921875,0.2537841796875
1780625226971689500,8.215689453125,0.417083740234375,0.899261474609375,0.2601470947265625
1780625226981719600,8.225719482421875,0.4384613037109375,0.9276580810546875,0.281280517578125
1780625226991748600,8.23574853515625,0.419891357421875,0.9504547119140625,0.31378173828125
1780625227001777700,8.245777587890625,0.387939453125,0.976165771484375,0.3608856201171875
1780625227011807700,8.255807861328124,0.3781280517578125,1.03271484375,0.411895751953125
1780625227021836500,8.26583642578125,0.3972625732421875,1.09442138671875,0.4701080322265625
1780625227031865600,8.275865478515625,0.3531036376953125,1.0689239501953125,0.5457916259765625
1780625227041895700,8.285895751953126,0.2916107177734375,0.9699554443359375,0.598876953125
1780625227051924500,8.295924560546876,0.3463897705078125,0.866424560546875,0.6201171875
1780625227061953500,8.30595361328125,0.5079803466796875,0.7546234130859375,0.60638427734375
1780625227071983600,8.315983642578125,0.540863037109375,0.7421722412109375,0.5325469970703125
1780625227082012700,8.3260126953125,0.371002197265625,0.78887939453125,0.41949462890625
1780625227092041500,8.33604150390625,0.2191925048828125,0.82550048828125,0.3460235595703125
1780625227102070500,8.346070556640624,0.1519317626953125,0.8490142822265625,0.3061065673828125
1780625227112100600,8.3561005859375,0.1476898193359375,0.8828277587890625,0.29376220703125
1780625227122129700,8.366129638671875,0.1678466796875,0.9268951416015625,0.301605224609375
1780625227132158500,8.376158447265626,0.1863250732421875,0.9569091796875,0.2964324951171875
1780625227142188500,8.3861884765625,0.228668212890625,0.9832611083984375,0.2911224365234375
1780625227152217600,8.396217529296875,0.2727813720703125,0.9907379150390625,0.3089447021484375
1780625227162246400,8.406246337890625,0.2772216796875,0.9699249267578125,0.3424224853515625
1780625227172276500,8.4162763671875,0.2336883544921875,0.931793212890625,0.38299560546875
1780625227182305500,8.426305419921874,0.180145263671875,0.902862548828125,0.4148712158203125
1780625227192334600,8.43633447265625,0.1407318115234375,0.8944091796875,0.4365692138671875
1780625227202364700,8.44636474609375,0.1338348388671875,0.8837890625,0.447296142578125
1780625227212393500,8.4563935546875,0.136505126953125,0.8720550537109375,0.45843505859375
1780625227222422500,8.466422607421874,0.1374053955078125,0.8558807373046875,0.4613494873046875
1780625227232452600,8.47645263671875,0.1441802978515625,0.85003662109375,0.4506378173828125
1780625227242481400,8.4864814453125,0.1420135498046875,0.8561248779296875,0.431427001953125
1780625227252510500,8.496510498046876,0.1199493408203125,0.87744140625,0.3940582275390625
1780625227262540500,8.50654052734375,0.0978240966796875,0.901336669921875,0.3455352783203125
1780625227272569600,8.516569580078125,0.0889434814453125,0.922027587890625,0.3066253662109375
1780625227282598400,8.526598388671875,0.1024017333984375,0.93670654296875,0.2881622314453125
1780625227292628500,8.53662841796875,0.11749267578125,0.93878173828125,0.2890625
1780625227302657500,8.546657470703124,0.125762939453125,0.9379119873046875,0.296234130859375
1780625227312686600,8.5566865234375,0.1266326904296875,0.941131591796875,0.3053436279296875
1780625227322716400,8.56671630859375,0.1204986572265625,0.945953369140625,0.313201904296875
1780625227332746500,8.57674658203125,0.116302490234375,0.947113037109375,0.3225250244140625
1780625227342775600,8.586775634765624,0.123016357421875,0.9401397705078125,0.338104248046875
1780625227352805600,8.5968056640625,0.1392059326171875,0.922393798828125,0.3512420654296875
1780625227362834700,8.606834716796875,0.14501953125,0.9206085205078125,0.3602142333984375
1780625227372863500,8.616863525390626,0.1459197998046875,0.91998291015625,0.366119384765625
1780625227382893600,8.6268935546875,0.1570281982421875,0.9126434326171875,0.3581695556640625
1780625227392922600,8.636922607421875,0.1469879150390625,0.9074554443359375,0.3460235595703125
1780625227402951400,8.646951416015625,0.13580322265625,0.9053497314453125,0.3395233154296875
1780625227412981500,8.6569814453125,0.1287689208984375,0.9120330810546875,0.334075927734375
1780625227423010600,8.667010498046874,0.154937744140625,0.9223785400390625,0.3300933837890625
1780625227433039600,8.67703955078125,0.1824493408203125,0.9377593994140625,0.33001708984375
1780625227443069400,8.6870693359375,0.1837921142578125,0.943084716796875,0.3289947509765625
1780625227453098500,8.697098388671876,0.18634033203125,0.93994140625,0.3280181884765625
1780625227463127600,8.70712744140625,0.1876068115234375,0.942352294921875,0.329071044921875
1780625227473157600,8.71715771484375,0.18408203125,0.9459991455078125,0.335052490234375
1780625227483186400,8.7271865234375,0.1772003173828125,0.942626953125,0.336517333984375
1780625227493215500,8.737215576171875,0.170379638671875,0.9417266845703125,0.3331298828125
1780625227503245600,8.74724560546875,0.1538543701171875,0.9358978271484375,0.3329925537109375
1780625227513274600,8.757274658203125,0.13623046875,0.92852783203125,0.332244873046875
1780625227523303400,8.767303466796875,0.13555908203125,0.92449951171875,0.3289642333984375
1780625227533333500,8.77733349609375,0.14984130859375,0.918060302734375,0.325347900390625
1780625227543362600,8.787362548828124,0.1529388427734375,0.9171142578125,0.32666015625
1780625227553391400,8.797391357421875,0.15777587890625,0.921844482421875,0.3219451904296875
1780625227563421400,8.80742138671875,0.1722259521484375,0.9261474609375,0.3238525390625
1780625227573450500,8.817450439453125,0.179412841796875,0.928985595703125,0.3271484375
1780625227583479600,8.8274794921875,0.180938720703125,0.928680419921875,0.3322296142578125
1780625227593509600,8.837509521484375,0.1772613525390625,0.920654296875,0.33843994140625
1780625227603538400,8.847538330078125,0.177276611328125,0.9134979248046875,0.346282958984375
1780625227613567500,8.8575673828125,0.17974853515625,0.9114837646484375,0.3514251708984375
1780625227623596500,8.867596435546876,0.1771697998046875,0.9141845703125,0.3526763916015625
1780625227633626400,8.87762646484375,0.1739959716796875,0.9219207763671875,0.3420867919921875
1780625227643655400,8.887655517578125,0.16912841796875,0.9284820556640625,0.32073974609375
1780625227653684700,8.897684814453125,0.163055419921875,0.9338226318359375,0.3062896728515625
1780625227663714600,8.907714599609376,0.1595611572265625,0.93060302734375,0.2991485595703125
1780625227673743400,8.917743408203124,0.1641693115234375,0.928070068359375,0.295928955078125
1780625227683772700,8.927772705078125,0.1734466552734375,0.9294281005859375,0.2978515625
1780625227693802500,8.937802490234375,0.1764373779296875,0.930084228515625,0.3067626953125
1780625227703831600,8.94783154296875,0.167694091796875,0.9256744384765625,0.3125762939453125
1780625227713860600,8.957860595703124,0.1629180908203125,0.920623779296875,0.31951904296875
1780625227723890400,8.967890380859375,0.158721923828125,0.916778564453125,0.32513427734375
1780625227733919700,8.977919677734375,0.161407470703125,0.90869140625,0.326416015625
1780625227743948500,8.987948486328126,0.16387939453125,0.90643310546875,0.3232421875
1780625227753978400,8.997978271484374,0.1662750244140625,0.9097900390625,0.3187255859375
1780625227764007700,9.008007568359375,0.171661376953125,0.913116455078125,0.3148193359375
1780625227774036700,9.01803662109375,0.1746063232421875,0.9112548828125,0.30914306640625
1780625227784066600,9.028066650390626,0.175537109375,0.9073944091796875,0.3058624267578125
1780625227794095600,9.038095703125,0.171356201171875,0.909423828125,0.304107666015625
1780625227804124700,9.048124755859375,0.1682586669921875,0.9182891845703125,0.309478759765625
1780625227814154800,9.05815478515625,0.1575927734375,0.928558349609375,0.31317138671875
1780625227824183600,9.06818359375,0.149078369140625,0.9401702880859375,0.31414794921875
1780625227834212600,9.078212646484374,0.1525115966796875,0.946502685546875,0.3069000244140625
1780625227844242700,9.08824267578125,0.1553192138671875,0.948486328125,0.2962188720703125
1780625227854271700,9.098271728515625,0.161773681640625,0.9466094970703125,0.2887725830078125
1780625227864300500,9.108300537109375,0.1790924072265625,0.9414520263671875,0.2914886474609375
1780625227874330600,9.11833056640625,0.185577392578125,0.930084228515625,0.294921875
1780625227884359700,9.128359619140625,0.1825408935546875,0.91595458984375,0.3025970458984375
1780625227894388700,9.138388671875,0.1674346923828125,0.90673828125,0.311767578125
1780625227904418600,9.14841845703125,0.154083251953125,0.9012298583984375,0.316680908203125
1780625227914447600,9.158447509765624,0.1489715576171875,0.9032135009765625,0.3179931640625
1780625227924476700,9.1684765625,0.1527252197265625,0.9090728759765625,0.3153533935546875
1780625227934506800,9.1785068359375,0.158966064453125,0.9187469482421875,0.31011962890625
1780625227944535600,9.18853564453125,0.174407958984375,0.926971435546875,0.3099822998046875
1780625227954564600,9.198564697265626,0.1834564208984375,0.935394287109375,0.310302734375
1780625227964594700,9.2085947265625,0.181915283203125,0.9412384033203125,0.3059844970703125
1780625227974623700,9.218623779296875,0.1732177734375,0.940399169921875,0.3001861572265625
1780625227984652500,9.228652587890625,0.1637115478515625,0.9325714111328125,0.3001251220703125
1780625227994682600,9.2386826171875,0.157379150390625,0.92254638671875,0.2988433837890625
1780625228004711700,9.248711669921875,0.15911865234375,0.9216156005859375,0.2961578369140625
1780625228014740500,9.258740478515625,0.176116943359375,0.922607421875,0.2990570068359375
1780625228024770600,9.2687705078125,0.199981689453125,0.9254150390625,0.290252685546875
1780625228034799600,9.278799560546876,0.2200927734375,0.943939208984375,0.282745361328125
1780625228044828700,9.28882861328125,0.211639404296875,0.957305908203125,0.278472900390625
1780625228054858800,9.298858642578125,0.1816864013671875,0.9532470703125,0.279144287109375
1780625228064887600,9.308887451171875,0.16229248046875,0.94500732421875,0.2873687744140625
1780625228074916600,9.31891650390625,0.1539306640625,0.9371337890625,0.3024139404296875
1780625228084946700,9.32894677734375,0.1520538330078125,0.936767578125,0.3174285888671875
1780625228094975500,9.3389755859375,0.162353515625,0.9255523681640625,0.3247833251953125
1780625228105004500,9.349004638671875,0.1713104248046875,0.919891357421875,0.3289642333984375
1780625228115033600,9.35903369140625,0.1817474365234375,0.924957275390625,0.3231353759765625
1780625228125063700,9.369063720703124,0.1851654052734375,0.9300994873046875,0.3079071044921875
1780625228135092500,9.379092529296875,0.1774749755859375,0.9299163818359375,0.286102294921875
1780625228145121500,9.38912158203125,0.173675537109375,0.932830810546875,0.2691497802734375
1780625228155151600,9.399151611328126,0.177520751953125,0.949920654296875,0.25787353515625
1780625228165180700,9.4091806640625,0.187469482421875,0.9741973876953125,0.2510528564453125
1780625228175209500,9.41920947265625,0.1900177001953125,0.985992431640625,0.2471466064453125
1780625228185239600,9.429239501953125,0.1768646240234375,0.968109130859375,0.2474212646484375
1780625228195268600,9.4392685546875,0.1726226806640625,0.9390411376953125,0.26300048828125
1780625228205297400,9.44929736328125,0.1789703369140625,0.920318603515625,0.2814483642578125
1780625228215327500,9.459327392578125,0.1819305419921875,0.9188385009765625,0.291778564453125
1780625228225356500,9.4693564453125,0.1721649169921875,0.9212799072265625,0.2893524169921875
1780625228235385600,9.479385498046875,0.1569061279296875,0.92425537109375,0.2899017333984375
1780625228245415700,9.489415771484374,0.1529083251953125,0.9236907958984375,0.2837371826171875
1780625228255444500,9.499444580078125,0.1455078125,0.9240264892578125,0.2800750732421875
1780625228265473500,9.5094736328125,0.149169921875,0.91998291015625,0.2729339599609375
1780625228275503600,9.519503662109376,0.160980224609375,0.9182586669921875,0.2678375244140625
1780625228285532400,9.529532470703124,0.1688690185546875,0.9290924072265625,0.2633819580078125
1780625228295561500,9.5395615234375,0.1721343994140625,0.9417572021484375,0.26251220703125
1780625228305591600,9.549591552734375,0.1681671142578125,0.9431304931640625,0.2628631591796875
1780625228315620600,9.55962060546875,0.1596527099609375,0.9410858154296875,0.26171875
1780625228325649400,9.5696494140625,0.1600341796875,0.948883056640625,0.26715087890625
1780625228335679700,9.5796796875,0.1650390625,0.95233154296875,0.2703094482421875
1780625228345708500,9.58970849609375,0.1815032958984375,0.9615478515625,0.275909423828125
1780625228355737600,9.599737548828125,0.1878814697265625,0.9498748779296875,0.2584991455078125
1780625228365767700,9.609767578125,0.1821136474609375,0.952667236328125,0.2513275146484375
1780625228375796700,9.619796630859375,0.1683349609375,0.9486846923828125,0.2490386962890625
1780625228385825500,9.629825439453125,0.14678955078125,0.939910888671875,0.2443389892578125
1780625228395855600,9.639855712890625,0.1379852294921875,0.955078125,0.2540435791015625
1780625228405884700,9.649884765625,0.1402130126953125,0.953338623046875,0.263153076171875
1780625228415913500,9.65991357421875,0.150970458984375,0.9342803955078125,0.2640838623046875
1780625228425943600,9.669943603515625,0.16827392578125,0.933349609375,0.2563934326171875
1780625228435972600,9.67997265625,0.1923828125,0.9443817138671875,0.2512969970703125
1780625228446001700,9.690001708984376,0.1895751953125,0.95184326171875,0.25262451171875
1780625228456031700,9.70003173828125,0.170806884765625,0.9467926025390625,0.253326416015625
1780625228466060500,9.710060546875,0.1686859130859375,0.9485626220703125,0.2579803466796875
1780625228476089600,9.720089599609375,0.184783935546875,0.947509765625,0.25494384765625
1780625228486119700,9.73011962890625,0.1894378662109375,0.9409027099609375,0.2382354736328125
1780625228496148500,9.7401484375,0.1933441162109375,0.9453277587890625,0.2292938232421875
1780625228506177500,9.750177490234375,0.181854248046875,0.9454193115234375,0.2314453125
1780625228516207600,9.76020751953125,0.169769287109375,0.9410858154296875,0.232330322265625
1780625228526236700,9.770236572265626,0.1611785888671875,0.9409332275390625,0.235076904296875
1780625228536265700,9.780265625,0.143463134765625,0.947998046875,0.237213134765625
1780625228546294800,9.790294677734375,0.1322021484375,0.9514923095703125,0.2366180419921875
1780625228556324600,9.80032470703125,0.13433837890625,0.954620361328125,0.230072021484375
1780625228566354000,9.81035400390625,0.1492767333984375,0.9680328369140625,0.2310028076171875
1780625228576382700,9.8203828125,0.1636962890625,0.9725341796875,0.2276611328125
1780625228586412500,9.83041259765625,0.1652069091796875,0.9632415771484375,0.2242889404296875
1780625228596441900,9.84044189453125,0.1655426025390625,0.9556427001953125,0.22723388671875
1780625228606470700,9.850470703125,0.16351318359375,0.94256591796875,0.2277984619140625
1780625228616500700,9.860500732421874,0.1702880859375,0.94061279296875,0.234619140625
1780625228626529800,9.87052978515625,0.1742706298828125,0.9503326416015625,0.2423858642578125
1780625228636558800,9.880558837890625,0.1650848388671875,0.94488525390625,0.2394561767578125
1780625228646589000,9.8905888671875,0.1494598388671875,0.9493255615234375,0.241363525390625
1780625228656617700,9.90061767578125,0.1418609619140625,0.959320068359375,0.243896484375
1780625228666646800,9.910646728515625,0.141265869140625,0.9625396728515625,0.24285888671875
1780625228676676900,9.9206767578125,0.143585205078125,0.9601898193359375,0.2322845458984375
1780625228686705700,9.93070556640625,0.144744873046875,0.957611083984375,0.22344970703125
1780625228696734700,9.940734619140626,0.151031494140625,0.957489013671875,0.2190093994140625
1780625228706764800,9.950764892578125,0.1587371826171875,0.957122802734375,0.21685791015625
1780625228716793900,9.9607939453125,0.168609619140625,0.9647369384765625,0.21856689453125
1780625228726822700,9.97082275390625,0.1791534423828125,0.97186279296875,0.2170867919921875
1780625228736852700,9.980852783203124,0.1665191650390625,0.968597412109375,0.2205810546875
1780625228746881800,9.9908818359375,0.15130615234375,0.9670562744140625,0.229705810546875
1780625228756910800,10.000910888671875,0.1481170654296875,0.9671783447265625,0.236572265625
1780625228766940700,10.010940673828125,0.1461944580078125,0.962432861328125,0.246246337890625
1780625228776969700,10.0209697265625,0.1524505615234375,0.94610595703125,0.250885009765625
1780625228786998800,10.030998779296874,0.144317626953125,0.9432373046875,0.2553558349609375
1780625228797028900,10.04102880859375,0.1495513916015625,0.944427490234375,0.2467041015625
1780625228807057700,10.0510576171875,0.1500396728515625,0.94671630859375,0.2351531982421875
1780625228817086700,10.061086669921876,0.1487274169921875,0.9566497802734375,0.229705810546875
1780625228827116800,10.07111669921875,0.1526947021484375,0.9552764892578125,0.224456787109375
1780625228837145900,10.081145751953125,0.1593170166015625,0.95172119140625,0.2234039306640625
1780625228847174700,10.091174560546875,0.1617584228515625,0.9498291015625,0.2221221923828125
1780625228857204700,10.101204833984376,0.1572723388671875,0.9529571533203125,0.2222900390625
1780625228867233800,10.11123388671875,0.1556854248046875,0.958587646484375,0.2229461669921875
1780625228877262600,10.1212626953125,0.1596527099609375,0.9605255126953125,0.2263946533203125
1780625228887292700,10.131292724609375,0.16650390625,0.9573211669921875,0.22796630859375
1780625228897321700,10.14132177734375,0.15899658203125,0.9495391845703125,0.2257537841796875
1780625228907350800,10.151350830078124,0.1611785888671875,0.94610595703125,0.221221923828125
1780625228917380900,10.161380859375,0.17138671875,0.947509765625,0.213775634765625
1780625228927409700,10.17140966796875,0.170166015625,0.9515228271484375,0.2098846435546875
1780625228937438700,10.181438720703126,0.164642333984375,0.9557037353515625,0.2136077880859375
1780625228947468800,10.19146875,0.1620941162109375,0.95745849609375,0.2161712646484375
1780625228957497600,10.20149755859375,0.1598052978515625,0.9471282958984375,0.218109130859375
1780625228967526700,10.211526611328125,0.150360107421875,0.9365234375,0.2199249267578125
1780625228977556700,10.221556640625,0.144195556640625,0.93890380859375,0.225006103515625
1780625228987585800,10.231585693359374,0.1467742919921875,0.9426116943359375,0.2276153564453125
1780625228997614600,10.241614501953125,0.14337158203125,0.9437103271484375,0.2266693115234375
1780625229007643600,10.2516435546875,0.15179443359375,0.94818115234375,0.223419189453125
1780625229017673700,10.261673828125,0.16912841796875,0.9564056396484375,0.216339111328125
1780625229027702800,10.271702880859374,0.1766510009765625,0.9611968994140625,0.20947265625
1780625229037731600,10.281731689453125,0.175537109375,0.95916748046875,0.2064208984375
1780625229047761700,10.29176171875,0.165740966796875,0.9550323486328125,0.2076416015625
1780625229057790700,10.301790771484375,0.1601715087890625,0.9638671875,0.220062255859375
1780625229067819500,10.311819580078126,0.154449462890625,0.9638671875,0.2259979248046875
1780625229077849600,10.321849609375,0.144805908203125,0.957733154296875,0.229248046875
1780625229087878700,10.331878662109375,0.14495849609375,0.956817626953125,0.2313995361328125
1780625229097907700,10.34190771484375,0.1524810791015625,0.954315185546875,0.2264251708984375
1780625229107937800,10.351937744140624,0.1638641357421875,0.9502410888671875,0.21685791015625
1780625229117966600,10.361966552734375,0.18505859375,0.9600982666015625,0.2076416015625
1780625229127995600,10.37199560546875,0.1915283203125,0.967193603515625,0.197998046875
1780625229138025700,10.382025634765625,0.180755615234375,0.9694976806640625,0.1932525634765625
1780625229148054500,10.392054443359376,0.17840576171875,0.971710205078125,0.20147705078125
1780625229158083600,10.40208349609375,0.168853759765625,0.9728546142578125,0.2127685546875
1780625229168113700,10.41211376953125,0.1526947021484375,0.9685516357421875,0.221771240234375
1780625229178142700,10.422142822265625,0.136688232421875,0.960205078125,0.2315521240234375
1780625229188171500,10.432171630859376,0.129669189453125,0.9498138427734375,0.2289581298828125
1780625229198201600,10.44220166015625,0.1288299560546875,0.94207763671875,0.2201995849609375
1780625229208230700,10.452230712890625,0.146331787109375,0.945068359375,0.2119598388671875
1780625229218259700,10.462259765625,0.1619415283203125,0.954132080078125,0.204742431640625
1780625229228289500,10.47228955078125,0.1680145263671875,0.9596405029296875,0.2003021240234375
1780625229238318600,10.482318603515624,0.1703948974609375,0.959686279296875,0.198455810546875
1780625229248347600,10.49234765625,0.1587066650390625,0.9698486328125,0.2010040283203125
1780625229258377700,10.502377685546875,0.144134521484375,0.9730682373046875,0.19769287109375
1780625229268406500,10.512406494140626,0.14837646484375,0.9687347412109375,0.197174072265625
1780625229278435600,10.522435546875,0.149200439453125,0.9650421142578125,0.20025634765625
1780625229288465700,10.532465576171875,0.140380859375,0.9647369384765625,0.2046051025390625
1780625229298494700,10.54249462890625,0.1416473388671875,0.9598236083984375,0.2079620361328125
1780625229308523800,10.552523681640626,0.1417388916015625,0.9480743408203125,0.2094573974609375
1780625229318553600,10.5625537109375,0.1450042724609375,0.9450836181640625,0.2128448486328125
1780625229328582700,10.572582763671875,0.150390625,0.9520416259765625,0.218353271484375
1780625229338611000,10.58261083984375,0.14385986328125,0.954742431640625,0.2219390869140625
1780625229348641000,10.59264111328125,0.13531494140625,0.958343505859375,0.221435546875
1780625229358670000,10.602670166015624,0.126251220703125,0.957794189453125,0.221405029296875
1780625229368699000,10.612698974609375,0.134490966796875,0.9603729248046875,0.223602294921875
1780625229378729000,10.62272900390625,0.1393280029296875,0.96484375,0.224395751953125
1780625229388758000,10.632758056640625,0.1301116943359375,0.972564697265625,0.22357177734375
1780625229398787000,10.642787109375,0.120361328125,0.9783477783203125,0.2253265380859375
1780625229408817000,10.65281689453125,0.1097869873046875,0.9743499755859375,0.2207794189453125
1780625229418846000,10.662845947265625,0.0924224853515625,0.9703826904296875,0.2197265625
1780625229428875000,10.672875,0.0918426513671875,0.9705657958984375,0.22650146484375
1780625229438903800,10.68290380859375,0.092315673828125,0.972686767578125,0.2364349365234375
1780625229448934000,10.692933837890624,0.0995330810546875,0.9715728759765625,0.2463226318359375
1780625229458963000,10.702962890625,0.1063995361328125,0.95635986328125,0.248687744140625
1780625229468992000,10.712991943359375,0.1083984375,0.9568328857421875,0.2493743896484375
1780625229479022000,10.72302197265625,0.1090545654296875,0.95428466796875,0.2440643310546875
1780625229489051000,10.73305078125,0.11114501953125,0.951812744140625,0.2344512939453125
1780625229499080000,10.743079833984375,0.118438720703125,0.960693359375,0.235626220703125
1780625229509110000,10.753110107421875,0.1195068359375,0.967193603515625,0.24224853515625
1780625229519138800,10.763138916015626,0.1158294677734375,0.96533203125,0.246551513671875
1780625229529168000,10.77316796875,0.1025543212890625,0.9660491943359375,0.250640869140625
1780625229539198000,10.783197998046875,0.0995330810546875,0.9584808349609375,0.2480926513671875
1780625229549227000,10.79322705078125,0.095794677734375,0.9589080810546875,0.24554443359375
1780625229559255800,10.803255859375,0.08697509765625,0.9552154541015625,0.2418365478515625
1780625229569286000,10.813285888671874,0.0967559814453125,0.945556640625,0.2279052734375
1780625229579315000,10.82331494140625,0.1083831787109375,0.9453887939453125,0.2109832763671875
1780625229589344000,10.833343994140625,0.09796142578125,0.9522247314453125,0.19708251953125
1780625229599373800,10.843373779296876,0.1430816650390625,0.9562835693359375,0.1978759765625
1780625229609403000,10.85340283203125,0.163299560546875,0.9519500732421875,0.1799774169921875
1780625229619432000,10.863431884765625,0.1583404541015625,0.9662017822265625,0.166839599609375
1780625229629462000,10.8734619140625,0.141204833984375,0.9882354736328125,0.158538818359375
1780625229639490800,10.88349072265625,0.131011962890625,0.9903411865234375,0.16937255859375
1780625229649519900,10.893519775390626,0.1191253662109375,0.9866180419921875,0.19329833984375
1780625229659550000,10.903550048828125,0.1207733154296875,0.98284912109375,0.2314300537109375
1780625229669578800,10.913578857421875,0.12322998046875,0.979400634765625,0.2725067138671875
1780625229679607800,10.92360791015625,0.1191253662109375,0.97235107421875,0.3143463134765625
1780625229689638000,10.933637939453124,0.1149444580078125,0.9680938720703125,0.3471527099609375
1780625229699667000,10.9436669921875,0.1316070556640625,0.9675445556640625,0.3726959228515625
1780625229709695700,10.95369580078125,0.1539154052734375,0.9516754150390625,0.3818359375
1780625229719725800,10.963725830078126,0.174896240234375,0.9446868896484375,0.37591552734375
1780625229729755000,10.9737548828125,0.193572998046875,0.930511474609375,0.3509368896484375
1780625229739784000,10.983783935546874,0.2111663818359375,0.9286041259765625,0.3243865966796875
1780625229749813800,10.993813720703125,0.2302398681640625,0.9289703369140625,0.3054046630859375
1780625229759842800,11.0038427734375,0.2475738525390625,0.92584228515625,0.3019561767578125
1780625229769872000,11.013871826171876,0.2387847900390625,0.9208526611328125,0.3053436279296875
1780625229779902000,11.02390185546875,0.228759765625,0.912750244140625,0.3110809326171875
1780625229789930800,11.0339306640625,0.2134552001953125,0.9110565185546875,0.3226165771484375
1780625229799959800,11.043959716796875,0.2019500732421875,0.9010162353515625,0.3147125244140625
1780625229809990000,11.053989990234374,0.1795654296875,0.9092864990234375,0.3021392822265625
1780625229820019000,11.06401904296875,0.1793060302734375,0.9151153564453125,0.294525146484375
1780625229830047700,11.0740478515625,0.1902008056640625,0.9150238037109375,0.29559326171875
1780625229840077800,11.084077880859375,0.2028350830078125,0.9176483154296875,0.3024444580078125
1780625229850107000,11.09410693359375,0.2195892333984375,0.90960693359375,0.3058929443359375
1780625229860135700,11.1041357421875,0.2288665771484375,0.893585205078125,0.3050384521484375
1780625229870165000,11.1141650390625,0.2333221435546875,0.881683349609375,0.3039093017578125
1780625229880194800,11.12419482421875,0.2313385009765625,0.8842315673828125,0.312255859375
1780625229890223900,11.134223876953126,0.233154296875,0.892242431640625,0.3258819580078125
1780625229900253000,11.1442529296875,0.25115966796875,0.9045257568359375,0.347076416015625
1780625229910282800,11.15428271484375,0.269073486328125,0.918487548828125,0.3661346435546875
1780625229920311800,11.164311767578125,0.266143798828125,0.902801513671875,0.3690185546875
1780625229930341000,11.174341064453126,0.2669677734375,0.878631591796875,0.3564605712890625
1780625229940370700,11.18437060546875,0.27154541015625,0.8871612548828125,0.357940673828125
1780625229950400000,11.19439990234375,0.2999267578125,0.8943328857421875,0.3573455810546875
1780625229960429000,11.204428955078125,0.321136474609375,0.8959503173828125,0.3477783203125
1780625229970459000,11.214458984375,0.364288330078125,0.898406982421875,0.3427886962890625
1780625229980488000,11.224488037109374,0.378814697265625,0.898681640625,0.3264007568359375
1780625229990517000,11.23451708984375,0.3726806640625,0.891845703125,0.3036041259765625
1780625230000546800,11.244546875,0.380096435546875,0.890045166015625,0.3005828857421875
1780625230010576100,11.254576171875,0.374481201171875,0.868560791015625,0.311065673828125
1780625230020605000,11.26460498046875,0.3349151611328125,0.834808349609375,0.3246002197265625
1780625230030635000,11.274635009765625,0.2981414794921875,0.80767822265625,0.3487396240234375
1780625230040664000,11.2846640625,0.3080291748046875,0.8077239990234375,0.386138916015625
1780625230050692900,11.29469287109375,0.3077392578125,0.8023834228515625,0.4178009033203125
1780625230060723000,11.304722900390624,0.302154541015625,0.7900543212890625,0.4344482421875
1780625230070752000,11.314751953125,0.2934112548828125,0.7753753662109375,0.4305877685546875
1780625230080781000,11.324781005859375,0.272796630859375,0.7675018310546875,0.400482177734375
1780625230090811100,11.33481103515625,0.2125091552734375,0.7683258056640625,0.353302001953125
1780625230100840000,11.34483984375,0.1439361572265625,0.7881011962890625,0.3087615966796875
1780625230110869000,11.354868896484374,0.103668212890625,0.8325347900390625,0.293365478515625
1780625230120899000,11.364899169921875,0.0936279296875,0.8706817626953125,0.309173583984375
1780625230130927900,11.374927978515625,0.0921173095703125,0.8702850341796875,0.3341827392578125
1780625230140957000,11.38495703125,0.0969085693359375,0.8456878662109375,0.35113525390625
1780625230150987000,11.394987060546875,0.1241302490234375,0.823822021484375,0.359466552734375
1780625230161016000,11.40501611328125,0.1718597412109375,0.817138671875,0.3498382568359375
1780625230171044900,11.415044921875,0.218597412109375,0.8681182861328125,0.3187103271484375
1780625230181075000,11.425074951171876,0.3564300537109375,1.0329437255859375,0.306884765625
1780625230191104000,11.43510400390625,0.5110931396484375,1.1632843017578125,0.2993011474609375
1780625230201133000,11.445133056640625,0.530517578125,1.1721343994140625,0.29962158203125
1780625230211161900,11.455161865234375,0.453521728515625,1.0716094970703125,0.36480712890625
1780625230221192000,11.46519189453125,0.382720947265625,0.87005615234375,0.477325439453125
1780625230231221000,11.475220947265624,0.1924285888671875,0.740325927734375,0.50299072265625
1780625230241249800,11.485249755859375,-0.0254974365234375,0.79693603515625,0.4540557861328125
1780625230251280000,11.49527978515625,-0.0886077880859375,0.9355621337890625,0.400360107421875
1780625230261309000,11.505308837890626,-0.0134124755859375,1.031158447265625,0.3655548095703125
1780625230271338000,11.515337890625,0.1112823486328125,1.059661865234375,0.3308563232421875
1780625230281368000,11.5253681640625,0.188720703125,1.054840087890625,0.2939453125
1780625230291396900,11.53539697265625,0.1837615966796875,1.0240936279296875,0.2513275146484375
1780625230301426000,11.545426025390626,0.1220550537109375,0.9739837646484375,0.1884307861328125
1780625230311456000,11.5554560546875,0.1095733642578125,0.955841064453125,0.1721649169921875
1780625230321484800,11.56548486328125,0.1674957275390625,0.9414825439453125,0.2116851806640625
1780625230331513900,11.575513916015625,0.23968505859375,0.9109039306640625,0.267333984375
1780625230341544000,11.5855439453125,0.2621002197265625,0.89739990234375,0.3109893798828125
1780625230351573000,11.595572998046874,0.23968505859375,0.907867431640625,0.3389129638671875
1780625230361601800,11.605601806640625,0.187347412109375,0.928497314453125,0.3555145263671875
1780625230371631900,11.6156318359375,0.14971923828125,0.92926025390625,0.350250244140625
1780625230381661000,11.625660888671876,0.1259613037109375,0.9239654541015625,0.3403167724609375
1780625230391690000,11.63568994140625,0.1000518798828125,0.9110870361328125,0.3218231201171875
1780625230401719800,11.6457197265625,0.0850830078125,0.9013214111328125,0.2735443115234375
1780625230411748900,11.655748779296875,0.0801849365234375,0.9096527099609375,0.23114013671875
1780625230421778000,11.66577783203125,0.0995635986328125,0.9170379638671875,0.216949462890625
1780625230431808000,11.67580810546875,0.150390625,0.9243316650390625,0.215087890625
1780625230441836800,11.6858369140625,0.1894073486328125,0.93084716796875,0.2127532958984375
1780625230451865900,11.695865966796875,0.202392578125,0.9507293701171875,0.2231292724609375
1780625230461896000,11.70589599609375,0.196533203125,0.961639404296875,0.2359466552734375
1780625230471925000,11.715925048828124,0.182403564453125,0.958587646484375,0.2470855712890625
1780625230481953800,11.725953857421874,0.1556549072265625,0.964508056640625,0.2669830322265625
1780625230491984000,11.73598388671875,0.115325927734375,0.9708251953125,0.2901611328125
1780625230502013000,11.746012939453125,0.1162109375,0.9481353759765625,0.2905120849609375
1780625230512041700,11.756041748046876,0.1231231689453125,0.935577392578125,0.27325439453125
1780625230522071800,11.76607177734375,0.13458251953125,0.937042236328125,0.2581024169921875
1780625230532100900,11.776100830078125,0.1465911865234375,0.9426116943359375,0.2480926513671875
1780625230542130000,11.7861298828125,0.153717041015625,0.9488983154296875,0.2297210693359375
1780625230552160000,11.796159912109376,0.184051513671875,0.95361328125,0.20733642578125
1780625230562188800,11.806188720703124,0.1987457275390625,0.9669952392578125,0.193450927734375
1780625230572217900,11.8162177734375,0.1746368408203125,0.9799652099609375,0.2051239013671875
1780625230582248000,11.826248046875,0.170135498046875,0.9677886962890625,0.2089996337890625
1780625230592276700,11.83627685546875,0.1392059326171875,0.973480224609375,0.221771240234375
1780625230602305800,11.846305908203124,0.1435699462890625,0.957489013671875,0.223419189453125
1780625230612334800,11.8563349609375,0.14007568359375,0.9607391357421875,0.2334442138671875
1780625230622365000,11.866364990234375,0.1247100830078125,0.9673614501953125,0.2483367919921875
1780625230632393700,11.876393798828126,0.1335906982421875,0.95819091796875,0.2429046630859375
1780625230642423000,11.886423095703124,0.1340179443359375,0.9681854248046875,0.2384185791015625
1780625230652452900,11.896452880859375,0.1443328857421875,0.9716644287109375,0.2208251953125
1780625230662482000,11.90648193359375,0.143157958984375,0.98040771484375,0.204620361328125
1780625230672511000,11.916510986328126,0.1238555908203125,1.002838134765625,0.20684814453125
1780625230682540800,11.926540771484374,0.10552978515625,0.9944915771484375,0.1981048583984375
1780625230692569900,11.93656982421875,0.069976806640625,1.004547119140625,0.2089691162109375
1780625230702599000,11.946598876953125,0.0631256103515625,0.99365234375,0.212615966796875
1780625230712628700,11.956628662109376,0.089202880859375,0.9653472900390625,0.2027130126953125
1780625230722657800,11.96665771484375,0.094268798828125,0.9703521728515625,0.2221527099609375
1780625230732687000,11.97668701171875,0.1164398193359375,0.939422607421875,0.21484375
1780625230742716700,11.986716552734375,0.1161346435546875,0.9356689453125,0.2095947265625
1780625230752746000,11.99674609375,0.120758056640625,0.94256591796875,0.2017059326171875
1780625230762775000,12.006775146484374,0.14544677734375,0.9425811767578125,0.1844024658203125
1780625230772804900,12.016804931640625,0.1444244384765625,0.956756591796875,0.18109130859375
1780625230782834000,12.026833984375,0.142913818359375,0.960174560546875,0.18157958984375
1780625230792863000,12.036863037109375,0.13507080078125,0.9508819580078125,0.1740264892578125
1780625230802892800,12.046892822265624,0.1240234375,0.9507904052734375,0.1737060546875
1780625230812922000,12.056922119140625,0.1134796142578125,0.9525604248046875,0.176971435546875
1780625230822951000,12.066950927734375,0.1101531982421875,0.945556640625,0.169403076171875
1780625230832981000,12.07698095703125,0.1115264892578125,0.957794189453125,0.1685638427734375
1780625230843010000,12.087010009765624,0.10693359375,0.9670867919921875,0.1742095947265625
1780625230853039000,12.0970390625,0.101226806640625,0.97332763671875,0.182159423828125
1780625230863069000,12.10706884765625,0.1183319091796875,0.971649169921875,0.188232421875
1780625230873098000,12.117097900390625,0.1316375732421875,0.972808837890625,0.191070556640625
1780625230883127000,12.127126953125,0.13812255859375,0.9775543212890625,0.1976165771484375
1780625230893157000,12.1371572265625,0.1533050537109375,0.95538330078125,0.182342529296875
1780625230903186000,12.14718603515625,0.142242431640625,0.9593963623046875,0.165283203125
1780625230913215000,12.157215087890625,0.1213531494140625,0.968994140625,0.1606903076171875
1780625230923245000,12.1672451171875,0.1182403564453125,0.97454833984375,0.1666717529296875
1780625230933273900,12.17727392578125,0.1212158203125,0.97509765625,0.171356201171875
1780625230943303000,12.187302978515625,0.116851806640625,0.969512939453125,0.1750335693359375
1780625230953333000,12.1973330078125,0.10400390625,0.967193603515625,0.1868896484375
1780625230963362000,12.207362060546876,0.101104736328125,0.963348388671875,0.1994476318359375
1780625230973390800,12.217390869140624,0.097381591796875,0.969085693359375,0.2028656005859375
1780625230983421000,12.2274208984375,0.093353271484375,0.9720001220703125,0.1960601806640625
1780625230993450000,12.237449951171875,0.1145477294921875,0.9621429443359375,0.17364501953125
1780625231003479000,12.24747900390625,0.13427734375,0.9725494384765625,0.1660919189453125
1780625231013508900,12.2575087890625,0.1547393798828125,0.9780120849609375,0.159332275390625
1780625231023538000,12.267537841796875,0.14892578125,0.987274169921875,0.16693115234375
1780625231033567000,12.27756689453125,0.139373779296875,0.966278076171875,0.1692657470703125
1780625231043595800,12.287595703125,0.10137939453125,0.975006103515625,0.182098388671875
1780625231053625900,12.2976259765625,0.0936737060546875,0.976409912109375,0.188812255859375
1780625231063655000,12.307655029296875,0.114532470703125,0.9693603515625,0.187896728515625
1780625231073684000,12.31768408203125,0.117919921875,0.9764862060546875,0.19036865234375
1780625231083714000,12.327714111328126,0.0998382568359375,0.987060546875,0.1990966796875
1780625231093742800,12.337742919921874,0.1200103759765625,0.947052001953125,0.1930694580078125
1780625231103772000,12.34777197265625,0.124847412109375,0.9394989013671875,0.1897430419921875
1780625231113802000,12.357802001953125,0.1239776611328125,0.9431610107421875,0.189971923828125
1780625231123830800,12.367830810546875,0.12933349609375,0.9467010498046875,0.177703857421875
1780625231133859800,12.37785986328125,0.130615234375,0.962127685546875,0.17156982421875
1780625231143890000,12.387889892578125,0.1460113525390625,0.9620361328125,0.1536865234375
1780625231153919000,12.3979189453125,0.1442413330078125,0.9818267822265625,0.1488494873046875
1780625231163947800,12.40794775390625,0.1345672607421875,0.9947662353515625,0.1554718017578125
1780625231173977900,12.417977783203124,0.1368865966796875,0.977569580078125,0.1627044677734375
1780625231184007000,12.4280068359375,0.1269683837890625,0.9761810302734375,0.1760406494140625
1780625231194036000,12.438035888671875,0.1202850341796875,0.9594879150390625,0.18267822265625
1780625231204065800,12.448065673828125,0.119659423828125,0.9438018798828125,0.188446044921875
1780625231214094800,12.4580947265625,0.1318817138671875,0.9476776123046875,0.19952392578125
1780625231224124000,12.4681240234375,0.1356658935546875,0.950164794921875,0.2020416259765625
1780625231234154000,12.478154052734375,0.133026123046875,0.9502410888671875,0.1939697265625
1780625231244182800,12.488182861328125,0.1214447021484375,0.9503173828125,0.18035888671875
1780625231254211800,12.4982119140625,0.1175079345703125,0.955169677734375,0.167694091796875
1780625231264242000,12.508241943359375,0.126495361328125,0.964447021484375,0.1548004150390625
1780625231274271000,12.51827099609375,0.1359405517578125,0.9794158935546875,0.1483917236328125
1780625231284299800,12.5282998046875,0.14617919921875,0.9902801513671875,0.14556884765625
1780625231294329900,12.538329833984376,0.1519317626953125,1.00146484375,0.14776611328125
1780625231304359000,12.54835888671875,0.1480255126953125,0.9996490478515625,0.1508636474609375
1780625231314387700,12.5583876953125,0.1270904541015625,0.9902496337890625,0.1534271240234375
1780625231324417800,12.568417724609375,0.1153717041015625,0.9759674072265625,0.16217041015625
1780625231334446800,12.57844677734375,0.09942626953125,0.9620361328125,0.167083740234375
1780625231344476000,12.588475830078124,0.0886077880859375,0.9597625732421875,0.17694091796875
1780625231354506000,12.598506103515625,0.0945281982421875,0.9581451416015625,0.19146728515625
1780625231364534800,12.60853466796875,0.1082305908203125,0.95538330078125,0.2023162841796875
1780625231374563800,12.618563720703126,0.123016357421875,0.9603118896484375,0.2030181884765625
1780625231384594000,12.628593994140624,0.13629150390625,0.971893310546875,0.2000885009765625
1780625231394623000,12.638623046875,0.1437225341796875,0.978973388671875,0.1974029541015625
1780625231404651800,12.64865185546875,0.1363983154296875,0.9811248779296875,0.189666748046875
1780625231414680800,12.658680908203126,0.1260528564453125,0.98260498046875,0.18865966796875
1780625231424711000,12.6687109375,0.1206512451171875,0.976043701171875,0.1912384033203125
1780625231434740000,12.678739990234375,0.1049041748046875,0.9593963623046875,0.1969146728515625
1780625231444769000,12.68876904296875,0.0947418212890625,0.9547119140625,0.203125
1780625231454798800,12.698798828125,0.09844970703125,0.9603729248046875,0.2076416015625
1780625231464828000,12.708827880859374,0.1018524169921875,0.9642486572265625,0.2081451416015625
1780625231474857000,12.71885693359375,0.1046295166015625,0.964569091796875,0.203826904296875
1780625231484886800,12.72888671875,0.112457275390625,0.9656982421875,0.1966705322265625
1780625231494915800,12.738915771484375,0.1197509765625,0.9679718017578125,0.1921234130859375
1780625231504945200,12.748945068359374,0.121795654296875,0.9749755859375,0.1948394775390625
1780625231514974700,12.758974609375,0.1219482421875,0.9708709716796875,0.2029571533203125
1780625231525004000,12.769004150390625,0.119842529296875,0.9608154296875,0.2058258056640625
1780625231535033000,12.779033203125,0.1131591796875,0.9546661376953125,0.2107696533203125
1780625231545063000,12.78906298828125,0.106842041015625,0.9545135498046875,0.2134857177734375
1780625231555092000,12.799092041015625,0.0969390869140625,0.9514617919921875,0.212371826171875
1780625231565121000,12.80912109375,0.09149169921875,0.9459228515625,0.2109832763671875
1780625231575150800,12.81915087890625,0.0909271240234375,0.9456024169921875,0.2093658447265625
1780625231585180200,12.82918017578125,0.094329833984375,0.95263671875,0.2121429443359375
1780625231595209000,12.839208984375,0.0987701416015625,0.9591827392578125,0.2181549072265625
1780625231605239000,12.849239013671875,0.10516357421875,0.9654693603515625,0.2181243896484375
1780625231615268000,12.85926806640625,0.1137542724609375,0.967529296875,0.21435546875
1780625231625297000,12.869296875,0.1138916015625,0.9693603515625,0.209686279296875
1780625231635327000,12.879326904296875,0.1092529296875,0.9768218994140625,0.2061309814453125
1780625231645356000,12.88935595703125,0.109344482421875,0.9805755615234375,0.2065582275390625
1780625231655385000,12.899385009765625,0.10784912109375,0.972564697265625,0.204742431640625
1780625231665415200,12.909415283203124,0.1029510498046875,0.9595794677734375,0.200653076171875
1780625231675444000,12.91944384765625,0.0986175537109375,0.955902099609375,0.199859619140625
1780625231685473000,12.92947314453125,0.089202880859375,0.952239990234375,0.2008056640625
1780625231695503000,12.939503173828125,0.0891876220703125,0.9512939453125,0.2054290771484375
1780625231705532000,12.949531982421876,0.0952911376953125,0.947723388671875,0.2076263427734375
1780625231715561000,12.95956103515625,0.103485107421875,0.951812744140625,0.2083892822265625
1780625231725591000,12.969591064453125,0.1055908203125,0.9581756591796875,0.2080841064453125
1780625231735620000,12.9796201171875,0.113494873046875,0.96240234375,0.2066802978515625
1780625231745649000,12.98964892578125,0.1171875,0.9678802490234375,0.2038116455078125
1780625231755679000,12.999678955078124,0.1215972900390625,0.9706573486328125,0.203125
1780625231765708000,13.0097080078125,0.121673583984375,0.9631195068359375,0.200714111328125
1780625231775737000,13.019737060546875,0.1167755126953125,0.9585418701171875,0.1935577392578125
1780625231785766000,13.029765869140626,0.1150360107421875,0.962860107421875,0.189453125
1780625231795796000,13.0397958984375,0.1165618896484375,0.968414306640625,0.1898956298828125
1780625231805825000,13.049824951171875,0.1113433837890625,0.9731292724609375,0.1935577392578125
1780625231815853800,13.059853759765625,0.10137939453125,0.980621337890625,0.1970977783203125
1780625231825884000,13.0698837890625,0.092681884765625,0.98126220703125,0.2021484375
1780625231835913000,13.079912841796874,0.08648681640625,0.9719696044921875,0.2043609619140625
1780625231845942000,13.08994189453125,0.0863800048828125,0.9645538330078125,0.2018585205078125
1780625231855972000,13.09997216796875,0.0872650146484375,0.9622802734375,0.19830322265625
1780625231866001000,13.1100009765625,0.08941650390625,0.9607086181640625,0.195343017578125
1780625231876030000,13.120030029296874,0.091461181640625,0.9678192138671875,0.1922454833984375
1780625231886060000,13.13006005859375,0.0955657958984375,0.9719390869140625,0.191864013671875
