time,seconds_elapsed,z,y,x
1780625218814093800,0.05809375,-0.4705905318260193,-0.961837649345398,-0.5516228079795837
1780625218824124000,0.0681240234375,-0.46151474118232727,-0.7835015058517456,-0.864209771156311
1780625218834152700,0.078152587890625,-0.4041479229927063,-0.4973212778568268,-1.0663435459136963
1780625218844181800,0.088181640625,-0.34590351581573486,-0.16152997314929962,-1.1088029146194458
1780625218854210800,0.0982109375,-0.33200356364250183,0.11935783922672272,-0.9975792765617371
1780625218864241000,0.108240966796875,-0.3728993237018585,0.2972545921802521,-0.8086458444595337
1780625218874269700,0.118269775390625,-0.44036129117012024,0.39036381244659424,-0.6057953238487244
1780625218884298800,0.128298828125,-0.527254581451416,0.39609333872795105,-0.4350726306438446
1780625218894328800,0.138328857421875,-0.6093514561653137,0.30797407031059265,-0.35060134530067444
1780625218904357600,0.148357666015625,-0.6910281777381897,0.12679257988929749,-0.34179559350013733
1780625218914386700,0.15838671875,-0.7961523532867432,-0.1846829652786255,-0.37728896737098694
1780625218924415700,0.168415771484375,-0.8413366675376892,-0.5108165740966797,-0.3712497055530548
1780625218934445800,0.17844580078125,-0.593007504940033,-0.4889770746231079,-0.29521167278289795
1780625218944474600,0.188474609375,-0.33496448397636414,-0.15555942058563232,-0.35207656025886536
1780625218954503700,0.198503662109375,-0.12165718525648117,0.22824230790138245,-0.32216498255729675
1780625218964533800,0.20853369140625,-0.01759442687034607,0.5692276358604431,-0.19897806644439697
1780625218974562800,0.218562744140625,-0.0018486215267330408,0.7967458963394165,-0.10102961212396622
1780625218984591600,0.228591552734375,-0.03838825970888138,0.8784618377685547,-0.061784207820892334
1780625218994621000,0.238620849609375,-0.12386741489171982,0.7800934314727783,-0.09402181208133698
1780625219004650800,0.248650634765625,-0.2715618312358856,0.49497437477111816,-0.16311673820018768
1780625219014679600,0.258679443359375,-0.44887131452560425,0.12143031507730484,-0.22184817492961884
1780625219024708900,0.268708984375,-0.523163914680481,-0.2790209650993347,-0.24614445865154266
1780625219034738000,0.278738037109375,-0.5504187345504761,-0.4386622905731201,-0.259890079498291
1780625219044767700,0.288767822265625,-0.5539252758026123,-0.3866308033466339,-0.2561448812484741
1780625219054796800,0.298796875,-0.5427659153938293,-0.13194969296455383,-0.2567700147628784
1780625219064825900,0.308825927734375,-0.5110601782798767,0.2783297002315521,-0.23312431573867798
1780625219074855700,0.318855712890625,-0.47117042541503906,0.6963652968406677,-0.18836726248264313
1780625219084885000,0.328885009765625,-0.4315881133079529,1.002764344215393,-0.13487979769706726
1780625219094913800,0.338913818359375,-0.40434229373931885,1.102285385131836,-0.08635160326957703
1780625219104942800,0.34894287109375,-0.38639363646507263,1.002790927886963,-0.04980051517486572
1780625219114973000,0.358972900390625,-0.35845229029655457,0.7715966701507568,-0.008493105880916119
1780625219125001700,0.369001708984375,-0.3111383020877838,0.4305703938007355,0.051068756729364395
1780625219135030800,0.37903076171875,-0.2560206651687622,0.005380690097808838,0.10368943214416504
1780625219145060900,0.389060791015625,-0.2336445301771164,-0.4221738278865814,0.12769916653633118
1780625219155090000,0.39908984375,-0.26304054260253906,-0.7242212891578674,0.15975508093833923
1780625219165118700,0.40911865234375,-0.322039395570755,-0.8259788155555725,0.24379992485046387
1780625219175147800,0.419147705078125,-0.3491353690624237,-0.8938782215118408,0.37741655111312866
1780625219185177900,0.429177734375,-0.33802202343940735,-0.8794564008712769,0.5428105592727661
1780625219195207000,0.43920703125,-0.33337345719337463,-0.7497085332870483,0.6845112442970276
1780625219205235700,0.449235595703125,-0.43924450874328613,-0.5766147375106812,0.63994961977005
1780625219215265800,0.459265869140625,-0.5701348781585693,-0.3571995794773102,0.5033358335494995
1780625219225294800,0.469294921875,-0.6486403346061707,-0.13764697313308716,0.3089016079902649
1780625219235323600,0.47932373046875,-0.6948363780975342,-0.0032553793862462044,0.05633625388145447
1780625219245352700,0.489352783203125,-0.6912629008293152,0.05103955417871475,-0.13413994014263153
1780625219255382800,0.4993828125,-0.6335659623146057,0.10646573454141617,-0.22952178120613098
1780625219265411800,0.509411865234375,-0.41513800621032715,-0.009180431254208088,-0.23154978454113007
1780625219275440600,0.519440673828125,-0.1541898101568222,-0.25954070687294006,-0.10195080935955048
1780625219285469700,0.5294697265625,-0.012519488111138344,-0.49831944704055786,0.12955646216869354
1780625219295499800,0.539499755859375,0.03193708136677742,-0.667162299156189,0.4133146405220032
1780625219305528800,0.54952880859375,0.04241901636123657,-0.6353702545166016,0.6553885340690613
1780625219315557600,0.5595576171875,-0.010495493188500404,-0.48388785123825073,0.7477321028709412
1780625219325589000,0.569589111328125,-0.12808337807655334,-0.29326462745666504,0.6889109015464783
1780625219335618000,0.5796181640625,-0.19853419065475464,-0.05605814605951309,0.5209593176841736
1780625219345646800,0.589646728515625,-0.16697999835014343,0.2701079845428467,0.3288745880126953
1780625219355676000,0.599676025390625,-0.07200037688016891,0.5543668270111084,0.17533749341964722
1780625219365706000,0.6097060546875,0.013935831375420094,0.6344733834266663,0.06272199749946594
1780625219375735000,0.619735107421875,0.08152186870574951,0.5248798131942749,-0.002999210497364402
1780625219385763800,0.629763916015625,0.0849837139248848,0.3785412311553955,-0.06302579492330551
1780625219395794000,0.6397939453125,0.005813794210553169,0.13812516629695892,-0.15756934881210327
1780625219405823000,0.649822998046875,-0.1298375129699707,-0.08121410757303238,-0.24252444505691528
1780625219415851800,0.659851806640625,-0.2339635044336319,-0.2439441829919815,-0.2900909185409546
1780625219425880800,0.669880859375,-0.2901945412158966,-0.34057217836380005,-0.28586074709892273
1780625219435911000,0.679910888671875,-0.2943756878376007,-0.3712632656097412,-0.26359325647354126
1780625219445940000,0.68993994140625,-0.2420150339603424,-0.44077789783477783,-0.24190926551818848
1780625219455968800,0.69996875,-0.1361430287361145,-0.5429223775863647,-0.257594496011734
1780625219465998800,0.709998779296875,0.021721960976719856,-0.6054701805114746,-0.21407869458198547
1780625219476028000,0.72002783203125,0.12476616352796555,-0.611426591873169,-0.1495780050754547
1780625219486057000,0.730056884765625,0.14421389997005463,-0.5904840230941772,-0.12947726249694824
1780625219496086800,0.740086669921875,0.09536425024271011,-0.518098771572113,-0.17785991728305817
1780625219506115800,0.75011572265625,0.04118036851286888,-0.4205767810344696,-0.2547195553779602
1780625219516145000,0.760144775390625,-0.005803641397505999,-0.258527934551239,-0.3224315345287323
1780625219526174000,0.770174072265625,-0.06134839355945587,-0.17046384513378143,-0.3931136727333069
1780625219536203800,0.780203857421875,-0.14220617711544037,-0.159931018948555,-0.44141995906829834
1780625219546232800,0.79023291015625,-0.2329872101545334,-0.2603503167629242,-0.40925270318984985
1780625219556262100,0.80026220703125,-0.33913514018058777,-0.37072402238845825,-0.3060583472251892
1780625219566292000,0.8102919921875,-0.41429033875465393,-0.5420979261398315,-0.1723514199256897
1780625219576320800,0.82032080078125,-0.4407830834388733,-0.6761701703071594,-0.039716169238090515
1780625219586350000,0.83035009765625,-0.4427783191204071,-0.733949601650238,0.029208308085799217
1780625219596379100,0.840379150390625,-0.4618380665779114,-0.7053509950637817,0.02509988844394684
1780625219606409000,0.850408935546875,-0.4896063208580017,-0.5901533365249634,-0.016910677775740623
1780625219616438000,0.86043798828125,-0.5289745926856995,-0.4233664572238922,-0.04849071428179741
1780625219626467000,0.870467041015625,-0.5746869444847107,-0.25281575322151184,-0.06156869977712631
1780625219636497000,0.880496826171875,-0.6151934266090393,-0.09921126812696457,-0.08811617642641068
1780625219646526000,0.89052587890625,-0.6510515809059143,-0.010358895175158978,-0.15502624213695526
1780625219656555000,0.900554931640625,-0.6860583424568176,-0.0247759148478508,-0.2959873676300049
1780625219666584000,0.910583984375,-0.722784698009491,-0.16240407526493073,-0.46493855118751526
1780625219676614100,0.9206142578125,-0.7426137328147888,-0.3041427731513977,-0.5660202503204346
1780625219686643000,0.930642822265625,-0.7107604742050171,-0.3694669306278229,-0.5431636571884155
1780625219696672000,0.940672119140625,-0.6677031517028809,-0.39304420351982117,-0.4370182454586029
1780625219706702000,0.9507021484375,-0.647523045539856,-0.3870861828327179,-0.31955766677856445
1780625219716731000,0.96073095703125,-0.6453890800476074,-0.32314637303352356,-0.24048814177513123
1780625219726760000,0.970760009765625,-0.6477198600769043,-0.1866425722837448,-0.22630228102207184
1780625219736789000,0.9807890625,-0.6474226713180542,-0.00824571494013071,-0.3016558587551117
1780625219746819000,0.990819091796875,-0.6442404985427856,0.12367530167102814,-0.45770031213760376
1780625219756847900,1.000847900390625,-0.6235781908035278,0.16124935448169708,-0.6578882932662964
1780625219766877000,1.010876953125,-0.5584364533424377,0.13391759991645813,-0.8196641802787781
1780625219776907000,1.020906982421875,-0.47941866517066956,0.06440163403749466,-0.8962910175323486
1780625219786936000,1.03093603515625,-0.42608991265296936,-0.07608703523874283,-0.872424840927124
1780625219796964900,1.04096484375,-0.3825473487377167,-0.2729884088039398,-0.7591803073883057
1780625219806995000,1.050994873046875,-0.34576377272605896,-0.4968622326850891,-0.5735414624214172
1780625219817024000,1.06102392578125,-0.3159894645214081,-0.7067326903343201,-0.3555920422077179
1780625219827052800,1.071052734375,-0.298507422208786,-0.810295820236206,-0.18337339162826538
1780625219837081900,1.081081787109375,-0.3106955885887146,-0.8112295866012573,-0.11609873920679092
1780625219847112000,1.09111181640625,-0.3577512502670288,-0.7070261836051941,-0.17004187405109406
1780625219857141000,1.10114111328125,-0.3964574933052063,-0.5126359462738037,-0.3166893422603607
1780625219867169800,1.111169677734375,-0.3988349139690399,-0.2927320897579193,-0.4920071065425873
1780625219877200000,1.121199951171875,-0.36956170201301575,-0.12879611551761627,-0.6225784420967102
1780625219887229000,1.13122900390625,-0.3190782964229584,-0.04129556566476822,-0.6570029854774475
1780625219897258000,1.141258056640625,-0.2790510952472687,-0.03592639043927193,-0.5924381017684937
1780625219907286800,1.151286865234375,-0.29129576683044434,-0.11885509639978409,-0.4638545513153076
1780625219917316900,1.16131689453125,-0.35032227635383606,-0.11562514305114746,-0.32876020669937134
1780625219927346000,1.171345947265625,-0.4115709960460663,0.0368213877081871,-0.2567794919013977
1780625219937374700,1.181374755859375,-0.4555562138557434,0.2547758221626282,-0.2750178873538971
1780625219947404800,1.19140478515625,-0.48021629452705383,0.46220865845680237,-0.35334357619285583
1780625219957433900,1.201433837890625,-0.46445876359939575,0.5856420993804932,-0.4551822245121002
1780625219967463000,1.211462890625,-0.4371888041496277,0.5776842832565308,-0.5353479385375977
1780625219977493000,1.221492919921875,-0.4220181703567505,0.46450716257095337,-0.5509383678436279
1780625219987521800,1.231521728515625,-0.42491888999938965,0.294921875,-0.4928886592388153
1780625219997550800,1.24155078125,-0.42662158608436584,0.13016647100448608,-0.3780840337276459
1780625220007580200,1.251580078125,-0.43610110878944397,0.09521568566560745,-0.2655215263366699
1780625220017609700,1.261609619140625,-0.45125502347946167,0.2157205045223236,-0.24061109125614166
1780625220027639000,1.27163916015625,-0.437661737203598,0.3822580873966217,-0.29466313123703003
1780625220037668000,1.281668212890625,-0.40573903918266296,0.5697816610336304,-0.3949258625507355
1780625220047698000,1.291697998046875,-0.3539395034313202,0.664918839931488,-0.49975693225860596
1780625220057727000,1.30172705078125,-0.30146414041519165,0.6205412149429321,-0.5625531077384949
1780625220067756000,1.311756103515625,-0.24529647827148438,0.47034773230552673,-0.5614596605300903
1780625220077785000,1.32178515625,-0.2014675885438919,0.23554986715316772,-0.49092957377433777
1780625220087815200,1.331815185546875,-0.1795969009399414,-0.05518689751625061,-0.35347771644592285
1780625220097844000,1.341843994140625,-0.18634243309497833,-0.32653769850730896,-0.18569166958332062
1780625220107873000,1.351873046875,-0.19738762080669403,-0.5113556981086731,-0.045122310519218445
1780625220117903000,1.361903076171875,-0.19165363907814026,-0.583817720413208,0.0080807413905859
1780625220127932000,1.371931884765625,-0.18384285271167755,-0.47657111287117004,-0.10667966306209564
1780625220137961000,1.3819609375,-0.1924220472574234,-0.2793880105018616,-0.39569365978240967
1780625220147991000,1.391990966796875,-0.22499409317970276,-0.07268517464399338,-0.7433682084083557
1780625220158020000,1.40202001953125,-0.2726535201072693,0.10069651901721954,-1.0227253437042236
1780625220168049000,1.412048828125,-0.2870361804962158,0.23098181188106537,-1.1437546014785767
1780625220178078000,1.422077880859375,-0.25859859585762024,0.2651979625225067,-1.1074340343475342
1780625220188108000,1.43210791015625,-0.1885279268026352,0.1348799169063568,-0.9481676816940308
1780625220198137000,1.44213720703125,-0.11513908207416534,-0.09156165271997452,-0.67862868309021
1780625220208166000,1.452165771484375,-0.0983145609498024,-0.34572523832321167,-0.3355584144592285
1780625220218196000,1.462196044921875,-0.1289377212524414,-0.6671112775802612,0.02490421012043953
1780625220228225000,1.47222509765625,-0.16992244124412537,-1.0169944763183594,0.37584227323532104
1780625220238253800,1.48225390625,-0.1286018192768097,-1.2456361055374146,0.6824592351913452
1780625220248284000,1.492283935546875,0.018810810521245003,-1.3160104751586914,0.8378224968910217
1780625220258313000,1.50231298828125,0.19107510149478912,-1.3021870851516724,0.7027006149291992
1780625220268342000,1.512342041015625,0.3213993012905121,-1.3583123683929443,0.27049511671066284
1780625220278370800,1.522370849609375,0.4363974332809448,-1.4197134971618652,-0.3034570813179016
1780625220288401000,1.53240087890625,0.5560146570205688,-1.4173227548599243,-0.8901171088218689
1780625220298430000,1.542429931640625,0.7465921640396118,-1.432460069656372,-1.328213095664978
1780625220308459000,1.552458984375,0.9298613667488098,-1.4618715047836304,-1.4369685649871826
1780625220318488800,1.56248876953125,1.078568935394287,-1.6030043363571167,-1.2266305685043335
1780625220328516600,1.5725166015625,1.2410094738006592,-1.894233226776123,-0.8679099678993225
1780625220338545700,1.582545654296875,1.396362066268921,-2.199012041091919,-0.5806072950363159
1780625220348575500,1.592575439453125,1.5999906063079834,-2.4651987552642822,-0.4968295395374298
1780625220358604500,1.6026044921875,1.832274317741394,-2.7048206329345703,-0.6285591125488281
1780625220368633900,1.6126337890625,2.0766077041625977,-2.8871636390686035,-0.8935894966125488
1780625220378662700,1.62266259765625,2.2949538230895996,-2.9706802368164062,-1.1780511140823364
1780625220388692700,1.632692626953125,2.617701292037964,-3.047436237335205,-1.3390547037124634
1780625220398721800,1.6427216796875,3.0353713035583496,-3.0686745643615723,-1.3477156162261963
1780625220408750800,1.652750732421875,3.0891830921173096,-2.5435945987701416,-1.4639854431152344
1780625220418780700,1.66278076171875,3.3235864639282227,-3.680006980895996,-1.7538825273513794
1780625220428809700,1.672809814453125,3.457432508468628,-4.112186431884766,-1.555748701095581
1780625220438838800,1.6828388671875,3.574371814727783,-3.9426991939544678,-1.0085691213607788
1780625220448868900,1.692868896484375,3.4790005683898926,-3.8540682792663574,-0.6850723028182983
1780625220458897700,1.702897705078125,3.254432201385498,-3.9588325023651123,-0.6021987795829773
1780625220468926700,1.7129267578125,3.0818121433258057,-3.948218584060669,-0.5360831022262573
1780625220478955800,1.722955810546875,3.147977590560913,-3.933974027633667,-0.4321008324623108
1780625220488985600,1.732985595703125,3.4398739337921143,-4.1436991691589355,-0.3377479910850525
1780625220499014700,1.7430146484375,3.8979973793029785,-4.653605937957764,-0.2410329133272171
1780625220509043700,1.753043701171875,4.409153938293457,-5.293201923370361,-0.08069410175085068
1780625220519073800,1.76307373046875,5.003058910369873,-5.615540027618408,0.1855837106704712
1780625220529102600,1.7731025390625,5.571531772613525,-5.771050930023193,0.39140427112579346
1780625220539131600,1.783131591796875,5.987927436828613,-6.119325160980225,0.5242807865142822
1780625220549161700,1.79316162109375,6.390748977661133,-6.55109167098999,0.8165752291679382
1780625220559190800,1.803190673828125,6.798652648925781,-6.8486175537109375,1.3524329662322998
1780625220569219600,1.813219482421875,7.174645900726318,-6.944698810577393,2.0301461219787598
1780625220579249700,1.823249755859375,7.468211650848389,-6.976236343383789,2.759854793548584
1780625220589278700,1.83327880859375,7.60793924331665,-7.106448650360107,3.443601369857788
1780625220599307800,1.843307861328125,7.609375476837158,-7.340198993682861,4.020362377166748
1780625220609336600,1.853336669921875,7.617067337036133,-7.474663734436035,4.507716178894043
1780625220619366700,1.86336669921875,7.537447929382324,-7.406447887420654,5.00636625289917
1780625220629395700,1.873395751953125,7.061097145080566,-6.809884071350098,5.689144134521484
1780625220639424500,1.883424560546875,5.934664249420166,-5.498309135437012,6.408516883850098
1780625220649454600,1.89345458984375,4.142512798309326,-3.9070677757263184,6.815920352935791
1780625220659483600,1.903483642578125,1.856547236442566,-2.172924757003784,6.586436748504639
1780625220669512700,1.9135126953125,-0.42096710205078125,-0.3886045515537262,5.68221378326416
1780625220679542500,1.92354248046875,-2.141611337661743,1.2550673484802246,4.286988735198975
1780625220689571600,1.933571533203125,-3.2445170879364014,2.4895098209381104,2.7349817752838135
1780625220699600600,1.9436005859375,-4.03969144821167,3.0564804077148438,1.2264875173568726
1780625220709629700,1.953629638671875,-4.528712749481201,3.191296339035034,-0.03258586302399635
1780625220719659500,1.963659423828125,-4.780767917633057,3.014634847640991,-1.0944260358810425
1780625220729688600,1.9736884765625,-5.063393592834473,2.542142868041992,-1.829530954360962
1780625220739717600,1.983717529296875,-5.4208173751831055,2.141555070877075,-2.226731300354004
1780625220749747700,1.993747802734375,-5.8594889640808105,1.785696029663086,-2.4192962646484375
1780625220759776500,2.003776611328125,-6.284976005554199,1.5212771892547607,-2.514068603515625
1780625220769805600,2.0138056640625,-6.435307502746582,1.2709919214248657,-2.4938676357269287
1780625220779835600,2.023835693359375,-5.8101701736450195,0.6408421993255615,-2.016392469406128
1780625220789864400,2.033864501953125,-5.4368367195129395,-0.37090176343917847,-1.308212161064148
1780625220799893500,2.0438935546875,-5.033111095428467,-1.1289045810699463,-0.9869376420974731
1780625220809923600,2.053923583984375,-4.800662994384766,-0.7515391111373901,-1.4116311073303223
1780625220819952600,2.06395263671875,-4.506159782409668,0.10130861401557922,-2.160067081451416
1780625220829981400,2.0739814453125,-3.924311399459839,0.5999831557273865,-2.675166606903076
1780625220840010800,2.0840107421875,-2.9335577487945557,0.4809412360191345,-2.544381618499756
1780625220850040600,2.09404052734375,-2.178408145904541,-0.1605175882577896,-1.7596211433410645
1780625220860069600,2.104069580078125,-1.349112868309021,-0.8309170603752136,-0.963553249835968
1780625220870098700,2.1140986328125,-0.8340461254119873,-1.1658906936645508,-0.43528997898101807
1780625220880128500,2.12412841796875,-0.5629549026489258,-0.8900043368339539,-0.5584424734115601
1780625220890157800,2.13415771484375,-0.5876660943031311,-0.29074275493621826,-1.5491243600845337
1780625220900186600,2.1441865234375,-0.7710872888565063,0.07659292966127396,-2.590991497039795
1780625220910216400,2.154216552734375,-0.8446536660194397,-0.19285240769386292,-3.2461206912994385
1780625220920245800,2.164245849609375,-0.6667394042015076,-1.18715238571167,-3.587660312652588
1780625220930274800,2.17427490234375,-0.1697469800710678,-2.352975368499756,-3.582561731338501
1780625220940303600,2.1843037109375,0.6076611280441284,-3.2344205379486084,-3.4368906021118164
1780625220950333700,2.194333740234375,1.4641376733779907,-3.5116448402404785,-3.2665767669677734
1780625220960362800,2.20436279296875,2.11938738822937,-3.290372610092163,-3.0266153812408447
1780625220970391800,2.214391845703125,2.514432668685913,-2.6077194213867188,-2.850104808807373
1780625220980421600,2.224421630859375,2.725886344909668,-1.3294241428375244,-2.8235647678375244
1780625220990450700,2.23445068359375,2.7642714977264404,-0.13525201380252838,-2.8078083992004395
1780625221000479700,2.244479736328125,2.6285643577575684,1.0491822957992554,-2.6920342445373535
1780625221010509800,2.254509765625,2.0115222930908203,1.1570733785629272,-2.5111756324768066
1780625221020538600,2.26453857421875,1.8255501985549927,-0.09353967010974884,-1.968787670135498
1780625221030567700,2.274567626953125,2.256866455078125,-1.1593021154403687,-1.034590482711792
1780625221040597800,2.28459765625,2.5932929515838623,-2.120429515838623,-0.01203613355755806
1780625221050626800,2.294626708984375,2.561204195022583,-2.4112396240234375,0.9264695644378662
1780625221060655600,2.304655517578125,2.2683017253875732,-2.537418842315674,1.7329514026641846
1780625221070684700,2.3146845703125,1.8892626762390137,-2.2496073246002197,2.1835854053497314
1780625221080714800,2.32471484375,1.5164400339126587,-1.6735986471176147,2.1823084354400635
1780625221090743600,2.33474365234375,1.255759358406067,-1.0249687433242798,1.8384569883346558
1780625221100772600,2.344772705078125,1.0661011934280396,-0.39121612906455994,1.3499969244003296
1780625221110802700,2.354802734375,1.016396164894104,0.10937850177288055,0.8678744435310364
1780625221120831700,2.364831787109375,1.1471854448318481,0.32795852422714233,0.5311774015426636
1780625221130860500,2.374860595703125,1.4046694040298462,0.12697111070156097,0.31347325444221497
1780625221140890600,2.384890625,1.8571593761444092,-0.009988091886043549,0.11063599586486816
1780625221150919700,2.394919677734375,2.4395861625671387,-0.045226775109767914,-0.1203005462884903
1780625221160948700,2.40494873046875,3.0270137786865234,-0.056589480489492416,-0.3518761694431305
1780625221170978600,2.414978515625,3.496587038040161,-0.050858356058597565,-0.5760741233825684
1780625221181007600,2.425007568359375,3.84769606590271,0.02326953411102295,-0.7345073223114014
1780625221191036700,2.43503662109375,3.9803824424743652,0.2310461699962616,-0.8008022308349609
1780625221201066800,2.445066650390625,3.871093273162842,0.7652472257614136,-0.8876012563705444
1780625221211095600,2.455095458984375,3.726466178894043,1.3180593252182007,-0.9152563214302063
1780625221221124600,2.46512451171875,3.592217445373535,1.7747271060943604,-0.9448413848876953
1780625221231153700,2.475153564453125,3.5122501850128174,2.0112240314483643,-1.0160412788391113
1780625221241183700,2.485183837890625,3.471933126449585,2.015235185623169,-1.1244138479232788
1780625221251212500,2.495212646484375,3.4682185649871826,1.7772947549819946,-1.2666090726852417
1780625221261241600,2.50524169921875,3.5057902336120605,1.4424105882644653,-1.3590900897979736
1780625221271271700,2.515271728515625,3.5298917293548584,1.0625956058502197,-1.222217082977295
1780625221281300500,2.525300537109375,3.4851574897766113,0.7733922004699707,-0.8638488054275513
1780625221291329500,2.53532958984375,3.3569886684417725,0.5347061157226562,-0.4907529652118683
1780625221301359600,2.545359619140625,3.1117634773254395,0.17814701795578003,-0.1498553305864334
1780625221311388700,2.555388671875,3.1065316200256348,0.053141430020332336,0.060364749282598495
1780625221321418000,2.56541796875,3.898284673690796,0.5192326307296753,0.048176296055316925
1780625221331448000,2.575447998046875,4.440505027770996,1.1874253749847412,0.3165731132030487
1780625221341477000,2.58547705078125,4.483841419219971,1.7624455690383911,0.7359687685966492
1780625221351506200,2.595506103515625,4.176853179931641,1.788387656211853,1.177212119102478
1780625221361536300,2.605536376953125,3.528841495513916,1.6761425733566284,1.6069567203521729
1780625221371565000,2.61556494140625,2.5677006244659424,1.4500993490219116,1.8399533033370972
1780625221381594000,2.625593994140625,1.3388185501098633,1.2055644989013672,1.858022928237915
1780625221391623200,2.635623046875,0.12233582139015198,1.2255603075027466,1.7818230390548706
1780625221401653000,2.645653076171875,-0.8261232972145081,1.3199383020401,1.5874624252319336
1780625221411682000,2.65568212890625,-1.3724029064178467,1.318586826324463,1.2906267642974854
1780625221421711000,2.665711181640625,-1.514912724494934,1.1647253036499023,0.988880455493927
1780625221431741200,2.6757412109375,-1.3366245031356812,0.7101796865463257,0.6174877285957336
1780625221441770000,2.68577001953125,-0.9680642485618591,-0.09171895682811737,0.1186005026102066
1780625221451799000,2.695799072265625,-0.6576826572418213,-0.6539649963378906,-0.3342418074607849
1780625221461829000,2.7058291015625,-0.5087392330169678,-0.6673480272293091,-0.5989500284194946
1780625221471858200,2.715858154296875,-0.45351964235305786,-0.40695720911026,-0.6892037987709045
1780625221481887000,2.725886962890625,-0.4463679790496826,-0.09518209099769592,-0.6575227379798889
1780625221491917000,2.7359169921875,-0.4646679162979126,0.21270890533924103,-0.5607098937034607
1780625221501946000,2.745946044921875,-0.5058978796005249,0.4395178556442261,-0.4305460751056671
1780625221511975200,2.75597509765625,-0.571797788143158,0.5472016930580139,-0.25484615564346313
1780625221522005000,2.7660048828125,-0.6797037720680237,0.5861203074455261,-0.03289376571774483
1780625221532034000,2.776033935546875,-0.8639513850212097,0.5733669996261597,0.20289158821105957
1780625221542063400,2.7860634765625,-0.9103654623031616,0.6739071607589722,0.43499165773391724
1780625221552092200,2.796092041015625,-0.8875613212585449,0.5613412261009216,0.5542210936546326
1780625221562122000,2.8061220703125,-0.790693998336792,0.17252838611602783,0.4203673005104065
1780625221572151300,2.8161513671875,-0.5873557925224304,-0.35992538928985596,-0.01916133612394333
1780625221582180400,2.826180419921875,-0.21177077293395996,-0.706808865070343,-0.6477208137512207
1780625221592210200,2.836210205078125,0.2619855999946594,-0.7351611852645874,-1.1875669956207275
1780625221602239200,2.8462392578125,0.7220399379730225,-0.6144270896911621,-1.5595420598983765
1780625221612268300,2.856268310546875,1.1087150573730469,-0.39089277386665344,-1.789987325668335
1780625221622298400,2.86629833984375,1.316127061843872,-0.10486860573291779,-1.9097257852554321
1780625221632327200,2.8763271484375,1.2816530466079712,0.19120272994041443,-1.9549369812011719
1780625221642356200,2.886356201171875,1.0505194664001465,0.5039865970611572,-2.0425095558166504
1780625221652386300,2.89638623046875,0.6184700131416321,0.5417550802230835,-2.2568519115448
1780625221662415400,2.906415283203125,0.049966830760240555,0.13767464458942413,-2.4470183849334717
1780625221672444200,2.916444091796875,-0.40605875849723816,-0.5071544051170349,-2.4612903594970703
1780625221682474200,2.92647412109375,-0.5739678740501404,-0.9956541061401367,-2.283259868621826
1780625221692503300,2.93650341796875,-0.5430171489715576,-1.2030051946640015,-2.0539658069610596
1780625221702532000,2.946531982421875,-0.42169222235679626,-1.0216007232666016,-1.8327183723449707
1780625221712562200,2.956562255859375,-0.2534491717815399,-0.4711557626724243,-1.591269850730896
1780625221722591200,2.96659130859375,-0.05439845472574234,0.1161792129278183,-1.3271799087524414
1780625221732620300,2.976620361328125,0.05594749376177788,0.49286922812461853,-1.081534743309021
1780625221742650400,2.986650390625,0.10218709707260132,0.5683513879776001,-0.8622308373451233
1780625221752679200,2.99667919921875,0.06087001785635948,0.3319692611694336,-0.6523561477661133
1780625221762708200,3.006708251953125,-0.03693538159132004,0.060967329889535904,-0.46714159846305847
1780625221772737300,3.0167373046875,-0.11653433740139008,-0.03928976505994797,-0.28408071398735046
1780625221782767000,3.02676708984375,-0.1684827208518982,-0.024781465530395508,-0.1288660168647766
1780625221792796200,3.036796142578125,-0.19615402817726135,0.01118479110300541,0.015477839857339859
1780625221802825200,3.0468251953125,-0.21551384031772614,-0.020690610632300377,0.1455165594816208
1780625221812855300,3.056855224609375,-0.26218974590301514,-0.09671799838542938,0.2728596031665802
1780625221822884000,3.066884033203125,-0.3192947208881378,-0.1471816748380661,0.41719943284988403
1780625221832913200,3.0769130859375,-0.33156123757362366,-0.1379929780960083,0.5791510343551636
1780625221842943200,3.086943115234375,-0.29196450114250183,-0.026024024933576584,0.7609493136405945
1780625221852972300,3.09697216796875,-0.2564046382904053,0.07780170440673828,0.9489626288414001
1780625221863001000,3.1070009765625,-0.22009359300136566,0.1286526322364807,1.1423592567443848
1780625221873031200,3.11703125,-0.1406581699848175,0.15067751705646515,1.3441059589385986
1780625221883060200,3.127060302734375,-0.01690634898841381,0.2200469672679901,1.5493736267089844
1780625221893089000,3.137089111328125,0.11542399227619171,0.3220106363296509,1.707883596420288
1780625221903119000,3.147119140625,0.2416580319404602,0.4512588679790497,1.800312876701355
1780625221913148200,3.157148193359375,0.30249473452568054,0.5704939365386963,1.773266315460205
1780625221923177200,3.16717724609375,0.24854989349842072,0.5999889969825745,1.6204490661621094
1780625221933207300,3.177207275390625,0.09502425044775009,0.5343891978263855,1.4055602550506592
1780625221943236000,3.187236083984375,-0.09128356724977493,0.42855969071388245,1.194553017616272
1780625221953265200,3.19726513671875,-0.24649286270141602,0.2484130859375,0.9620544910430908
1780625221963294200,3.207294189453125,-0.31353625655174255,-0.004790923558175564,0.6699970364570618
1780625221973324000,3.217323974609375,-0.21995651721954346,-0.14571048319339752,0.44786009192466736
1780625221983353000,3.22735302734375,-0.0020419505890458822,-0.07481849193572998,0.41224831342697144
1780625221993382100,3.237382080078125,0.3323717415332794,0.19597679376602173,0.47886303067207336
1780625222003412200,3.247412109375,0.7473088502883911,0.6165237426757812,0.5922812819480896
1780625222013441000,3.25744091796875,1.0725457668304443,0.9013426899909973,0.6795669198036194
1780625222023470000,3.267469970703125,1.316304087638855,0.5857061743736267,0.5646610260009766
1780625222033500200,3.277500244140625,1.4643670320510864,-0.3215409517288208,0.14397162199020386
1780625222043529200,3.287529296875,1.4102462530136108,-0.9353377223014832,-0.28585463762283325
1780625222053558000,3.29755810546875,1.1607751846313477,-0.6356402039527893,-0.4313085079193115
1780625222063588000,3.307588134765625,0.8948528170585632,0.11962837725877762,-0.3945242464542389
1780625222073617200,3.3176171875,0.7552176713943481,0.6165135502815247,-0.38662078976631165
1780625222083646000,3.32764599609375,0.7489899396896362,0.6521444916725159,-0.3602353036403656
1780625222093676000,3.337676025390625,0.7818304300308228,0.4826588034629822,-0.09475436061620712
1780625222103705000,3.347705078125,0.745273232460022,0.34615761041641235,0.4083205461502075
1780625222113734100,3.357734130859375,0.674886167049408,0.35749363899230957,0.9890174865722656
1780625222123764200,3.36776416015625,0.5898818373680115,0.4240568280220032,1.4541072845458984
1780625222133793000,3.37779296875,0.43344590067863464,0.45060935616493225,1.706905722618103
1780625222143822000,3.387822021484375,0.245136097073555,0.34714388847351074,1.7336676120758057
1780625222153852200,3.39785205078125,0.10819635540246964,0.10858190059661865,1.6064116954803467
1780625222163881000,3.407880859375,-0.0002099095145240426,-0.15807248651981354,1.489230751991272
1780625222173910000,3.417909912109375,-0.012018631212413311,-0.2245021015405655,1.4767260551452637
1780625222183939300,3.427939208984375,0.03187502175569534,-0.11310040205717087,1.5426793098449707
1780625222193969200,3.43796923828125,0.0984915941953659,-0.02177262119948864,1.602739691734314
1780625222203998200,3.447998291015625,0.21270890533924103,-0.050633370876312256,1.6069363355636597
1780625222214027300,3.45802734375,0.30777549743652344,-0.12978439033031464,1.5631736516952515
1780625222224057000,3.46805712890625,0.34498608112335205,-0.217464879155159,1.5141069889068604
1780625222234086400,3.47808642578125,0.31810814142227173,-0.28186729550361633,1.4877595901489258
1780625222244115200,3.488115234375,0.21663890779018402,-0.36160266399383545,1.4593087434768677
1780625222254145000,3.49814501953125,0.1106453686952591,-0.42488574981689453,1.4093294143676758
1780625222264174300,3.50817431640625,0.04487480968236923,-0.38472849130630493,1.373509407043457
1780625222274203100,3.518203125,0.050485290586948395,-0.2207462191581726,1.3547946214675903
1780625222284233200,3.528233154296875,0.14137357473373413,0.059337373822927475,1.3202497959136963
1780625222294262300,3.53826220703125,0.21088314056396484,0.2904406189918518,1.202372670173645
1780625222304291300,3.548291259765625,0.21533294022083282,0.3297848403453827,0.9716011881828308
1780625222314321200,3.558321044921875,0.2247738540172577,0.2897748351097107,0.6803030371665955
1780625222324350200,3.56835009765625,0.25214239954948425,0.21667473018169403,0.3779626488685608
1780625222334379800,3.5783798828125,0.25977635383605957,0.14090193808078766,0.11503462493419647
1780625222344409600,3.58840966796875,0.20857608318328857,0.06807619333267212,-0.06743903458118439
1780625222354438700,3.598438720703125,0.1617411971092224,0.01908734440803528,-0.13898220658302307
1780625222364467700,3.6084677734375,0.1594037115573883,0.13773369789123535,-0.0894608423113823
1780625222374497500,3.61849755859375,0.08831862360239029,-0.007681025192141533,-0.0651555061340332
1780625222384526800,3.62852685546875,0.06371969729661942,-0.20830576121807098,-0.10247860848903656
1780625222394555600,3.6385556640625,0.10843709856271744,-0.2952694296836853,-0.1259162873029709
1780625222404585500,3.64858544921875,0.14279204607009888,-0.3530682921409607,-0.151563823223114
1780625222414614800,3.65861474609375,0.15951137244701385,-0.3503588140010834,-0.17816054821014404
1780625222424643800,3.668643798828125,0.18543408811092377,-0.24128106236457825,-0.1903594434261322
1780625222434672600,3.678672607421875,0.20353452861309052,-0.08379341661930084,-0.18861134350299835
1780625222444702700,3.68870263671875,0.188592791557312,0.05266399681568146,-0.16861417889595032
1780625222454731800,3.698731689453125,0.14700619876384735,0.12280154228210449,-0.12944041192531586
1780625222464760600,3.708760498046875,0.11783240735530853,0.18386970460414886,-0.0788922980427742
1780625222474790700,3.718790771484375,0.07863280177116394,0.2226591855287552,-0.05805972218513489
1780625222484819700,3.72881982421875,0.05454859137535095,0.26373791694641113,-0.0433603897690773
1780625222494848800,3.738848876953125,0.02896227315068245,0.2059081494808197,-0.0404072105884552
1780625222504878800,3.74887890625,0.004301231354475021,0.061701204627752304,-0.06233810633420944
1780625222514907600,3.75890771484375,-0.018665337935090065,-0.040700800716876984,-0.09695333987474442
1780625222524936700,3.768936767578125,-0.03754141926765442,-0.08970300108194351,-0.13368387520313263
1780625222534966800,3.778966796875,-0.03406599536538124,-0.05289918929338455,-0.14455409348011017
1780625222544995600,3.78899560546875,0.007461858447641134,0.1118902936577797,-0.09354071319103241
1780625222555024600,3.799024658203125,-0.005835837218910456,0.2537158727645874,-0.03693682700395584
1780625222565054700,3.8090546875,0.005826209206134081,0.5191457271575928,0.03630061447620392
1780625222575083800,3.819083740234375,0.02385075017809868,0.6568551063537598,0.06523506343364716
1780625222585112600,3.829112548828125,0.021857833489775658,0.5578946471214294,0.00964883528649807
1780625222595142700,3.839142578125,-0.03861216455698013,0.3251210153102875,-0.1369408667087555
1780625222605171700,3.849171630859375,-0.045130882412195206,0.34282317757606506,-0.2248082458972931
1780625222615200800,3.85920068359375,-0.1108691543340683,0.35217538475990295,-0.2838289439678192
1780625222625230600,3.869230712890625,-0.18458884954452515,0.36075788736343384,-0.32475823163986206
1780625222635259600,3.879259765625,-0.2809433341026306,0.30773648619651794,-0.38814598321914673
1780625222645288700,3.889288818359375,-0.30544713139533997,0.3049764335155487,-0.44411978125572205
1780625222655318800,3.89931884765625,-0.3162483870983124,0.3318202793598175,-0.49484288692474365
1780625222665347600,3.90934765625,-0.34751254320144653,0.39643463492393494,-0.548246443271637
1780625222675376600,3.919376708984375,-0.38321512937545776,0.49086126685142517,-0.5937164425849915
1780625222685406700,3.92940673828125,-0.38189762830734253,0.6891189813613892,-0.6145516633987427
1780625222695435800,3.939435791015625,-0.36262646317481995,0.942417562007904,-0.6021615266799927
1780625222705464600,3.949464599609375,-0.3061507046222687,1.153007984161377,-0.5570963025093079
1780625222715494700,3.95949462890625,-0.23781664669513702,1.2291970252990723,-0.5228914618492126
1780625222725523700,3.969523681640625,-0.16921117901802063,1.2195391654968262,-0.5571964979171753
1780625222735552500,3.979552490234375,-0.041555218398571014,1.1635171175003052,-0.6381075978279114
1780625222745581600,3.98958154296875,0.12643395364284515,1.1625895500183105,-0.7064427137374878
1780625222755611600,3.999611572265625,0.28697994351387024,1.146173119544983,-0.8157481551170349
1780625222765640700,4.009640625,0.41891220211982727,1.0042284727096558,-1.1060632467269897
1780625222775669500,4.01966943359375,0.5029351711273193,0.777673602104187,-1.5886491537094116
1780625222785699600,4.029699462890625,0.5460041165351868,0.7794392704963684,-2.0789029598236084
1780625222795728600,4.039728759765625,0.5593366622924805,0.9925107955932617,-2.3744444847106934
1780625222805757700,4.0497578125,0.5479468703269958,1.2602537870407104,-2.4808783531188965
1780625222815787500,4.05978759765625,0.38295501470565796,1.2291678190231323,-2.5082831382751465
1780625222825816600,4.069816650390625,0.01007235236465931,0.8076984286308289,-2.5485470294952393
1780625222835845600,4.079845703125,-0.03264235332608223,0.21275779604911804,-2.507788896560669
1780625222845875700,4.089875732421875,0.04875451698899269,-0.5266799330711365,-2.522071599960327
1780625222855904500,4.099904541015625,0.16701671481132507,-1.1089012622833252,-2.6051392555236816
1780625222865933600,4.10993359375,0.062138933688402176,-1.6801629066467285,-2.752800703048706
1780625222875963600,4.119963623046875,-0.14887849986553192,-2.0418553352355957,-2.809328079223633
1780625222885992700,4.12999267578125,-0.40926313400268555,-2.0355358123779297,-2.816396474838257
1780625222896021500,4.140021484375,-0.6762034893035889,-1.758908987045288,-2.7803168296813965
1780625222906051600,4.150051513671875,-0.8538100719451904,-1.3817331790924072,-2.6507489681243896
1780625222916080600,4.16008056640625,-0.8387192487716675,-0.968842625617981,-2.4019432067871094
1780625222926109400,4.170109375,-0.6026315689086914,-0.5849748253822327,-2.1441783905029297
1780625222936139500,4.180139404296875,-0.1415020376443863,-0.1707041710615158,-1.8878921270370483
1780625222946168600,4.19016845703125,0.3187256455421448,0.3125860095024109,-1.615301489830017
1780625222956197600,4.20019775390625,0.4537663161754608,0.5275116562843323,-1.3352320194244385
1780625222966227700,4.210227783203125,0.4279571771621704,0.4093835949897766,-1.0111336708068848
1780625222976256500,4.220256591796875,0.48203399777412415,0.04827973619103432,-0.5747820138931274
1780625222986285600,4.23028564453125,0.5552895069122314,-0.3078039884567261,-0.09840945899486542
1780625222996315600,4.240315673828125,0.49545788764953613,-0.5691178441047668,0.35723423957824707
1780625223006344400,4.250344482421875,0.3406578302383423,-0.6509332060813904,0.7219693660736084
1780625223016373800,4.260373779296875,0.21264660358428955,-0.5236024260520935,1.0279146432876587
1780625223026403600,4.270403564453125,0.09247782081365585,-0.2610468864440918,1.2716630697250366
1780625223036432600,4.2804326171875,0.06643343716859818,-0.014187050051987171,1.448341965675354
1780625223046461700,4.290461669921875,0.017317263409495354,0.06416866928339005,1.5575284957885742
1780625223056491500,4.300491455078125,-0.015097400173544884,-0.09536053985357285,1.6461187601089478
1780625223066520600,4.3105205078125,-0.00797042902559042,-0.3633785843849182,1.7416564226150513
1780625223076550000,4.3205498046875,0.009301502257585526,-0.6554293632507324,1.8028603792190552
1780625223086579500,4.330579345703125,0.00934068113565445,-0.9205797910690308,1.8165498971939087
1780625223096608500,4.3406083984375,-0.01905873604118824,-1.0750281810760498,1.7802337408065796
1780625223106637800,4.350637939453125,-0.022263702005147934,-1.045424461364746,1.7158879041671753
1780625223116667600,4.360667724609375,-0.06950418651103973,-0.8883847594261169,1.5712162256240845
1780625223126696700,4.37069677734375,-0.14238007366657257,-0.7318111658096313,1.2568092346191406
1780625223136725800,4.380725830078125,-0.2646724581718445,-0.5824341773986816,0.758109986782074
1780625223146755600,4.390755615234375,-0.40550339221954346,-0.3594142496585846,0.21219614148139954
1780625223156785000,4.400784912109375,-0.5108550786972046,-0.048882197588682175,-0.23391848802566528
1780625223166813700,4.410813720703125,-0.36116230487823486,0.32440704107284546,-0.46997320652008057
1780625223176843500,4.420843505859375,-0.013481036759912968,0.714772641658783,-0.5601902008056641
1780625223186872800,4.430872802734375,0.38769298791885376,1.0478649139404297,-0.5317199230194092
1780625223196901600,4.440901611328125,0.7154258489608765,1.2095624208450317,-0.25986334681510925
1780625223206931700,4.450931640625,0.8580164909362793,1.045791745185852,0.11162637919187546
1780625223216960800,4.460960693359375,0.6226966977119446,0.600239634513855,0.3540225028991699
1780625223226989800,4.47098974609375,0.15623991191387177,-0.03443697839975357,0.32448142766952515
1780625223237019600,4.48101953125,-0.14388981461524963,-0.46659931540489197,0.17435026168823242
1780625223247048700,4.491048583984375,-0.18639294803142548,-0.6763063073158264,0.03230695426464081
1780625223257077800,4.501077880859375,-0.10444135218858719,-0.7910763025283813,-0.10912580788135529
1780625223267107800,4.51110791015625,0.10844641178846359,-0.8095026612281799,-0.20717254281044006
1780625223277136600,4.52113671875,0.32322847843170166,-0.7363006472587585,-0.23045842349529266
1780625223287165700,4.531165771484375,0.44710758328437805,-0.477117657661438,-0.13781355321407318
1780625223297195800,4.54119580078125,0.44620954990386963,-0.04759586229920387,0.04949508607387543
1780625223307224800,4.551224853515625,0.48895829916000366,0.4201764166355133,0.25120073556900024
1780625223317253600,4.561253662109375,0.43886423110961914,0.6683963537216187,0.38252466917037964
1780625223327283200,4.571283203125,0.268140584230423,0.7282224297523499,0.46802040934562683
1780625223337312000,4.58131201171875,0.040991079062223434,0.7561845779418945,0.5673925280570984
1780625223347341000,4.591341064453125,-0.19596411287784576,0.7660415768623352,0.7036184072494507
1780625223357371100,4.60137109375,-0.4595731198787689,0.8264985680580139,0.9074506163597107
1780625223367400000,4.61139990234375,-0.7072796821594238,0.9040846824645996,1.1614861488342285
1780625223377429000,4.621428955078125,-0.8956040740013123,1.0519497394561768,1.4422498941421509
1780625223387459000,4.631458984375,-0.895921528339386,1.4568967819213867,1.708487868309021
1780625223397488000,4.641488037109375,-0.7140515446662903,1.883147954940796,1.9506845474243164
1780625223407517000,4.651516845703125,-0.4998481571674347,2.0791726112365723,2.1488196849823
1780625223417547000,4.661547119140625,-0.27332979440689087,2.0388259887695312,2.1993494033813477
1780625223427576000,4.671576171875,-0.051416441798210144,1.8357032537460327,2.0356051921844482
1780625223437605000,4.681605224609375,0.09440574795007706,1.5242489576339722,1.6948319673538208
1780625223447635000,4.691635009765625,0.2047208696603775,1.1517497301101685,1.2231171131134033
1780625223457664000,4.7016640625,0.37198173999786377,0.8393886089324951,0.6943406462669373
1780625223467693000,4.711693115234375,0.6036818027496338,0.6136510372161865,0.1907307505607605
1780625223477723100,4.72172314453125,0.8899657726287842,0.48334795236587524,-0.18985919654369354
1780625223487752000,4.731751953125,1.2252795696258545,0.46087199449539185,-0.4130752980709076
1780625223497781000,4.741781005859375,1.4611915349960327,0.4644318222999573,-0.491720587015152
1780625223507811000,4.75181103515625,1.5594929456710815,0.5112844109535217,-0.5020095705986023
1780625223517840100,4.761840087890625,1.3946983814239502,0.47792911529541016,-0.5455631613731384
1780625223527869000,4.771868896484375,1.0437222719192505,0.3616979122161865,-0.6501641869544983
1780625223537899000,4.78189892578125,0.6349248290061951,0.16482903063297272,-0.7692090272903442
1780625223547928000,4.791927978515625,0.29029902815818787,0.04065675660967827,-0.9332126379013062
1780625223557956900,4.801956787109375,0.08265715092420578,0.12226453423500061,-1.1257113218307495
1780625223567987000,4.811987060546875,0.13312119245529175,0.40151792764663696,-1.2731297016143799
1780625223578016000,4.82201611328125,0.2930040657520294,0.183456689119339,-1.1451523303985596
1780625223588045000,4.832045166015625,0.2734179198741913,-0.3960971236228943,-0.8354813456535339
1780625223598075100,4.8420751953125,0.12013782560825348,-0.906286895275116,-0.5225114226341248
1780625223608104000,4.85210400390625,-0.1065126284956932,-1.0474389791488647,-0.22506749629974365
1780625223618133000,4.862133056640625,-0.28931599855422974,-0.7171832919120789,0.0011267606168985367
1780625223628163000,4.8721630859375,-0.3710416853427887,-0.2121909111738205,0.20417091250419617
1780625223638191900,4.88219189453125,-0.36676517128944397,0.25981178879737854,0.3585836589336395
1780625223648221000,4.892220947265625,-0.3044043183326721,0.5469397306442261,0.43357348442077637
1780625223658250000,4.90225,-0.2549925744533539,0.677919328212738,0.425942987203598
1780625223668280000,4.912280029296875,-0.20544594526290894,0.7174599170684814,0.3234635591506958
1780625223678308900,4.922308837890625,-0.06574903428554535,0.7519004940986633,0.15219566226005554
1780625223688338000,4.932337890625,0.04534117504954338,0.7261808514595032,-0.027315568178892136
1780625223698368000,4.942367919921875,0.08382145315408707,0.5660332441329956,-0.17970670759677887
1780625223708397000,4.95239697265625,0.1037185788154602,0.3931777775287628,-0.28296592831611633
1780625223718426000,4.962426025390625,0.08130808174610138,0.2738646864891052,-0.31831619143486023
1780625223728456000,4.9724560546875,0.13768330216407776,0.3038344085216522,-0.29661017656326294
1780625223738485000,4.982485107421875,0.14923982322216034,0.34187552332878113,-0.2101655751466751
1780625223748514000,4.99251416015625,0.2505452036857605,0.42376604676246643,-0.11249379813671112
1780625223758544000,5.0025439453125,0.37699660658836365,0.5084120035171509,-0.01153575349599123
1780625223768573000,5.012572998046875,0.47437039017677307,0.5376926064491272,0.07628946006298065
1780625223778602200,5.022602294921875,0.5360289812088013,0.4633781611919403,0.1329125165939331
1780625223788631800,5.0326318359375,0.5357610583305359,0.3913624882698059,0.12067986279726028
1780625223798661000,5.0426611328125,0.5428938269615173,0.3215938210487366,0.07183536142110825
1780625223808690200,5.052690185546875,0.5815019011497498,0.25284892320632935,0.04719197005033493
1780625223818720000,5.062719970703125,0.6007307171821594,0.1728861927986145,0.06233390420675278
1780625223828749000,5.0727490234375,0.5860803723335266,0.09577702730894089,0.11541976034641266
1780625223838778000,5.082778076171875,0.5207850337028503,0.07461708784103394,0.18622075021266937
1780625223848808000,5.092807861328125,0.4175342321395874,0.1515701711177826,0.2439490258693695
1780625223858837200,5.102837158203125,0.25429606437683105,0.29927974939346313,0.23953990638256073
1780625223868866000,5.112865966796875,0.05124448612332344,0.4077991247177124,0.18442890048027039
1780625223878895900,5.122895751953125,-0.21310754120349884,0.2936168909072876,0.22683307528495789
1780625223888925200,5.13292529296875,-0.42952871322631836,0.26207584142684937,0.205752432346344
1780625223898954000,5.1429541015625,-0.6528254747390747,0.4069531559944153,0.08442626893520355
1780625223908984000,5.152984130859375,-0.7000837326049805,0.47070372104644775,-0.12415764480829239
1780625223919013000,5.16301318359375,-0.452544242143631,0.5716332793235779,-0.420136034488678
1780625223929042200,5.173042236328125,-0.13306185603141785,0.7778376340866089,-0.7411630749702454
1780625223939072300,5.183072265625,0.11673945933580399,0.9826123714447021,-1.065230131149292
1780625223949101000,5.19310107421875,0.21821841597557068,1.0000594854354858,-1.382277011871338
1780625223959130000,5.203130126953125,0.08021899312734604,0.6352921724319458,-1.5783878564834595
1780625223969160200,5.21316015625,-0.22925399243831635,-0.06549263000488281,-1.5606034994125366
1780625223979189000,5.22318896484375,-0.40907248854637146,-0.8624760508537292,-1.258400559425354
1780625223989218000,5.233218017578125,-0.28516045212745667,-1.3584141731262207,-0.7819194793701172
1780625223999248100,5.243248046875,-0.04395769163966179,-1.3920395374298096,-0.27871546149253845
1780625224009277200,5.253277099609375,0.11899471282958984,-1.1528171300888062,0.038089342415332794
1780625224019306000,5.263305908203125,0.12049993127584457,-0.7862822413444519,-0.021617397665977478
1780625224029336000,5.273336181640625,0.012438825331628323,-0.4093836843967438,-0.3408640921115875
1780625224039365000,5.283365234375,-0.04798191040754318,-0.13532549142837524,-0.6008394956588745
1780625224049394200,5.293394287109375,-0.08059133589267731,-0.0045307716354727745,-0.6779574155807495
1780625224059424000,5.303424072265625,-0.10576619952917099,0.04073098301887512,-0.6765611171722412
1780625224069453000,5.313453125,-0.1302141696214676,-0.029336679726839066,-0.6630701422691345
1780625224079482000,5.323482177734375,-0.1637100875377655,-0.20834344625473022,-0.624859631061554
1780625224089512200,5.33351220703125,-0.17311565577983856,-0.4293254017829895,-0.5802658200263977
1780625224099541000,5.343541015625,-0.1955977976322174,-0.6367273330688477,-0.5088787078857422
1780625224109570000,5.353570068359375,-0.248104989528656,-0.8096381425857544,-0.4053906202316284
1780625224119600000,5.36360009765625,-0.31893256306648254,-0.9507233500480652,-0.28470414876937866
1780625224129629200,5.373629150390625,-0.38597339391708374,-1.0848249197006226,-0.19433915615081787
1780625224139658000,5.383657958984375,-0.4276595711708069,-1.1994606256484985,-0.1440376341342926
1780625224149688000,5.39368798828125,-0.46645066142082214,-1.2058149576187134,-0.13149264454841614
1780625224159717000,5.403717041015625,-0.5621652007102966,-1.0713682174682617,-0.066191665828228
1780625224169746000,5.413745849609375,-0.6539099216461182,-0.877595841884613,0.02221207320690155
1780625224179776000,5.42377587890625,-0.7480457425117493,-0.6022140383720398,0.10539884120225906
1780625224189805000,5.43380517578125,-0.7537341713905334,-0.408234179019928,0.16359658539295197
1780625224199834000,5.443834228515625,-0.6658298969268799,-0.3454887866973877,0.22723735868930817
1780625224209864200,5.4538642578125,-0.5353437662124634,-0.3334251940250397,0.3313235342502594
1780625224219893000,5.46389306640625,-0.3876970708370209,-0.346584677696228,0.5151543617248535
1780625224229922000,5.473922119140625,-0.23308101296424866,-0.3816084861755371,0.7618589997291565
1780625224239952100,5.4839521484375,-0.09669920057058334,-0.41841045022010803,1.0258152484893799
1780625224249981000,5.49398095703125,-0.004739272873848677,-0.437874972820282,1.2429183721542358
1780625224260010000,5.504010009765625,0.06418226659297943,-0.48269838094711304,1.30972158908844
1780625224270040000,5.5140400390625,0.06975744664669037,-0.6360318660736084,1.0773612260818481
1780625224280069000,5.524069091796875,-0.03648722916841507,-0.7625834345817566,0.376408189535141
1780625224290098000,5.534097900390625,-0.2849638760089874,-0.5793360471725464,-0.5984089374542236
1780625224300128000,5.5441279296875,-0.6498110890388489,-0.06300695240497589,-1.3617100715637207
1780625224310157000,5.554156982421875,-0.9761248826980591,0.4505968689918518,-1.665090560913086
1780625224320186000,5.56418603515625,-1.2249821424484253,0.9287797212600708,-1.5178142786026
1780625224330215700,5.574215576171875,-1.3619133234024048,1.454757571220398,-1.0872182846069336
1780625224340244700,5.58424462890625,-1.198482871055603,1.5522981882095337,-0.5058272480964661
1780625224350273500,5.5942734375,-0.6383776068687439,0.99221271276474,0.19378729164600372
1780625224360303600,5.6043037109375,0.2391691356897354,0.27569323778152466,0.7569212317466736
1780625224370332700,5.614332763671875,1.1078739166259766,-0.16532805562019348,1.1779531240463257
1780625224380361700,5.62436181640625,1.6306489706039429,-0.24740269780158997,1.2336429357528687
1780625224390391600,5.6343916015625,1.438773274421692,0.1271088868379593,0.5825637578964233
1780625224400420600,5.644420654296875,0.7977152466773987,1.4654229879379272,-1.6489900350570679
1780625224410449700,5.65444970703125,0.691605269908905,1.1912195682525635,-3.2894747257232666
1780625224420479700,5.664479736328125,0.6116260290145874,-0.5928855538368225,-3.095379590988159
1780625224430508500,5.674508544921875,0.4809856116771698,-1.9343816041946411,-2.076848268508911
1780625224440537600,5.68453759765625,0.2644096314907074,-2.021254062652588,-0.9589017629623413
1780625224450567700,5.694567626953125,0.0431295670568943,-1.1340714693069458,0.22665971517562866
1780625224460596700,5.7045966796875,-0.024659866467118263,0.12871156632900238,1.4635297060012817
1780625224470625500,5.71462548828125,0.015715843066573143,0.9732536673545837,2.484516143798828
1780625224480655600,5.724655517578125,-0.027159186080098152,1.1441396474838257,3.0651965141296387
1780625224490684700,5.7346845703125,-0.1384173184633255,1.0426995754241943,3.1301252841949463
1780625224500713500,5.74471337890625,-0.3301563858985901,0.6952403783798218,2.818582534790039
1780625224510743600,5.75474365234375,-0.49026888608932495,0.3103620409965515,2.196610689163208
1780625224520772600,5.764772705078125,-0.5701568126678467,-0.03871871903538704,1.4047825336456299
1780625224530801700,5.7748017578125,-0.47062963247299194,-0.5522014498710632,0.8116203546524048
1780625224540831700,5.784831787109375,-0.2766804099082947,-0.9347909092903137,0.5729334950447083
1780625224550860500,5.794860595703125,-0.11108820885419846,-0.9644662737846375,0.4528862237930298
1780625224560889600,5.8048896484375,-0.01296057179570198,-0.6695523858070374,0.2851678133010864
1780625224570919700,5.814919677734375,0.010238668881356716,-0.24081996083259583,0.0411815382540226
1780625224580948500,5.824948486328125,-0.009451146237552166,0.09944680333137512,-0.19479957222938538
1780625224590977800,5.834977783203125,-0.038594938814640045,0.21100175380706787,-0.2693203389644623
1780625224601007600,5.845007568359375,-0.02274194173514843,0.21495920419692993,-0.09315329790115356
1780625224611036700,5.85503662109375,0.016159987077116966,0.3151635527610779,0.14363691210746765
1780625224621065700,5.865065673828125,0.08214219659566879,0.5059614777565002,0.27493366599082947
1780625224631095600,5.875095458984375,0.11119366437196732,0.6014708280563354,0.3527449369430542
1780625224641124600,5.88512451171875,0.0763629749417305,0.6088810563087463,0.39131203293800354
1780625224651154000,5.89515380859375,0.038860075175762177,0.5678254961967468,0.38508424162864685
1780625224661183500,5.90518359375,-0.00007374165579676628,0.4778842031955719,0.3138372302055359
1780625224671212800,5.915212890625,-0.014384976588189602,0.40576171875,0.14273560047149658
1780625224681241900,5.925241943359375,-0.04419799894094467,0.22565291821956635,-0.06368599832057953
1780625224691271700,5.935271728515625,-0.08719006180763245,-0.11693526059389114,-0.2348490208387375
1780625224701300700,5.94530078125,-0.12258027493953705,-0.5112468600273132,-0.3373495638370514
1780625224711329800,5.955329833984375,-0.15323619544506073,-0.8155183792114258,-0.4046385884284973
1780625224721359600,5.965359619140625,-0.17831997573375702,-0.9760992527008057,-0.4690015912055969
1780625224731389000,5.975388916015625,-0.21033240854740143,-1.0573632717132568,-0.5174465775489807
1780625224741417700,5.985417724609375,-0.23907111585140228,-1.1098464727401733,-0.5522724986076355
1780625224751447600,5.995447509765625,-0.24328115582466125,-1.101096749305725,-0.6074572205543518
1780625224761476900,6.005476806640625,-0.22179290652275085,-1.0929776430130005,-0.6600794196128845
1780625224771505700,6.015505615234375,-0.15235218405723572,-1.0750010013580322,-0.7118046879768372
1780625224781535700,6.02553564453125,-0.06509692221879959,-1.0076597929000854,-0.7579450011253357
1780625224791564800,6.035564697265625,-0.011366995051503181,-0.9032447934150696,-0.78766930103302
1780625224801593900,6.04559375,0.014862478710711002,-0.6884656548500061,-0.8287823796272278
1780625224811624000,6.0556240234375,-0.016917970031499863,-0.44418686628341675,-0.8367289900779724
1780625224821652700,6.06565283203125,-0.07977548986673355,-0.19135408103466034,-0.8146378397941589
1780625224831681800,6.075681884765625,-0.11981215327978134,0.06573789566755295,-0.7976042628288269
1780625224841711900,6.0857119140625,-0.1366281658411026,0.2158735990524292,-0.7668942809104919
1780625224851740700,6.09574072265625,-0.17110669612884521,0.2405209094285965,-0.7291359901428223
1780625224861769700,6.105769775390625,-0.21007007360458374,0.19612841308116913,-0.7194306254386902
1780625224871799800,6.1157998046875,-0.2407732903957367,0.05705728381872177,-0.6101645827293396
1780625224881828900,6.125828857421875,-0.25252580642700195,-0.16875773668289185,-0.37363165616989136
1780625224891857700,6.135857666015625,-0.19187848269939423,-0.2500629425048828,-0.1344183087348938
1780625224901887700,6.1458876953125,0.08748232573270798,0.3246102035045624,-0.27078011631965637
1780625224911916800,6.155916748046875,0.7809510827064514,0.8097654581069946,-1.0297764539718628
1780625224921945900,6.16594580078125,1.8771830797195435,0.9157770872116089,-1.8796398639678955
1780625224931975700,6.1759755859375,2.6179683208465576,1.1333725452423096,-2.087446928024292
1780625224942004700,6.186004638671875,2.477161169052124,1.0416655540466309,-1.9738229513168335
1780625224952033800,6.19603369140625,1.551185131072998,-0.1696820855140686,-1.5468130111694336
1780625224962064000,6.20606396484375,0.771905243396759,-0.6727555990219116,-1.4787553548812866
1780625224972092700,6.2160927734375,0.26965421438217163,-0.4009989798069,-1.5157521963119507
1780625224982121700,6.226121826171875,0.028243977576494217,-0.13898763060569763,-1.4208794832229614
1780625224992151800,6.23615185546875,0.02600446343421936,-0.2023545354604721,-1.331443190574646
1780625225002180900,6.246180908203125,0.12496886402368546,-0.31945690512657166,-1.3590233325958252
1780625225012209700,6.256209716796875,0.19444234669208527,-0.3346662223339081,-1.4396854639053345
1780625225022239700,6.26623974609375,0.21905848383903503,-0.30755895376205444,-1.4867733716964722
1780625225032268800,6.276268798828125,0.1894669532775879,-0.20530907809734344,-1.5097663402557373
1780625225042297600,6.286297607421875,0.025391995906829834,-0.08246996998786926,-1.4984962940216064
1780625225052327700,6.29632763671875,-0.20335161685943604,-0.006050524301826954,-1.4390803575515747
1780625225062356700,6.306356689453125,-0.4006122350692749,0.03421567380428314,-1.3311400413513184
1780625225072385800,6.3163857421875,-0.5833305716514587,0.04245845600962639,-1.157355546951294
1780625225082415600,6.32641552734375,-0.7179067730903625,-0.057560816407203674,-0.9046875834465027
1780625225092444700,6.336444580078125,-0.7692012786865234,-0.30632996559143066,-0.5770303010940552
1780625225102473700,6.3464736328125,-0.7552369832992554,-0.5738245248794556,-0.2011221945285797
1780625225112503800,6.35650390625,-0.696170449256897,-0.7825412154197693,0.20176798105239868
1780625225122532600,6.36653271484375,-0.6418693661689758,-0.8587582111358643,0.5973432660102844
1780625225132561700,6.376561767578125,-0.6127291917800903,-0.8736920952796936,0.9109560251235962
1780625225142591700,6.386591796875,-0.603042483329773,-0.8951100707054138,1.1132533550262451
1780625225152620800,6.396620849609375,-0.5859953165054321,-0.9286621809005737,1.2818334102630615
1780625225162649600,6.406649658203125,-0.5469035506248474,-0.9631005525588989,1.4511041641235352
1780625225172679700,6.4166796875,-0.483035147190094,-0.9596981406211853,1.5537773370742798
1780625225182708700,6.426708740234375,-0.39835354685783386,-0.8783183693885803,1.5607311725616455
1780625225192737800,6.43673779296875,-0.3464065492153168,-0.7620041370391846,1.4512377977371216
1780625225202767600,6.446767578125,-0.2878495156764984,-0.6465864777565002,1.2454910278320312
1780625225212796700,6.456796630859375,-0.2521396577358246,-0.5053690671920776,1.0025711059570312
1780625225222825700,6.46682568359375,-0.24573928117752075,-0.33650392293930054,0.7489967942237854
1780625225232855800,6.476855712890625,-0.29366379976272583,-0.24675938487052917,0.4719524085521698
1780625225242884600,6.486884521484375,-0.39627939462661743,-0.3223620057106018,0.09984489530324936
1780625225252913700,6.49691357421875,-0.4769972562789917,-0.47306057810783386,-0.3386601507663727
1780625225262943700,6.50694384765625,-0.48267698287963867,-0.5603600144386292,-0.6885353326797485
1780625225272972500,6.51697265625,-0.4046781361103058,-0.5509300231933594,-0.7805563807487488
1780625225283001600,6.527001708984375,-0.18381711840629578,-0.4625921845436096,-0.543242871761322
1780625225293031700,6.53703173828125,0.15162399411201477,-0.16839344799518585,-0.03050169348716736
1780625225303060700,6.547060791015625,0.4918111264705658,0.25102299451828003,0.6563887596130371
1780625225313089500,6.557089599609375,0.8361268639564514,0.66013503074646,1.3386998176574707
1780625225323119600,6.56711962890625,1.218507170677185,0.9019364714622498,1.8949273824691772
1780625225333149200,6.577149169921875,1.6244105100631714,0.4689015746116638,1.903560757637024
1780625225343178200,6.58717822265625,1.6621872186660767,-1.150234341621399,0.9078471064567566
1780625225353208000,6.5972080078125,0.9747408032417297,-1.588913917541504,-0.02831418439745903
1780625225363237000,6.607237060546875,0.22621890902519226,-0.6203409433364868,-0.5704048871994019
1780625225373266200,6.61726611328125,0.04604735225439072,0.4373205006122589,-0.7828631401062012
1780625225383296300,6.627296142578125,0.1507900059223175,0.7825915813446045,-0.6925657391548157
1780625225393325000,6.637324951171875,0.27020958065986633,0.612994372844696,-0.3359570801258087
1780625225403354000,6.64735400390625,0.3576773703098297,0.26191309094429016,0.22686393558979034
1780625225413384200,6.65738427734375,0.4320288300514221,-0.13563425838947296,0.8247866630554199
1780625225423413200,6.667413330078125,0.42311203479766846,-0.242721825838089,1.3042051792144775
1780625225433442000,6.677442138671875,0.3058141767978668,-0.08649773895740509,1.6031702756881714
1780625225443472100,6.68747216796875,0.14456458389759064,0.1212778240442276,1.7850431203842163
1780625225453501200,6.697501220703125,0.0016074518207460642,0.3318744897842407,1.8229260444641113
1780625225463530000,6.707530029296875,-0.05177268385887146,0.5345245599746704,1.6749557256698608
1780625225473560000,6.71756005859375,-0.016673961654305458,0.590965211391449,1.3821542263031006
1780625225483589000,6.727589111328125,0.020396973937749863,0.5109338164329529,1.0400303602218628
1780625225493618200,6.7376181640625,0.04568454995751381,0.4194246530532837,0.7189229130744934
1780625225503648000,6.74764794921875,0.11871321499347687,0.37029996514320374,0.4532108008861542
1780625225513677000,6.757677001953125,0.21990682184696198,0.370022714138031,0.27310577034950256
1780625225523706000,6.7677060546875,0.28345516324043274,0.39348703622817993,0.16151800751686096
1780625225533736200,6.777736083984375,0.2943126857280731,0.44656625390052795,0.12213674187660217
1780625225543765000,6.787764892578125,0.3015285134315491,0.5628358721733093,0.15319852530956268
1780625225553794000,6.7977939453125,0.2922433316707611,0.7106740474700928,0.21951095759868622
1780625225563823000,6.807822998046875,0.2621975541114807,0.8344165086746216,0.2996572256088257
1780625225573853200,6.817853271484375,0.24148210883140564,0.8862598538398743,0.37104254961013794
1780625225583882000,6.827882080078125,0.21799781918525696,0.8529391884803772,0.41982871294021606
1780625225593911300,6.837911376953125,0.20228105783462524,0.7830241918563843,0.46063780784606934
1780625225603941000,6.847941162109375,0.2015462964773178,0.7158222794532776,0.4859769642353058
1780625225613970000,6.857969970703125,0.229296013712883,0.673541247844696,0.49373385310173035
1780625225623999200,6.867999267578125,0.26661089062690735,0.6773226261138916,0.4764035940170288
1780625225634029000,6.878029052734375,0.2799452543258667,0.7110335230827332,0.4239821434020996
1780625225644058000,6.88805810546875,0.2844257354736328,0.7439792156219482,0.36490577459335327
1780625225654087200,6.898087158203125,0.2775162160396576,0.8028712272644043,0.2903333604335785
1780625225664117000,6.908116943359375,0.25902774930000305,0.864083468914032,0.2308545708656311
1780625225674146000,6.91814599609375,0.24717658758163452,0.9077337980270386,0.1984984278678894
1780625225684175400,6.92817529296875,0.26085537672042847,0.9365553259849548,0.20676514506340027
1780625225694205000,6.938204833984375,0.2896329164505005,0.9654399156570435,0.23411937057971954
1780625225704234200,6.948234130859375,0.2929091453552246,0.9574559926986694,0.28562623262405396
1780625225714263300,6.95826318359375,0.2921833097934723,0.970598042011261,0.3404232859611511
1780625225724293000,6.968293212890625,0.3115338385105133,0.9768176078796387,0.3415604531764984
1780625225734322200,6.978322265625,0.3238557279109955,0.9709096550941467,0.30941712856292725
1780625225744351200,6.988351318359375,0.32113850116729736,0.9717552065849304,0.26078835129737854
1780625225754381000,6.998381103515625,0.31907814741134644,0.9899956583976746,0.20997077226638794
1780625225764410400,7.008410400390625,0.30722707509994507,1.0724791288375854,0.20361965894699097
1780625225774439200,7.018439208984375,0.29554057121276855,1.162291169166565,0.24179108440876007
1780625225784469200,7.02846923828125,0.2901538014411926,1.1937575340270996,0.29167526960372925
1780625225794498300,7.038498291015625,0.28851014375686646,1.1418907642364502,0.3276973366737366
1780625225804527000,7.048527099609375,0.30663666129112244,1.0575451850891113,0.3348782956600189
1780625225814557200,7.05855712890625,0.31480127573013306,0.9943843483924866,0.3197885751724243
1780625225824586200,7.068586181640625,0.30343836545944214,0.9855743646621704,0.2901681065559387
1780625225834615300,7.078615234375,0.2827220559120178,0.9991295337677002,0.25150221586227417
1780625225844645400,7.088645263671875,0.29186734557151794,0.9913579225540161,0.1982906460762024
1780625225854674200,7.098674072265625,0.31676673889160156,1.0067723989486694,0.12214323878288269
1780625225864703200,7.108703125,0.3016980290412903,1.1161117553710938,0.06154860928654671
1780625225874733300,7.1187333984375,0.2784048914909363,1.2969647645950317,0.041498031467199326
1780625225884762000,7.12876220703125,0.2669476866722107,1.430037021636963,0.07256273925304413
1780625225894791200,7.138791259765625,0.27417582273483276,1.4911653995513916,0.10855327546596527
1780625225904821200,7.1488212890625,0.2726210653781891,1.4576009511947632,0.13524559140205383
1780625225914850300,7.158850341796875,0.2630912959575653,1.384092926979065,0.13608264923095703
1780625225924879000,7.168879150390625,0.2538703680038452,1.3480489253997803,0.11499734222888947
1780625225934909200,7.1789091796875,0.2344101071357727,1.3532590866088867,0.0555049329996109
1780625225944938200,7.188938232421875,0.20143166184425354,1.4034078121185303,-0.01676313765347004
1780625225954967300,7.19896728515625,0.1693311184644699,1.4917360544204712,-0.04540800303220749
1780625225964997000,7.2089970703125,0.1537574827671051,1.503609538078308,-0.02128775231540203
1780625225975026200,7.219026123046875,0.12406587600708008,1.3143596649169922,0.0037946579977869987
1780625225985055200,7.22905517578125,0.05997290834784508,0.9311132431030273,-0.021352240815758705
1780625225995085300,7.239085205078125,0.022084476426243782,0.631432294845581,-0.11616666615009308
1780625226005114000,7.249114013671875,0.03639151155948639,0.7187296152114868,-0.26548105478286743
1780625226015143200,7.25914306640625,0.08059888333082199,0.9237289428710938,-0.3834664523601532
1780625226025173200,7.26917333984375,0.12802071869373322,0.899346113204956,-0.3964030146598816
1780625226035202300,7.279202392578125,0.15814997255802155,0.7107890248298645,-0.33164963126182556
1780625226045231000,7.289231201171875,0.16634505987167358,0.5370033979415894,-0.23797371983528137
1780625226055261200,7.29926123046875,0.18026378750801086,0.47297295928001404,-0.16813039779663086
1780625226065290200,7.309290283203125,0.1515570431947708,0.5389559864997864,-0.12893426418304443
1780625226075319000,7.319319091796875,0.12176724523305893,0.685616672039032,-0.08704765886068344
1780625226085349000,7.32934912109375,0.13959765434265137,0.8466694355010986,-0.03912727162241936
1780625226095378200,7.339378173828125,0.17419429123401642,1.0019748210906982,-0.0023018508218228817
1780625226105407200,7.3494072265625,0.18978816270828247,1.1133719682693481,0.05120984464883804
1780625226115437300,7.359437255859375,0.20382027328014374,1.1854926347732544,0.11808009445667267
1780625226125466000,7.369466064453125,0.207590252161026,1.1612259149551392,0.2177899181842804
1780625226135495200,7.3794951171875,0.20423513650894165,1.0878819227218628,0.31623122096061707
1780625226145525200,7.389525146484375,0.18194366991519928,0.9748741984367371,0.37765809893608093
1780625226155554000,7.399553955078125,0.13044993579387665,0.8403574228286743,0.40491071343421936
1780625226165583000,7.4095830078125,0.07907436788082123,0.7544150948524475,0.37054261565208435
1780625226175613200,7.41961328125,0.024865107610821724,0.7362989783287048,0.27941399812698364
1780625226185642200,7.429642333984375,-0.02005682699382305,0.7395930886268616,0.18445950746536255
1780625226195671000,7.439671142578125,-0.04228413105010986,0.7585880756378174,0.11342956125736237
1780625226205701000,7.449701171875,-0.03467388451099396,0.7700228691101074,0.08710261434316635
1780625226215730200,7.459730224609375,-0.006266841199249029,0.784751296043396,0.09688829630613327
1780625226225759200,7.46975927734375,0.025470580905675888,0.7963312268257141,0.1420818716287613
1780625226235789000,7.4797890625,0.04580482840538025,0.7891025543212891,0.21145972609519958
1780625226245818000,7.489818115234375,0.05381801351904869,0.7315037250518799,0.2829836905002594
1780625226255847200,7.49984716796875,0.05233229696750641,0.668827474117279,0.33211374282836914
1780625226265877200,7.509877197265625,0.03182915225625038,0.6277527809143066,0.36096668243408203
1780625226275906000,7.519906005859375,0.030692394822835922,0.5990571975708008,0.36961105465888977
1780625226285935000,7.52993505859375,0.048644233494997025,0.5665085911750793,0.36157816648483276
1780625226295965200,7.539965087890625,0.07839586585760117,0.5303064584732056,0.32913437485694885
1780625226305994200,7.549994140625,0.10163434594869614,0.4873387813568115,0.2831069529056549
1780625226316023000,7.56002294921875,0.1108771339058876,0.4462338387966156,0.21545128524303436
1780625226326052600,7.570052490234375,0.10875459015369415,0.4053894579410553,0.1374257206916809
1780625226336081400,7.580081298828125,0.09795065224170685,0.3423128128051758,0.057059209793806076
1780625226346110500,7.5901103515625,0.08861147612333298,0.24243761599063873,-0.016123656183481216
1780625226356140500,7.600140625,0.06941978633403778,0.12318061292171478,-0.0747346580028534
1780625226366169600,7.610169677734375,0.027649439871311188,0.017532212659716606,-0.09148967266082764
1780625226376198700,7.62019873046875,-0.019312698394060135,-0.03413693234324455,-0.05351422727108002
1780625226386228500,7.630228515625,-0.04311496764421463,-0.006152169778943062,0.026474080979824066
1780625226396257500,7.640257568359375,-0.05219900980591774,0.07008374482393265,0.11747723072767258
1780625226406286600,7.65028662109375,-0.05846816301345825,0.13872849941253662,0.20638106763362885
1780625226416316400,7.66031640625,-0.059828680008649826,0.1715163290500641,0.27768823504447937
1780625226426345500,7.670345458984375,-0.06841923296451569,0.16633008420467377,0.3232938051223755
1780625226436374800,7.680374755859375,-0.07096797972917557,0.13575561344623566,0.3317938446998596
1780625226446403600,7.690403564453125,-0.06739747524261475,0.07419559359550476,0.3125402629375458
1780625226456433400,7.700433349609375,-0.047633446753025055,-0.009704938158392906,0.26082944869995117
1780625226466462700,7.710462646484375,-0.021021544933319092,-0.0945252850651741,0.18862847983837128
1780625226476491800,7.72049169921875,0.004798869602382183,-0.14869844913482666,0.11077383160591125
1780625226486521600,7.730521484375,0.017595890909433365,-0.19161289930343628,0.048925384879112244
1780625226496550700,7.740550537109375,0.03258812054991722,-0.2273256927728653,0.001789627131074667
1780625226506579700,7.750579833984375,0.039049215614795685,-0.23896662890911102,-0.02682683803141117
1780625226516609800,7.76060986328125,0.05274751037359238,-0.2252412736415863,-0.050311096012592316
1780625226526638600,7.770638671875,0.059895701706409454,-0.20971237123012543,-0.07227551192045212
1780625226536667600,7.780667724609375,0.06342995166778564,-0.2018272429704666,-0.09816601127386093
1780625226546697700,7.79069775390625,0.06216895207762718,-0.19296157360076904,-0.1192483901977539
1780625226556726500,7.8007265625,0.0456535629928112,-0.18027238547801971,-0.1475847214460373
1780625226566755600,7.810755615234375,0.0188019759953022,-0.18364128470420837,-0.1846141219139099
1780625226576785700,7.82078564453125,-0.007137125823646784,-0.208023339509964,-0.2371545284986496
1780625226586814700,7.830814697265625,-0.03261159360408783,-0.2353084832429886,-0.3063197433948517
1780625226596843500,7.840843505859375,-0.052339326590299606,-0.26727962493896484,-0.3661158084869385
1780625226606873600,7.85087353515625,-0.08857163041830063,-0.2725777328014374,-0.39464467763900757
1780625226616902700,7.860902587890625,-0.11876346170902252,-0.2534518539905548,-0.3783816695213318
1780625226626931700,7.870931640625,-0.1431708037853241,-0.23498068749904633,-0.307683527469635
1780625226636961500,7.88096142578125,-0.15523403882980347,-0.2088690996170044,-0.22524493932724
1780625226646990600,7.890990478515625,-0.15232878923416138,-0.17083676159381866,-0.18460270762443542
1780625226657019600,7.90101953125,-0.13742239773273468,-0.13419277966022491,-0.19006133079528809
1780625226667049700,7.9110498046875,-0.09730453789234161,-0.1164739727973938,-0.23716971278190613
1780625226677078500,7.92107861328125,-0.04333200305700302,-0.13621285557746887,-0.3114774525165558
1780625226687107600,7.931107666015625,-0.0017834915779531002,-0.1488359570503235,-0.4109851121902466
1780625226697137700,7.9411376953125,0.01994842104613781,-0.15466415882110596,-0.5406814813613892
1780625226707166700,7.951166748046875,0.015631968155503273,-0.14833328127861023,-0.6998258233070374
1780625226717195500,7.961195556640625,0.002846749499440193,-0.1267358660697937,-0.860112726688385
1780625226727225600,7.9712255859375,-0.010526846162974834,-0.0766439288854599,-0.9957385063171387
1780625226737254700,7.981254638671875,-0.010835043154656887,-0.03124861791729927,-1.1133649349212646
1780625226747283500,7.991283447265625,-0.008365227840840816,-0.04965159296989441,-1.1883940696716309
1780625226757313500,8.0013134765625,-0.007519201375544071,-0.13498829305171967,-1.2405833005905151
1780625226767342600,8.011342529296876,0.010518388822674751,-0.21785707771778107,-1.2769396305084229
1780625226777371600,8.02137158203125,0.019683394581079483,-0.32612118124961853,-1.2573517560958862
1780625226787401700,8.031401611328125,-0.00029697129502892494,-0.4459921717643738,-1.1552261114120483
1780625226797430500,8.041430419921875,-0.0574839748442173,-0.5114769339561462,-0.9944998025894165
1780625226807459600,8.05145947265625,-0.11345057189464569,-0.448618620634079,-0.8093193173408508
1780625226817489700,8.06148974609375,-0.18109743297100067,-0.2951571047306061,-0.5199778079986572
1780625226827518500,8.0715185546875,-0.22648543119430542,-0.09293370693922043,-0.14959439635276794
1780625226837547500,8.081547607421875,-0.2117977738380432,0.05893377214670181,0.20192138850688934
1780625226847577600,8.09157763671875,-0.16601750254631042,0.10883421450853348,0.48347821831703186
1780625226857606700,8.101606689453124,-0.12134568393230438,0.052053846418857574,0.6972431540489197
1780625226867635500,8.111635498046875,-0.10190780460834503,-0.04925892874598503,0.8581958413124084
1780625226877665500,8.12166552734375,-0.11704652011394501,-0.1631546914577484,0.9853613376617432
1780625226887694600,8.131694580078126,-0.14539001882076263,-0.2393472045660019,1.0787512063980103
1780625226897723600,8.1417236328125,-0.1881152242422104,-0.2681039571762085,1.1506423950195312
1780625226907753500,8.15175341796875,-0.22685329616069794,-0.2942247986793518,1.206924319267273
1780625226917782500,8.161782470703125,-0.23814064264297485,-0.3442924916744232,1.2460049390792847
1780625226927811600,8.1718115234375,-0.22703446447849274,-0.4094136953353882,1.2467631101608276
1780625226937841700,8.181841552734374,-0.2226673811674118,-0.4989085793495178,1.2026219367980957
1780625226947870500,8.191870361328125,-0.21636714041233063,-0.564558207988739,1.0833983421325684
1780625226957899500,8.2018994140625,-0.20996889472007751,-0.5619872808456421,0.8842323422431946
1780625226967929600,8.2119296875,-0.23045498132705688,-0.5543533563613892,0.6674843430519104
1780625226977958700,8.221958740234374,-0.2570960819721222,-0.5586717128753662,0.46241238713264465
1780625226987987500,8.231987548828124,-0.2881975471973419,-0.5471010804176331,0.27613013982772827
1780625226998017500,8.242017578125,-0.2847862243652344,-0.5100612640380859,0.12444284558296204
1780625227008046600,8.252046630859375,-0.26239436864852905,-0.5101568698883057,0.048410918563604355
1780625227018075400,8.262075439453126,-0.21855421364307404,-0.6265311241149902,0.04291122406721115
1780625227028105500,8.27210546875,-0.16420495510101318,-0.7002335786819458,0.047741398215293884
1780625227038134500,8.282134521484375,-0.14641313254833221,-0.6723592281341553,-0.005762684158980846
1780625227048163600,8.29216357421875,-0.1656787097454071,-0.7273340225219727,-0.2004256397485733
1780625227058193700,8.302193603515626,-0.2827175557613373,-1.0314509868621826,-0.5522922277450562
1780625227068222500,8.312222412109374,-0.40122076869010925,-1.3023823499679565,-0.8948865532875061
1780625227078251500,8.32225146484375,-0.4966126084327698,-1.235806941986084,-0.9112460017204285
1780625227088280600,8.332280517578125,-0.5871680974960327,-0.9492536783218384,-0.5803908109664917
1780625227098310400,8.342310302734376,-0.6355063319206238,-0.6093257069587708,-0.1281905323266983
1780625227108339500,8.35233935546875,-0.6342562437057495,-0.32931166887283325,0.2700042426586151
1780625227118368500,8.362368408203125,-0.5904122591018677,-0.11192842572927475,0.5128805041313171
1780625227128398600,8.372398681640625,-0.5367434024810791,0.07888627052307129,0.5982718467712402
1780625227138427400,8.382427490234376,-0.4959125518798828,0.1380968987941742,0.6025067567825317
1780625227148456400,8.39245654296875,-0.43292665481567383,0.029700368642807007,0.5434149503707886
1780625227158486500,8.402486572265625,-0.37603017687797546,-0.13324518501758575,0.41656649112701416
1780625227168515600,8.412515625,-0.3196449279785156,-0.22767500579357147,0.24256673455238342
1780625227178544600,8.422544677734376,-0.3048151135444641,-0.2549535930156708,0.09871725738048553
1780625227188574500,8.432574462890624,-0.30612459778785706,-0.25170162320137024,0.019829098135232925
1780625227198603500,8.442603515625,-0.2985522150993347,-0.26738372445106506,-0.02304530143737793
1780625227208632600,8.452632568359375,-0.2840065658092499,-0.2682090401649475,-0.0639924705028534
1780625227218662400,8.462662353515626,-0.29554569721221924,-0.2342996746301651,-0.0887773334980011
1780625227228691500,8.47269140625,-0.3038387894630432,-0.18373556435108185,-0.08858691900968552
1780625227238720800,8.482720703125,-0.31214481592178345,-0.12324252724647522,-0.0668167695403099
1780625227248750600,8.49275048828125,-0.3231023848056793,-0.03712894767522812,-0.018377861008048058
1780625227258779600,8.502779541015625,-0.3376476764678955,0.06020358204841614,0.049996547400951385
1780625227268808700,8.51280859375,-0.33968257904052734,0.13649623095989227,0.10872776806354523
1780625227278838500,8.522838623046875,-0.3287825882434845,0.14107896387577057,0.1448913961648941
1780625227288867600,8.53286767578125,-0.29872268438339233,0.07801264524459839,0.1485881209373474
1780625227298896600,8.542896728515625,-0.2639429271221161,-0.02362414449453354,0.12246563285589218
1780625227308926500,8.552926513671874,-0.22760836780071259,-0.12159225344657898,0.09064777940511703
1780625227318955800,8.562955810546875,-0.1979808509349823,-0.19434316456317902,0.05310120806097984
1780625227328985600,8.572985595703125,-0.1691340208053589,-0.2332410365343094,0.017954140901565552
1780625227339015400,8.583015380859376,-0.14306989312171936,-0.22883161902427673,-0.007943780161440372
1780625227349044500,8.59304443359375,-0.12630289793014526,-0.22388559579849243,-0.012009628117084503
1780625227359073500,8.603073486328125,-0.11198074370622635,-0.21740587055683136,0.01086694747209549
1780625227369103600,8.613103515625,-0.10944648087024689,-0.17379261553287506,0.03386227786540985
1780625227379132400,8.62313232421875,-0.11329939216375351,-0.21022360026836395,0.06965275853872299
1780625227389161500,8.633161376953124,-0.1050792783498764,-0.2559013366699219,0.09896058589220047
1780625227399191600,8.643191650390625,-0.09982045739889145,-0.2731856107711792,0.10955686867237091
1780625227409220400,8.653220458984375,-0.09473701566457748,-0.23575888574123383,0.09485435485839844
1780625227419249400,8.66324951171875,-0.09421006590127945,-0.20436148345470428,0.061210837215185165
1780625227429279500,8.673279541015624,-0.09589238464832306,-0.2228643149137497,0.04682763293385506
1780625227439308500,8.68330859375,-0.0866752415895462,-0.22794240713119507,0.036164041608572006
1780625227449337600,8.693337646484375,-0.06393104791641235,-0.21391206979751587,0.028869379311800003
1780625227459367400,8.703367431640626,-0.03972101956605911,-0.18592949211597443,0.026465915143489838
1780625227469396500,8.713396484375,-0.023725274950265884,-0.1743178367614746,0.03915560990571976
1780625227479425800,8.72342578125,-0.02696145884692669,-0.17040008306503296,0.051647718995809555
1780625227489455400,8.733455322265625,-0.028443241491913795,-0.17587552964687347,0.055912237614393234
1780625227499484400,8.743484375,-0.03825000673532486,-0.1675717681646347,0.05951893329620361
1780625227509513700,8.753513671875,-0.05745859071612358,-0.13349902629852295,0.05758547782897949
1780625227519543600,8.76354345703125,-0.05985679849982262,-0.10199704021215439,0.036575812846422195
1780625227529572600,8.773572509765625,-0.05513474717736244,-0.10851592570543289,0.025145526975393295
1780625227539601700,8.7836015625,-0.047985903918743134,-0.10740678012371063,0.022452063858509064
1780625227549631500,8.793631591796874,-0.04207129031419754,-0.09254474937915802,0.02785135805606842
1780625227559660800,8.803660888671875,-0.033876098692417145,-0.09897208958864212,0.047802507877349854
1780625227569689600,8.813689697265625,-0.026473576202988625,-0.10956348478794098,0.06470639258623123
1780625227579719400,8.823719482421875,-0.021378247067332268,-0.11288048326969147,0.07193025201559067
1780625227589748700,8.833748779296876,-0.016081219539046288,-0.0932449921965599,0.07081704586744308
1780625227599777500,8.843777587890624,-0.011809593997895718,-0.0736696794629097,0.06875654309988022
1780625227609806600,8.853806640625,-0.008203141391277313,-0.0751461386680603,0.07669702172279358
1780625227619836700,8.863836669921875,-0.007426222786307335,-0.08313089609146118,0.07854106277227402
1780625227629865700,8.87386572265625,-0.009599096141755581,-0.07562050968408585,0.06896832585334778
1780625227639894500,8.88389453125,-0.01312151551246643,-0.07164499163627625,0.05304054170846939
1780625227649924600,8.893924560546875,-0.014169469475746155,-0.06863322108983994,0.043314941227436066
1780625227659953700,8.90395361328125,-0.022158190608024597,-0.0498543418943882,0.03394021838903427
1780625227669982700,8.913982666015626,-0.026950282976031303,-0.030697960406541824,0.026804013177752495
1780625227680012500,8.924012451171874,-0.026265133172273636,-0.043532390147447586,0.024087445810437202
1780625227690041600,8.93404150390625,-0.02363978885114193,-0.055021800100803375,0.02876235917210579
1780625227700070700,8.944070556640625,-0.019702717661857605,-0.03959491103887558,0.04152582958340645
1780625227710100700,8.954100830078126,-0.010296434164047241,-0.012615760788321495,0.06408467143774033
1780625227720129500,8.964129638671874,-0.008189248852431774,0.011497333645820618,0.08090169727802277
1780625227730158600,8.97415869140625,-0.007481381297111511,0.021098297089338303,0.08488845080137253
1780625227740188700,8.984188720703125,-0.0047332653775811195,0.011586017906665802,0.06723089516162872
1780625227750217700,8.9942177734375,-0.008098435588181019,-0.0018198033794760704,0.05113927647471428
1780625227760246500,9.00424658203125,-0.010270893573760986,-0.012877242639660835,0.036115311086177826
1780625227770276600,9.014276611328125,-0.010544400662183762,-0.0200605858117342,0.024274898692965508
1780625227780305700,9.0243056640625,-0.015226887539029121,-0.033560145646333694,0.017743224278092384
1780625227790334500,9.03433447265625,-0.017967812716960907,-0.04467777535319328,0.012798000127077103
1780625227800364500,9.044364501953124,-0.01887470670044422,-0.06255822628736496,0.023377923294901848
1780625227810393600,9.0543935546875,-0.017460035160183907,-0.06528290361166,0.029926903545856476
1780625227820422700,9.064422607421875,-0.02260233834385872,-0.03762682527303696,0.02744089439511299
1780625227830452700,9.07445263671875,-0.030637094751000404,-0.023606613278388977,0.03162844851613045
1780625227840481500,9.0844814453125,-0.03172735497355461,-0.010199131444096565,0.02692124992609024
1780625227850510600,9.094510498046875,-0.029183505102992058,0.007327397353947163,0.016944514587521553
1780625227860540700,9.104540771484375,-0.02666253224015236,0.010320749133825302,0.010175330564379692
1780625227870569500,9.114569580078125,-0.02535412088036537,0.01006375439465046,0.010799309238791466
1780625227880598500,9.1245986328125,-0.025200722739100456,0.00005106767639517784,0.013436371460556984
1780625227890628600,9.134628662109375,-0.02811475284397602,0.0011269845999777317,0.02176727168262005
1780625227900657700,9.14465771484375,-0.03229659050703049,0.008174021728336811,0.03461218625307083
1780625227910686500,9.1546865234375,-0.0356266088783741,0.018157945945858955,0.04832613468170166
1780625227920716500,9.164716552734374,-0.03616516664624214,0.010876396670937538,0.05488570034503937
1780625227930745600,9.17474560546875,-0.03596090152859688,-0.00580937322229147,0.04743151366710663
1780625227940774700,9.184774658203125,-0.030105849727988243,-0.03509040176868439,0.021749690175056458
1780625227950804500,9.194804443359375,-0.033737603574991226,-0.05195780098438263,-0.006688077002763748
1780625227960833500,9.20483349609375,-0.03498959168791771,-0.0452115461230278,-0.01989676058292389
1780625227970862600,9.214862548828124,-0.03735261410474777,-0.02432383969426155,-0.013034060597419739
1780625227980892700,9.224892578125,-0.03892666473984718,0.006285351701080799,-0.005176017060875893
1780625227990921500,9.23492138671875,-0.0541468970477581,0.02828466147184372,-0.004795185290277004
1780625228000950500,9.244950439453126,-0.06449003517627716,0.034893084317445755,-0.013937342911958694
1780625228010980600,9.254980712890625,-0.07064539939165115,0.018825169652700424,-0.02304881438612938
1780625228021009700,9.265009765625,-0.07484015077352524,-0.014892715029418468,-0.04322611913084984
1780625228031038500,9.27503857421875,-0.07292374223470688,-0.06480861455202103,-0.054530706256628036
1780625228041068500,9.285068603515626,-0.06987368315458298,-0.08431921899318695,-0.046045318245887756
1780625228051097600,9.29509765625,-0.06661158055067062,-0.048052556812763214,-0.023220697417855263
1780625228061126400,9.30512646484375,-0.055034540593624115,-0.016990192234516144,0.007664463948458433
1780625228071156500,9.315156494140625,-0.054485663771629333,0.0024450242053717375,0.012961756438016891
1780625228081185500,9.325185546875,-0.06404947489500046,0.025462623685598373,-0.005418485030531883
1780625228091214600,9.335214599609374,-0.06467344611883163,0.023913461714982986,-0.018169965595006943
1780625228101244700,9.34524462890625,-0.06362741440534592,0.023598918691277504,-0.014212219044566154
1780625228111273500,9.3552734375,-0.07182648777961731,0.033773526549339294,0.002063156571239233
1780625228121302500,9.365302490234376,-0.08384982496500015,0.023588653653860092,0.023296158760786057
1780625228131331600,9.37533154296875,-0.09942825883626938,0.019948111847043037,0.03536666929721832
1780625228141361400,9.385361328125,-0.11562296748161316,0.014409523457288742,0.031074464321136475
1780625228151390500,9.395390380859375,-0.12680451571941376,0.006065307650715113,0.020143520087003708
1780625228161419500,9.40541943359375,-0.11936580389738083,-0.016485072672367096,0.01044807955622673
1780625228171449600,9.41544970703125,-0.09943284839391708,-0.03306378424167633,0.0061441450379788876
1780625228181478400,9.425478515625,-0.08195632696151733,-0.03221607580780983,0.010022749193012714
1780625228191507500,9.435507568359375,-0.06585671752691269,-0.03353354334831238,0.007705532945692539
1780625228201537500,9.44553759765625,-0.07106704264879227,-0.028020206838846207,-0.015711432322859764
1780625228211566600,9.455566650390624,-0.08277323096990585,-0.023207342252135277,-0.023886539041996002
1780625228221595600,9.465595703125,-0.0953013077378273,-0.01628904789686203,0.0021496512927114964
1780625228231625500,9.47562548828125,-0.09986809641122818,0.010508479550480843,0.027810007333755493
1780625228241654500,9.485654541015625,-0.09901149570941925,0.022784899920225143,0.04736475646495819
1780625228251683600,9.49568359375,-0.1026616245508194,0.03797876462340355,0.04556632041931152
1780625228261713400,9.50571337890625,-0.10217872262001038,0.03551234304904938,0.031174667179584503
1780625228271742500,9.515742431640625,-0.09811686724424362,0.00036900071427226067,0.020013093948364258
1780625228281771800,9.525771728515625,-0.08859307318925858,-0.03636262193322182,0.00793297216296196
1780625228291801600,9.535801513671874,-0.08361775428056717,-0.05785806104540825,-0.006818809546530247
1780625228301830700,9.54583056640625,-0.07655937969684601,-0.06576687842607498,-0.010094475001096725
1780625228311859700,9.555859619140625,-0.07534124702215195,-0.047901857644319534,-0.008290715515613556
1780625228321889500,9.5658896484375,-0.07179414480924606,-0.026281503960490227,-0.010116323828697205
1780625228331918600,9.575918701171876,-0.07549674063920975,0.0056266263127326965,-0.02242971584200859
1780625228341948000,9.585947998046874,-0.07718648761510849,0.022551026195287704,-0.032468777149915695
1780625228351977500,9.5959775390625,-0.09034782648086548,0.025848019868135452,-0.031048782169818878
1780625228362006800,9.6060068359375,-0.07922341674566269,0.024294592440128326,-0.011951780878007412
1780625228372035800,9.616035888671876,-0.0752667635679245,0.019717417657375336,0.02401713840663433
1780625228382065700,9.626065673828125,-0.0775502473115921,0.038714297115802765,0.05537078157067299
1780625228392094700,9.6360947265625,-0.07293658703565598,0.057310350239276886,0.0686975046992302
1780625228402123800,9.646123779296875,-0.0740375965833664,0.05332043394446373,0.06596933305263519
1780625228412153600,9.656153564453126,-0.07985846698284149,0.02203228324651718,0.043301574885845184
1780625228422183000,9.666182861328124,-0.09306205064058304,-0.0010548909194767475,-0.003249714383855462
1780625228432211700,9.676211669921875,-0.10596852749586105,-0.04944079741835594,-0.04477345570921898
1780625228442241800,9.68624169921875,-0.0997229814529419,-0.08407583087682724,-0.05721166357398033
1780625228452270800,9.696270751953126,-0.0937923863530159,-0.07801101356744766,-0.03901881352066994
1780625228462299600,9.706299560546874,-0.07364149391651154,-0.0602184534072876,-0.03825366869568825
1780625228472329700,9.716329833984375,-0.07196982949972153,-0.06695464998483658,-0.04380769282579422
1780625228482358800,9.72635888671875,-0.08210161328315735,-0.06720277667045593,-0.052207380533218384
1780625228492387800,9.736387939453126,-0.08164700865745544,-0.08118197321891785,-0.0538814440369606
1780625228502418000,9.74641796875,-0.0851176455616951,-0.07758089900016785,-0.043437808752059937
1780625228512446700,9.75644677734375,-0.08691554516553879,-0.06629922240972519,-0.029764072969555855
1780625228522475800,9.766475830078125,-0.09251833707094193,-0.06701641529798508,-0.011218606494367123
1780625228532504800,9.7765048828125,-0.09533195942640305,-0.04704324156045914,0.004995783790946007
1780625228542534700,9.78653466796875,-0.09957535564899445,-0.02175489440560341,0.025701560080051422
1780625228552563700,9.796563720703125,-0.10734539479017258,0.007795540150254965,0.02412283793091774
1780625228562592800,9.8065927734375,-0.10190654546022415,0.01850060001015663,0.008936740458011627
1780625228572622800,9.816622802734376,-0.10561259835958481,0.005578676238656044,0.0025787102058529854
1780625228582651600,9.826651611328124,-0.1024416834115982,-0.009754412807524204,0.004063897766172886
1780625228592680700,9.8366806640625,-0.10531549900770187,-0.03243762254714966,0.007459694519639015
1780625228602710800,9.846710693359375,-0.10538889467716217,-0.03591529279947281,-0.0050927395932376385
1780625228612739800,9.85673974609375,-0.10093581676483154,-0.041672248393297195,-0.023186787962913513
1780625228622768600,9.8667685546875,-0.09680025279521942,-0.05852437764406204,-0.02824154868721962
1780625228632798700,9.876798828125,-0.10042055696249008,-0.0646861344575882,-0.006884594913572073
1780625228642827800,9.886827880859375,-0.09575915336608887,-0.0601525604724884,0.015146065503358841
1780625228652856600,9.896856689453125,-0.10161038488149643,-0.05088582634925842,0.015129553154110909
1780625228662886700,9.90688671875,-0.10974746942520142,-0.052147120237350464,0.0011381269432604313
1780625228672915700,9.916915771484375,-0.11678487807512283,-0.04991725832223892,-0.01644805818796158
1780625228682944800,9.92694482421875,-0.11619281023740768,-0.04711608216166496,-0.025947347283363342
1780625228692974800,9.936974853515625,-0.11311420053243637,-0.024853121489286423,-0.03039189614355564
1780625228703003600,9.947003662109376,-0.10441426187753677,0.004357103258371353,-0.03253934532403946
1780625228713032700,9.95703271484375,-0.08943398296833038,0.028719168156385422,-0.029104135930538177
1780625228723062800,9.967062744140625,-0.07075684517621994,0.006624299567192793,-0.011119588278234005
1780625228733091600,9.977091552734375,-0.05395336076617241,-0.011588259600102901,0.011466680094599724
1780625228743120600,9.98712060546875,-0.05045875906944275,0.005799518432468176,0.012846730649471283
1780625228753150700,9.997150634765624,-0.05536403879523277,0.028034251183271408,0.0065550124272704124
1780625228763179800,10.0071796875,-0.054077837616205215,0.04025794938206673,0.008390674367547035
1780625228773208600,10.01720849609375,-0.0423591323196888,0.008785245008766651,0.023974958807229996
1780625228783238700,10.02723876953125,-0.05385591462254524,0.016922783106565475,0.026643462479114532
1780625228793267700,10.037267822265624,-0.06379616260528564,0.0026370547711849213,0.018880082294344902
1780625228803296800,10.047296875,-0.0630059465765953,-0.017494075000286102,0.007470063865184784
1780625228813326600,10.05732666015625,-0.060291651636362076,-0.018521521240472794,-0.002172709908336401
1780625228823355600,10.067355712890626,-0.05094648152589798,-0.015077036805450916,-0.015371290035545826
1780625228833384700,10.077384765625,-0.04138573259115219,-0.03136759251356125,-0.016056787222623825
1780625228843414800,10.087414794921875,-0.028667066246271133,-0.035401299595832825,-0.010169262066483498
1780625228853443600,10.097443603515625,-0.024210000410676003,-0.01768381893634796,-0.008140998892486095
1780625228863472600,10.10747265625,-0.018412454053759575,-0.005707389675080776,-0.0012571807019412518
1780625228873502700,10.117502685546874,-0.010951342061161995,0.005640339571982622,-0.001286209560930729
1780625228883531800,10.12753173828125,-0.005533191375434399,-0.004821469075977802,0.0014684097841382027
1780625228893560600,10.137560546875,-0.004218122456222773,-0.006219629198312759,0.012725592590868473
1780625228903590700,10.147590576171876,-0.006873472593724728,-0.0031259097158908844,0.013284924440085888
1780625228913619700,10.15761962890625,-0.010920146480202675,-0.015528249554336071,0.006234206259250641
1780625228923648500,10.1676484375,-0.00922962836921215,-0.02575523592531681,0.011427555233240128
1780625228933678600,10.1776787109375,-0.00666953157633543,-0.021672874689102173,0.016569053754210472
1780625228943707600,10.187707763671876,-0.0018877326510846615,-0.014247681014239788,0.009941477328538895
1780625228953736700,10.19773681640625,0.001665456802584231,-0.01843976229429245,0.00032320478931069374
1780625228963766800,10.207766845703125,0.002863676752895117,-0.02283688448369503,0.000006266403943300247
1780625228973795600,10.217795654296875,-0.0047921123914420605,-0.003263450227677822,-0.008474303409457207
1780625228983824600,10.22782470703125,-0.013888710178434849,-0.0072643812745809555,-0.01562855765223503
1780625228993853700,10.237853759765626,-0.01856069453060627,-0.004836111329495907,-0.023181550204753876
1780625229003883500,10.247883544921875,-0.017973225563764572,-0.0048765502870082855,-0.02955639734864235
1780625229013912600,10.25791259765625,-0.01578756980597973,-0.01934230700135231,-0.039041247218847275
1780625229023941600,10.267941650390625,-0.007127149496227503,-0.028030090034008026,-0.045124154537916183
1780625229033971700,10.2779716796875,0.0055257948115468025,-0.040891826152801514,-0.02802000194787979
1780625229044000500,10.28800048828125,0.01858864165842533,-0.041832923889160156,-0.006740607786923647
1780625229054029800,10.29802978515625,0.023115215823054314,-0.040026500821113586,0.006453490816056728
1780625229064059600,10.3080595703125,0.02322113886475563,-0.049776408821344376,0.014663556590676308
1780625229074088700,10.318088623046876,0.018360337242484093,-0.054768506437540054,0.015055838972330093
1780625229084117800,10.32811767578125,0.004239513538777828,-0.05549749732017517,0.0033862157724797726
1780625229094147600,10.338147705078125,-0.00286633288487792,-0.07070787250995636,-0.015492400154471397
1780625229104176600,10.3481767578125,-0.0082518570125103,-0.08002268522977829,-0.03060010075569153
1780625229114205700,10.358205810546876,-0.01656491495668888,-0.10231760889291763,-0.049114663153886795
1780625229124235500,10.368235595703124,-0.012527433224022388,-0.14234913885593414,-0.03967034071683884
1780625229134264800,10.378264892578125,-0.005433304235339165,-0.15956833958625793,-0.017746131867170334
1780625229144294000,10.3882939453125,-0.0013546303380280733,-0.18756036460399628,-0.007920588366687298
1780625229154323700,10.39832373046875,0.004710186738520861,-0.2102382481098175,-0.006904591806232929
1780625229164352800,10.408352783203124,0.006020152010023594,-0.21971848607063293,0.002835309598594904
1780625229174381800,10.4183818359375,-0.00428015599027276,-0.21873977780342102,0.01392311416566372
1780625229184411600,10.42841162109375,-0.012797316536307335,-0.21543249487876892,0.008240277878940105
1780625229194440700,10.438440673828126,-0.023523464798927307,-0.21091124415397644,-0.011452998965978622
1780625229204469800,10.4484697265625,-0.034808047115802765,-0.2243247628211975,-0.02837739884853363
1780625229214499600,10.45849951171875,-0.03876550495624542,-0.24222120642662048,-0.044172871857881546
1780625229224529000,10.46852880859375,-0.036600470542907715,-0.2709881365299225,-0.039123259484767914
1780625229234557700,10.4785576171875,-0.03241211548447609,-0.3054412007331848,-0.022774912416934967
1780625229244587800,10.488587890625,-0.029646901413798332,-0.31702303886413574,-0.007727491669356823
1780625229254616800,10.498616943359375,-0.027729425579309464,-0.3138647973537445,0.010154036805033684
1780625229264646000,10.50864599609375,-0.016844788566231728,-0.3210310637950897,0.006724406965076923
1780625229274675700,10.51867578125,-0.014172839000821114,-0.33320116996765137,-0.006308038253337145
1780625229284704800,10.528704833984374,-0.009614542126655579,-0.306249737739563,-0.016190506517887115
1780625229294733800,10.53873388671875,-0.00817723385989666,-0.296430379152298,-0.01462376955896616
1780625229304764000,10.548763916015625,-0.004318322986364365,-0.2624771296977997,-0.02517157420516014
1780625229314792700,10.558792724609376,-0.0013062878279015422,-0.2181999385356903,-0.05001860111951828
1780625229324821800,10.56882177734375,0.0019679064862430096,-0.1810169517993927,-0.06427657604217529
1780625229334851000,10.57885107421875,0.01101759448647499,-0.130392923951149,-0.06787743419408798
1780625229344879900,10.5888798828125,0.017070362344384193,-0.06152438744902611,-0.05709134787321091
1780625229354909000,10.598908935546875,0.030208535492420197,0.015561074949800968,-0.0318903848528862
1780625229364939000,10.60893896484375,0.04579829052090645,0.05736253783106804,-0.012853799387812614
1780625229374967800,10.6189677734375,0.06167285889387131,0.07460597157478333,-0.006168731953948736
1780625229384996900,10.628996826171875,0.08183003216981888,0.08776043355464935,0.009171036072075367
1780625229395027000,10.63902685546875,0.10129401087760925,0.10937917232513428,0.018557080999016762
1780625229405056000,10.649055908203126,0.11435898393392563,0.12755899131298065,0.02719317004084587
1780625229415084800,10.659084716796874,0.1265469342470169,0.16810375452041626,0.03139803186058998
1780625229425113900,10.66911376953125,0.13352370262145996,0.19076482951641083,0.0221699308604002
1780625229435144000,10.67914404296875,0.14099840819835663,0.211389422416687,0.009754274040460587
1780625229445173000,10.689173095703126,0.152549609541893,0.2184162139892578,-0.00610277010127902
1780625229455201800,10.699201904296874,0.16428722441196442,0.21186459064483643,-0.022645261138677597
1780625229465232000,10.70923193359375,0.16505180299282074,0.21837542951107025,-0.032071735709905624
1780625229475261000,10.719260986328125,0.1705951690673828,0.22616170346736908,-0.03880047798156738
1780625229485289700,10.729289794921876,0.18598483502864838,0.22897711396217346,-0.03213663399219513
1780625229495319800,10.73931982421875,0.20865073800086975,0.22717495262622833,-0.027791157364845276
1780625229505348900,10.749348876953125,0.22682906687259674,0.23953266441822052,-0.016719428822398186
1780625229515378000,10.7593779296875,0.24401870369911194,0.24906811118125916,0.004099567420780659
1780625229525407700,10.76940771484375,0.2582729458808899,0.29224517941474915,0.018373016268014908
1780625229535436800,10.779436767578124,0.2718369662761688,0.31554144620895386,0.03277379274368286
1780625229545465900,10.7894658203125,0.27096980810165405,0.33323171734809875,0.03251684829592705
1780625229555496000,10.799495849609375,0.2658594846725464,0.39124947786331177,-0.00025361357256770134
1780625229565524700,10.809524658203125,0.24374109506607056,0.44041964411735535,-0.04785706102848053
1780625229575553800,10.8195537109375,0.21983788907527924,0.4817367196083069,-0.07548549026250839
1780625229585583900,10.829583984375,0.1909983605146408,0.5972802639007568,-0.10116469860076904
1780625229595613000,10.839613037109375,0.18610399961471558,0.5657503008842468,-0.08412525802850723
1780625229605641700,10.849641845703125,0.18840475380420685,0.47566452622413635,-0.0755060538649559
1780625229615671800,10.859671875,0.19199229776859283,0.38524460792541504,-0.0691235214471817
1780625229625700900,10.869700927734375,0.19930681586265564,0.33310815691947937,-0.07996632158756256
1780625229635729700,10.879729736328125,0.2136783003807068,0.28283700346946716,-0.07828560471534729
1780625229645759700,10.889759765625,0.2324228137731552,0.2623012661933899,-0.07276929914951324
1780625229655788800,10.899788818359376,0.246894970536232,0.21327728033065796,-0.05462918058037758
1780625229665817900,10.90981787109375,0.2530902624130249,0.1403493583202362,-0.0355040468275547
1780625229675848000,10.919847900390625,0.24887847900390625,0.07524359971284866,-0.03193274512887001
1780625229685876700,10.929876708984375,0.2285865992307663,0.05663815140724182,-0.045941971242427826
1780625229695906000,10.939906005859376,0.21896591782569885,0.05193021520972252,-0.06351830065250397
1780625229705936000,10.949935791015625,0.20673178136348724,0.08130147308111191,-0.10850420594215393
1780625229715964700,10.959964599609375,0.1966003179550171,0.11426342278718948,-0.13875985145568848
1780625229725994000,10.969993896484375,0.19924411177635193,0.1587534248828888,-0.1459711790084839
1780625229736023800,10.98002392578125,0.2126065194606781,0.20541758835315704,-0.11851558089256287
1780625229746052900,10.990052978515624,0.23463259637355804,0.2448781430721283,-0.0652666985988617
1780625229756082000,11.00008203125,0.26913222670555115,0.2541656494140625,0.007783007808029652
1780625229766111700,11.01011181640625,0.28979766368865967,0.28647321462631226,0.08178508281707764
1780625229776141000,11.02014111328125,0.29981088638305664,0.2946659028530121,0.14680641889572144
1780625229786170000,11.030170166015624,0.3124294877052307,0.30571457743644714,0.17499572038650513
1780625229796199700,11.04019970703125,0.30833807587623596,0.30930134654045105,0.16851356625556946
1780625229806229000,11.05022900390625,0.2942011058330536,0.34645670652389526,0.14540770649909973
1780625229816258000,11.060258056640626,0.28553250432014465,0.3889266550540924,0.12072926759719849
1780625229826287900,11.070287841796874,0.2858743965625763,0.428580641746521,0.11120600253343582
1780625229836317000,11.08031689453125,0.29063931107521057,0.45329052209854126,0.11800505220890045
1780625229846346000,11.090345947265625,0.29517802596092224,0.45627349615097046,0.12622520327568054
1780625229856375000,11.100375,0.28729507327079773,0.4431704878807068,0.12798342108726501
1780625229866405000,11.110405029296874,0.2769310474395752,0.4396510422229767,0.11625653505325317
1780625229876434000,11.120433837890625,0.2649686634540558,0.45712029933929443,0.10350771993398666
1780625229886463000,11.130462890625,0.2545246183872223,0.4678512215614319,0.10450669378042221
1780625229896493000,11.1404931640625,0.2486528903245926,0.4601624011993408,0.0931597650051117
1780625229906521900,11.15052197265625,0.2462424784898758,0.4313105642795563,0.059975385665893555
1780625229916551000,11.160551025390625,0.2310882955789566,0.4434921443462372,0.019239677116274834
1780625229926581000,11.1705810546875,0.20239320397377014,0.46070316433906555,-0.004134965594857931
1780625229936610000,11.180610107421876,0.17541778087615967,0.519731879234314,-0.03862796351313591
1780625229946638800,11.190638916015626,0.1341787874698639,0.526697039604187,-0.0698143020272255
1780625229956669000,11.2006689453125,0.08147349208593369,0.5350433588027954,-0.11476286500692368
1780625229966698000,11.210697998046875,0.059735000133514404,0.4453459680080414,-0.13844101130962372
1780625229976727000,11.22072705078125,0.027727795764803886,0.3330404460430145,-0.13643032312393188
1780625229986756900,11.2307568359375,0.005911312997341156,0.2236943542957306,-0.14254796504974365
1780625229996786000,11.240785888671875,0.0074500879272818565,0.06101541966199875,-0.17249228060245514
1780625230006815000,11.25081494140625,0.01654367707669735,-0.1216103807091713,-0.21739712357521057
1780625230016845000,11.260844970703126,0.019216692075133324,-0.23317845165729523,-0.24336346983909607
1780625230026873900,11.270873779296876,-0.008419581688940525,-0.21914970874786377,-0.24987304210662842
1780625230036903000,11.28090283203125,-0.04265105724334717,-0.23182450234889984,-0.23565229773521423
1780625230046933000,11.29093310546875,-0.08017542958259583,-0.22663690149784088,-0.21149344742298126
1780625230056962000,11.300962158203125,-0.12103258073329926,-0.2016409933567047,-0.14859464764595032
1780625230066990800,11.310990966796876,-0.16458381712436676,-0.17205621302127838,-0.05438372120261192
1780625230077021000,11.32102099609375,-0.1960919350385666,-0.14455267786979675,0.09071461111307144
1780625230087050000,11.331050048828125,-0.21739427745342255,-0.024289963766932487,0.27218297123908997
1780625230097078800,11.341078857421875,-0.2287324219942093,0.18298545479774475,0.48336100578308105
1780625230107108900,11.35110888671875,-0.2046891748905182,0.3853117525577545,0.7316474318504333
1780625230117138000,11.361137939453124,-0.12686868011951447,0.5284068584442139,0.9759530425071716
1780625230127167000,11.3711669921875,-0.048905838280916214,0.6360413432121277,1.1573036909103394
1780625230137197000,11.381197021484375,-0.004358347039669752,0.7088676691055298,1.2519340515136719
1780625230147225900,11.391225830078126,-0.01525843609124422,0.7123816013336182,1.2401081323623657
1780625230157255000,11.4012548828125,-0.08476480841636658,0.5786789655685425,1.1173903942108154
1780625230167285000,11.411284912109375,-0.22012372314929962,0.4075632393360138,0.8548351526260376
1780625230177313800,11.421313720703125,-0.35608208179473877,0.08859670162200928,0.3670801520347595
1780625230187342800,11.4313427734375,-0.42444178462028503,-0.453222393989563,-0.27796435356140137
1780625230197373000,11.441373046875,-0.3858925402164459,-1.0696709156036377,-0.7661342620849609
1780625230207402000,11.451402099609375,-0.11783984303474426,-1.542178750038147,-0.9862145781517029
1780625230217430800,11.4614306640625,0.17817078530788422,-1.8879097700119019,-0.967379629611969
1780625230227459800,11.4714599609375,0.15774808824062347,-1.879836082458496,-0.6963081955909729
1780625230237490000,11.481489990234374,-0.10813365876674652,-1.3837075233459473,-0.31519627571105957
1780625230247519000,11.49151904296875,-0.2992551028728485,-0.8115658760070801,0.04761775583028793
1780625230257547800,11.5015478515625,-0.3499433100223541,-0.39857247471809387,0.1714816391468048
1780625230267577900,11.511577880859376,-0.3508222699165344,-0.2272942215204239,0.07453036308288574
1780625230277607000,11.52160693359375,-0.3434527814388275,-0.28960180282592773,0.027387086302042007
1780625230287635700,11.5316357421875,-0.31071245670318604,-0.3007587492465973,0.07602617889642715
1780625230297665800,11.541665771484375,-0.265885591506958,-0.08594153076410294,0.19125157594680786
1780625230307694800,11.55169482421875,-0.20187973976135254,0.19602325558662415,0.3002191483974457
1780625230317724000,11.561723876953126,-0.12514235079288483,0.3609616160392761,0.3098544478416443
1780625230327754000,11.57175390625,-0.06886065751314163,0.3341234028339386,0.24297016859054565
1780625230337782800,11.58178271484375,-0.052229221910238266,0.21269389986991882,0.15513566136360168
1780625230347811800,11.591811767578125,-0.06274963915348053,0.07565844058990479,0.10922285169363022
1780625230357842000,11.601842041015624,-0.1011982262134552,0.013111446052789688,0.09802798926830292
1780625230367870700,11.61187060546875,-0.14209745824337006,0.01141559798270464,0.06525427103042603
1780625230377899800,11.621899658203125,-0.16838392615318298,0.05639559030532837,0.02893168479204178
1780625230387929900,11.631929931640625,-0.18778587877750397,0.13818125426769257,0.02662353590130806
1780625230397959000,11.641958984375,-0.20789727568626404,0.24156783521175385,0.0671621710062027
1780625230407987700,11.65198779296875,-0.20679225027561188,0.35755330324172974,0.1066024973988533
1780625230418017800,11.662017822265625,-0.19700300693511963,0.45559757947921753,0.11359915882349014
1780625230428046800,11.672046875,-0.18487201631069183,0.4595898687839508,0.10436655580997467
1780625230438076000,11.682075927734376,-0.16940012574195862,0.37541720271110535,0.09227606654167175
1780625230448105700,11.692105712890625,-0.14906162023544312,0.2662864923477173,0.08996148407459259
1780625230458134800,11.702134765625,-0.12315917760133743,0.16702063381671906,0.09261585772037506
1780625230468163800,11.712163818359375,-0.10456052422523499,0.07657113671302795,0.07443235069513321
1780625230478194000,11.72219384765625,-0.09836787730455399,0.046390336006879807,0.03986957669258118
1780625230488222700,11.73222265625,-0.10543764382600784,0.11489461362361908,0.008598162792623043
1780625230498252000,11.742251953125,-0.11899127066135406,0.1500571221113205,0.009112419560551643
1780625230508281900,11.75228173828125,-0.14321766793727875,0.2034507691860199,0.005744374822825193
1780625230518311000,11.762310791015626,-0.15071207284927368,0.2270277440547943,0.020099878311157227
1780625230528340000,11.772340087890624,-0.16824354231357574,0.27713266015052795,0.04204198718070984
1780625230538369800,11.782369873046875,-0.16209644079208374,0.360361248254776,0.08119577914476395
1780625230548398800,11.79239892578125,-0.17095200717449188,0.35156065225601196,0.13992637395858765
1780625230558428000,11.802427978515626,-0.17323912680149078,0.2855941355228424,0.18320515751838684
1780625230568457700,11.812457763671874,-0.16030126810073853,0.258109450340271,0.19560913741588593
1780625230578487000,11.822487060546875,-0.1451803743839264,0.18473458290100098,0.2086903154850006
1780625230588516000,11.83251611328125,-0.11768916994333267,0.20820924639701843,0.1885315626859665
1780625230598545700,11.842545654296876,-0.11517088860273361,0.18323679268360138,0.17961210012435913
1780625230608575000,11.852574951171874,-0.10228019952774048,0.1930599808692932,0.14711236953735352
1780625230618604000,11.86260400390625,-0.10709332674741745,0.2512953281402588,0.13239361345767975
1780625230628633000,11.872633056640625,-0.10805802792310715,0.2809162437915802,0.16178566217422485
1780625230638663000,11.882662841796876,-0.1138935461640358,0.32867470383644104,0.1981053203344345
1780625230648692000,11.89269189453125,-0.13537003099918365,0.330547571182251,0.2225479632616043
1780625230658721000,11.902720947265625,-0.16128285229206085,0.28072407841682434,0.25586384534835815
1780625230668751000,11.912751220703125,-0.15722927451133728,0.25201377272605896,0.2670974135398865
1780625230678780000,11.92277978515625,-0.16151084005832672,0.1989380270242691,0.2825184464454651
1780625230688809000,11.93280908203125,-0.1566559225320816,0.23833122849464417,0.2631181478500366
1780625230698839000,11.942839111328125,-0.16791443526744843,0.2919933795928955,0.21482545137405396
1780625230708868000,11.9528681640625,-0.181093230843544,0.2550163269042969,0.17988494038581848
1780625230718897000,11.96289697265625,-0.1670740842819214,0.2520175874233246,0.10185113549232483
1780625230728927000,11.972927001953124,-0.1785387247800827,0.20550276339054108,0.06523191928863525
1780625230738956000,11.9829560546875,-0.17835789918899536,0.20325292646884918,0.04554476588964462
1780625230748984800,11.99298486328125,-0.1798299252986908,0.23485134541988373,0.04336495324969292
1780625230759015000,12.003014892578125,-0.1783798336982727,0.20545804500579834,0.07050762325525284
1780625230769044000,12.0130439453125,-0.1555255651473999,0.20189225673675537,0.0833585113286972
1780625230779073000,12.023072998046874,-0.126828134059906,0.1879703253507614,0.1007193922996521
1780625230789102800,12.033102783203125,-0.11117368191480637,0.18965114653110504,0.1134614571928978
1780625230799132000,12.0431318359375,-0.0966045930981636,0.18994303047657013,0.12060938030481339
1780625230809161000,12.053160888671876,-0.08106476068496704,0.19773240387439728,0.10831525921821594
1780625230819191000,12.06319091796875,-0.07802662253379822,0.18606536090373993,0.10052125155925751
1780625230829219800,12.0732197265625,-0.06468652933835983,0.16784457862377167,0.07426991313695908
1780625230839249000,12.083248779296875,-0.050853002816438675,0.16039171814918518,0.062035080045461655
1780625230849279000,12.093279052734376,-0.044024478644132614,0.19841022789478302,0.055746011435985565
1780625230859308000,12.10330810546875,-0.04814545437693596,0.21325841546058655,0.05987337976694107
1780625230869336800,12.1133369140625,-0.05023982375860214,0.21339422464370728,0.06443273276090622
1780625230879367000,12.123366943359375,-0.04835643619298935,0.20293012261390686,0.05645123869180679
1780625230889396000,12.13339599609375,-0.05640488862991333,0.13886411488056183,0.06062169373035431
1780625230899424800,12.1434248046875,-0.05626720190048218,0.11032514274120331,0.06746495515108109
1780625230909454800,12.153454833984375,-0.0461265966296196,0.12440366297960281,0.07620440423488617
1780625230919484000,12.16348388671875,-0.0267635527998209,0.152382031083107,0.08281196653842926
1780625230929513000,12.173512939453126,-0.004859529435634613,0.148131862282753,0.08818785101175308
1780625230939543000,12.18354296875,0.009279458783566952,0.13203038275241852,0.09536560624837875
1780625230949571800,12.19357177734375,0.017593463882803917,0.1454133242368698,0.08941610157489777
1780625230959601000,12.203600830078125,0.013787006959319115,0.1657172590494156,0.062020424753427505
1780625230969631000,12.213630859375,0.008549430407583714,0.1912279576063156,0.03135703131556511
1780625230979659800,12.22365966796875,0.0011474407510831952,0.23940160870552063,0.009411519393324852
1780625230989688800,12.233688720703125,0.01044137217104435,0.22814977169036865,0.019575994461774826
1780625230999719000,12.243718994140625,0.01558926235884428,0.21104642748832703,0.0130390003323555
1780625231009748000,12.253748046875,0.026630187407135963,0.18060772120952606,0.009827863425016403
1780625231019776800,12.26377685546875,0.04049993306398392,0.15428423881530762,0.016384299844503403
1780625231029805800,12.273805908203125,0.05244222655892372,0.1250595599412918,0.04108266532421112
1780625231039836000,12.2838359375,0.05467661842703819,0.18129141628742218,0.055249083787202835
1780625231049865000,12.293864990234376,0.053869619965553284,0.23684518039226532,0.05202055349946022
1780625231059893800,12.303893798828126,0.05890991911292076,0.24162448942661285,0.04725802317261696
1780625231069923800,12.313923828125,0.06466718018054962,0.257075697183609,0.048235077410936356
1780625231079953000,12.323952880859375,0.06102876365184784,0.33792418241500854,0.046434514224529266
1780625231089981700,12.333981689453125,0.05026794597506523,0.32556262612342834,0.08329343795776367
1780625231100011800,12.34401171875,0.038801439106464386,0.3152838945388794,0.09721431136131287
1780625231110040800,12.354040771484375,0.01780785247683525,0.30665212869644165,0.08869290351867676
1780625231120070000,12.36406982421875,0.0050329347141087055,0.29061299562454224,0.07424339652061462
1780625231130100000,12.374099853515625,0.0020812531001865864,0.2789440453052521,0.061876505613327026
1780625231140128800,12.384128662109376,0.009585774503648281,0.2184993475675583,0.057291075587272644
