time,seconds_elapsed,z,y,x
1780625218812839700,0.056839599609375,-0.46550270915031433,-0.9829956293106079,-0.5043001770973206
1780625218822869800,0.066869873046875,-0.46483319997787476,-0.8176916241645813,-0.8229876160621643
1780625218832898800,0.07689892578125,-0.4106948673725128,-0.5432822108268738,-1.0422919988632202
1780625218842927600,0.086927734375,-0.3507087528705597,-0.20772044360637665,-1.1069167852401733
1780625218852956700,0.096956787109375,-0.32963836193084717,0.08340301364660263,-1.010407567024231
1780625218862986800,0.10698681640625,-0.36376968026161194,0.27521398663520813,-0.8275879621505737
1780625218873015800,0.117015869140625,-0.4283505380153656,0.3772450089454651,-0.6242529153823853
1780625218883044600,0.127044677734375,-0.5147115588188171,0.394624263048172,-0.44549277424812317
1780625218893074700,0.13707470703125,-0.5983057618141174,0.31674307584762573,-0.34988903999328613
1780625218903103700,0.147103759765625,-0.6777175068855286,0.14980973303318024,-0.33418649435043335
1780625218913132500,0.157132568359375,-0.7824303507804871,-0.1458011418581009,-0.36593350768089294
1780625218923161900,0.167161865234375,-0.8489278554916382,-0.4883188009262085,-0.3718196153640747
1780625218933191700,0.177191650390625,-0.6244391202926636,-0.5224485397338867,-0.2940148413181305
1780625218943220700,0.187220703125,-0.3642045855522156,-0.20784373581409454,-0.3378930985927582
1780625218953249800,0.197249755859375,-0.14297686517238617,0.1734040081501007,-0.32759225368499756
1780625218963279600,0.207279541015625,-0.02365179918706417,0.5261090397834778,-0.20824988186359406
1780625218973309000,0.217308837890625,0.0018373148050159216,0.7702476978302002,-0.10367925465106964
1780625218983338000,0.227337890625,-0.03025990165770054,0.8704853653907776,-0.05745823308825493
1780625218993366800,0.23736669921875,-0.10862021893262863,0.7980321645736694,-0.0804213359951973
1780625219003396900,0.24739697265625,-0.24872618913650513,0.5316268801689148,-0.14818760752677917
1780625219013426000,0.257426025390625,-0.42724481225013733,0.16624116897583008,-0.21037320792675018
1780625219023454700,0.267454833984375,-0.5177406072616577,-0.24846307933330536,-0.23728685081005096
1780625219033483800,0.27748388671875,-0.5465070009231567,-0.4364582896232605,-0.25369513034820557
1780625219043513900,0.287513916015625,-0.5521851181983948,-0.4104543626308441,-0.2500266134738922
1780625219053543000,0.29754296875,-0.5441775321960449,-0.17941848933696747,-0.2510063946247101
1780625219063571700,0.30757177734375,-0.5142284631729126,0.21734456717967987,-0.23157863318920135
1780625219073601800,0.317601806640625,-0.4756360352039337,0.6418652534484863,-0.18734192848205566
1780625219083630800,0.327630859375,-0.43451523780822754,0.9673882126808167,-0.13505049049854279
1780625219093660000,0.337659912109375,-0.4052433669567108,1.0963480472564697,-0.08634127676486969
1780625219103688700,0.347688720703125,-0.38741350173950195,1.0157759189605713,-0.04860987886786461
1780625219113718800,0.35771875,-0.3615315854549408,0.8009928464889526,-0.008531702682375908
1780625219123747800,0.367747802734375,-0.31642454862594604,0.4720016121864319,0.04859842732548714
1780625219133776600,0.377776611328125,-0.260537326335907,0.05582491680979729,0.10493733733892441
1780625219143806700,0.387806640625,-0.23262232542037964,-0.3787020444869995,0.1308901011943817
1780625219153835800,0.397835693359375,-0.25431668758392334,-0.7045896053314209,0.159205362200737
1780625219163864800,0.40786474609375,-0.3144777715206146,-0.8233863115310669,0.23524020612239838
1780625219173893600,0.4178935546875,-0.34679949283599854,-0.8922444581985474,0.36610475182533264
1780625219183923700,0.427923828125,-0.3395863175392151,-0.8962565064430237,0.5266310572624207
1780625219193952800,0.437952880859375,-0.32841596007347107,-0.774671196937561,0.6798639893531799
1780625219203981800,0.44798193359375,-0.41862761974334717,-0.6080816984176636,0.6602309346199036
1780625219214011600,0.45801171875,-0.5552019476890564,-0.3917984068393707,0.5273695588111877
1780625219224040700,0.468040771484375,-0.6399748921394348,-0.16818048059940338,0.34510600566864014
1780625219234069800,0.47806982421875,-0.6898695230484009,-0.018378740176558495,0.09261515736579895
1780625219244098800,0.488098876953125,-0.6928216218948364,0.038229942321777344,-0.1085943877696991
1780625219254128600,0.498128662109375,-0.6452980637550354,0.09195442497730255,-0.2164233773946762
1780625219264157700,0.50815771484375,-0.44763875007629395,0.014762434177100658,-0.23159700632095337
1780625219274186800,0.518186767578125,-0.1807338297367096,-0.2340492457151413,-0.11818575859069824
1780625219284215800,0.5282158203125,-0.021771874278783798,-0.4779535233974457,0.10283397138118744
1780625219294245600,0.53824560546875,0.029992520809173584,-0.6627206802368164,0.38346269726753235
1780625219304274700,0.548274658203125,0.044444162398576736,-0.6553083062171936,0.638762354850769
1780625219314304000,0.558303955078125,0.0014897723449394107,-0.5115492939949036,0.7510836124420166
1780625219324334800,0.5683349609375,-0.11193639039993286,-0.32442042231559753,0.7092698216438293
1780625219334364000,0.578364013671875,-0.1940096914768219,-0.09725145250558853,0.5517417192459106
1780625219344393000,0.58839306640625,-0.17586369812488556,0.2205885648727417,0.35726624727249146
1780625219354421800,0.598421875,-0.08309222012758255,0.5223057866096497,0.19903959333896637
1780625219364451800,0.608451904296875,0.004412857815623283,0.6310426592826843,0.08007592707872391
1780625219374481000,0.61848095703125,0.07594909518957138,0.5365318655967712,0.009236108511686325
1780625219384510000,0.628510009765625,0.08943667262792587,0.394172340631485,-0.047987766563892365
1780625219394539800,0.638539794921875,0.021821942180395126,0.1662595421075821,-0.13867080211639404
1780625219404568800,0.64856884765625,-0.11122585833072662,-0.065938800573349,-0.22705870866775513
1780625219414598000,0.658597900390625,-0.22312815487384796,-0.23137463629245758,-0.28068599104881287
1780625219424627000,0.668626953125,-0.28337764739990234,-0.34039726853370667,-0.28174060583114624
1780625219434656800,0.67865673828125,-0.295210063457489,-0.3722156286239624,-0.26092958450317383
1780625219444685800,0.688685791015625,-0.24892592430114746,-0.4311247766017914,-0.23200607299804688
1780625219454715100,0.698715087890625,-0.15140363574028015,-0.53602135181427,-0.25221067667007446
1780625219464745000,0.708744873046875,0.00361737166531384,-0.6101909279823303,-0.21605347096920013
1780625219474773800,0.718773681640625,0.11794207990169525,-0.6170152425765991,-0.15133492648601532
1780625219484803000,0.728802978515625,0.1484011858701706,-0.6032411456108093,-0.12177490442991257
1780625219494833000,0.7388330078125,0.10295701026916504,-0.533039391040802,-0.16224004328250885
1780625219504862000,0.748862060546875,0.048167262226343155,-0.44280245900154114,-0.24026532471179962
1780625219514891000,0.75889111328125,0.0014290522085502744,-0.28118187189102173,-0.30695807933807373
1780625219524920000,0.768920166015625,-0.05156385898590088,-0.18439993262290955,-0.37839949131011963
1780625219534950100,0.7789501953125,-0.12969593703746796,-0.15819843113422394,-0.4320680499076843
1780625219544979000,0.78897900390625,-0.21917496621608734,-0.25492656230926514,-0.4117848873138428
1780625219555008000,0.799008056640625,-0.3254811465740204,-0.3578260540962219,-0.31514355540275574
1780625219565038000,0.8090380859375,-0.4054414927959442,-0.5265980362892151,-0.18388381600379944
1780625219575067100,0.819067138671875,-0.4387427270412445,-0.6703783869743347,-0.04818031191825867
1780625219585096000,0.829095947265625,-0.4408940374851227,-0.7368444800376892,0.03165166825056076
1780625219595125000,0.839125,-0.45674383640289307,-0.719820499420166,0.033482857048511505
1780625219605155000,0.849155029296875,-0.484507292509079,-0.6144575476646423,-0.00461579067632556
1780625219615184000,0.859183837890625,-0.5220900774002075,-0.4516122043132782,-0.040041424334049225
1780625219625213000,0.869212890625,-0.5677303075790405,-0.2804976999759674,-0.05379398912191391
1780625219635243000,0.879242919921875,-0.6085858345031738,-0.12240767478942871,-0.07768786698579788
1780625219645272000,0.88927197265625,-0.6449430584907532,-0.022039787843823433,-0.1357852667570114
1780625219655300900,0.89930078125,-0.6811013221740723,-0.019715914502739906,-0.26909351348876953
1780625219665330000,0.909329833984375,-0.7177072763442993,-0.14909254014492035,-0.4399568736553192
1780625219675360000,0.919360107421875,-0.7406189441680908,-0.2965475022792816,-0.5540906190872192
1780625219685389000,0.92938916015625,-0.715652346611023,-0.37015461921691895,-0.5460407137870789
1780625219695417900,0.93941796875,-0.6707815527915955,-0.39671406149864197,-0.44605523347854614
1780625219705448000,0.949447998046875,-0.6463784575462341,-0.39693722128868103,-0.3271283209323883
1780625219715477000,0.95947705078125,-0.6438711285591125,-0.3414313495159149,-0.2411676049232483
1780625219725506000,0.969506103515625,-0.6460237503051758,-0.21412880718708038,-0.2179243415594101
1780625219735534800,0.979534912109375,-0.6465893983840942,-0.03630368039011955,-0.2815491259098053
1780625219745565000,0.98956494140625,-0.6436298489570618,0.1064007431268692,-0.42822033166885376
1780625219755594000,0.999593994140625,-0.6271315813064575,0.15466894209384918,-0.6265525817871094
1780625219765622800,1.009622802734375,-0.5682874321937561,0.13299480080604553,-0.7968428134918213
1780625219775652900,1.01965283203125,-0.48745274543762207,0.07116285711526871,-0.886297345161438
1780625219785682000,1.029681884765625,-0.4301428496837616,-0.06102021038532257,-0.8747954368591309
1780625219795711000,1.0397109375,-0.387150377035141,-0.2528282701969147,-0.7720557451248169
1780625219805740800,1.04974072265625,-0.3479318618774414,-0.47383174300193787,-0.5938790440559387
1780625219815769900,1.059769775390625,-0.3179750442504883,-0.6908857822418213,-0.37667351961135864
1780625219825799000,1.069798828125,-0.2981856167316437,-0.8092909455299377,-0.19354310631752014
1780625219835828000,1.079827880859375,-0.3050975799560547,-0.8227575421333313,-0.11171188205480576
1780625219845857800,1.08985791015625,-0.34979796409606934,-0.7316752672195435,-0.15130296349525452
1780625219855886800,1.099886962890625,-0.39210066199302673,-0.54581618309021,-0.2885654866695404
1780625219865916000,1.109916015625,-0.3994525969028473,-0.32508593797683716,-0.4652204215526581
1780625219875946000,1.119946044921875,-0.37406787276268005,-0.149470716714859,-0.6033694744110107
1780625219885974800,1.129974853515625,-0.32414424419403076,-0.05513941869139671,-0.6525607705116272
1780625219896003800,1.14000390625,-0.2807813286781311,-0.03593509644269943,-0.5990386605262756
1780625219906033200,1.150033203125,-0.28560006618499756,-0.11464855074882507,-0.4765585660934448
1780625219916062700,1.160062744140625,-0.3404092490673065,-0.1311420351266861,-0.3370232880115509
1780625219926092000,1.170092041015625,-0.4032324254512787,0.005336974747478962,-0.25405678153038025
1780625219936121000,1.18012109375,-0.4504891335964203,0.21995393931865692,-0.26162469387054443
1780625219946151000,1.19015087890625,-0.4773130416870117,0.4327127933502197,-0.3350751996040344
1780625219956180000,1.200179931640625,-0.4675157964229584,0.5704813003540039,-0.43587878346443176
1780625219966209000,1.210208984375,-0.4379485845565796,0.578459620475769,-0.5223462581634521
1780625219976238800,1.22023876953125,-0.4219435155391693,0.477291464805603,-0.5467837452888489
1780625219986268200,1.23026806640625,-0.42234939336776733,0.3105541467666626,-0.4971778094768524
1780625219996297000,1.240296875,-0.4257925748825073,0.14096671342849731,-0.38846439123153687
1780625220006326000,1.250325927734375,-0.4324531555175781,0.08205784857273102,-0.27031591534614563
1780625220016356000,1.260356201171875,-0.44906115531921387,0.191069558262825,-0.23193256556987762
1780625220026385000,1.270385009765625,-0.4393523335456848,0.3518477976322174,-0.2782800793647766
1780625220036414000,1.2804140625,-0.40874117612838745,0.5436438322067261,-0.3742755949497223
1780625220046444000,1.290444091796875,-0.35932913422584534,0.6552430987358093,-0.4816438555717468
1780625220056473000,1.30047314453125,-0.30629467964172363,0.6273781657218933,-0.5512919425964355
1780625220066502000,1.310501953125,-0.24985484778881073,0.48776406049728394,-0.5583103895187378
1780625220076531000,1.320531005859375,-0.20463091135025024,0.26284652948379517,-0.49813923239707947
1780625220086561000,1.33056103515625,-0.17996524274349213,-0.02395433560013771,-0.36685389280319214
1780625220096590000,1.340590087890625,-0.1834217607975006,-0.3028046190738678,-0.20028968155384064
1780625220106619000,1.350618896484375,-0.19516336917877197,-0.4997866451740265,-0.05308319255709648
1780625220116649000,1.36064892578125,-0.19182749092578888,-0.5912292003631592,0.01483567152172327
1780625220126678000,1.370677978515625,-0.18259723484516144,-0.5044761896133423,-0.07528144121170044
1780625220136707000,1.38070703125,-0.18929696083068848,-0.3119509816169739,-0.34780991077423096
1780625220146737000,1.39073681640625,-0.217617005109787,-0.10426115989685059,-0.6944658756256104
1780625220156766000,1.400765869140625,-0.2669837474822998,0.07495547086000443,-0.9901276230812073
1780625220166795000,1.410794921875,-0.2860780954360962,0.21260520815849304,-1.1317678689956665
1780625220176823800,1.42082373046875,-0.2636380195617676,0.26352939009666443,-1.1133168935775757
1780625220186854000,1.43085400390625,-0.1981748640537262,0.15313655138015747,-0.9678465127944946
1780625220196883000,1.440883056640625,-0.12072082608938217,-0.06808450818061829,-0.712199330329895
1780625220206912000,1.450912109375,-0.09541840106248856,-0.31734466552734375,-0.37535443902015686
1780625220216941800,1.46094189453125,-0.1221938207745552,-0.6292572617530823,-0.013230584561824799
1780625220226971000,1.470970947265625,-0.16526804864406586,-0.9840624928474426,0.33961349725723267
1780625220237000000,1.481,-0.14023354649543762,-1.2317365407943726,0.6564260721206665
1780625220247030000,1.491030029296875,-0.0005568669876083732,-1.3207036256790161,0.8369564414024353
1780625220257058800,1.501058837890625,0.17172914743423462,-1.3117094039916992,0.7449924349784851
1780625220267088000,1.511087890625,0.3087937831878662,-1.356046438217163,0.34154215455055237
1780625220277117000,1.521116943359375,0.42410680651664734,-1.4213119745254517,-0.22176487743854523
1780625220287147000,1.53114697265625,0.5385351181030273,-1.4249022006988525,-0.815392017364502
1780625220297175800,1.54117578125,0.7233145236968994,-1.434478998184204,-1.2829078435897827
1780625220307204900,1.551204833984375,0.9102423787117004,-1.4626216888427734,-1.4379279613494873
1780625220317235000,1.56123486328125,1.0620965957641602,-1.5802569389343262,-1.258520483970642
1780625220327262700,1.5712626953125,1.2219656705856323,-1.8616456985473633,-0.9072798490524292
1780625220337291800,1.581291748046875,1.3773845434188843,-2.1669952869415283,-0.6016384363174438
1780625220347321900,1.59132177734375,1.5714607238769531,-2.440851926803589,-0.48875662684440613
1780625220357350700,1.6013505859375,1.8032783269882202,-2.6815576553344727,-0.5962710976600647
1780625220367379700,1.611379638671875,2.048326015472412,-2.8775458335876465,-0.8508591651916504
1780625220377408800,1.62140869140625,2.265882730484009,-2.970235586166382,-1.1406385898590088
1780625220387438800,1.63143896484375,2.5700843334198,-3.0393314361572266,-1.3218027353286743
1780625220397467600,1.641467529296875,3.00871205329895,-3.138580799102783,-1.3424962759017944
1780625220407496700,1.65149658203125,3.075700521469116,-2.518667459487915,-1.4213088750839233
1780625220417526800,1.66152685546875,3.3005716800689697,-3.552288770675659,-1.732559323310852
1780625220427555600,1.6715556640625,3.438521146774292,-4.109466552734375,-1.6036629676818848
1780625220437584600,1.681584716796875,3.5715155601501465,-3.978776693344116,-1.065635085105896
1780625220447614700,1.69161474609375,3.501708745956421,-3.8537070751190186,-0.7027062177658081
1780625220457643800,1.701643798828125,3.2862372398376465,-3.9543862342834473,-0.6014810800552368
1780625220467672600,1.711672607421875,3.093308925628662,-3.9619545936584473,-0.5416685938835144
1780625220477701600,1.72170166015625,3.127520799636841,-3.9344770908355713,-0.4392615258693695
1780625220487731700,1.731731689453125,3.3939764499664307,-4.107392311096191,-0.34325748682022095
1780625220497760800,1.7417607421875,3.837679624557495,-4.580710411071777,-0.24844975769519806
1780625220507789600,1.75178955078125,4.345038890838623,-5.227748870849609,-0.10148295015096664
1780625220517819600,1.761819580078125,4.925248146057129,-5.598051071166992,0.15818670392036438
1780625220527848700,1.7718486328125,5.512687683105469,-5.751652240753174,0.37828391790390015
1780625220537877500,1.78187744140625,5.940399169921875,-6.075771331787109,0.5096248984336853
1780625220547907600,1.791907470703125,6.340826511383057,-6.504437446594238,0.7721638679504395
1780625220557936600,1.8019365234375,6.752417087554932,-6.8310322761535645,1.282014012336731
1780625220567965700,1.811965576171875,7.131303310394287,-6.946355819702148,1.946376085281372
1780625220577995500,1.82199560546875,7.4396281242370605,-6.975609302520752,2.675227403640747
1780625220588024600,1.832024658203125,7.602397918701172,-7.088853359222412,3.369124174118042
1780625220598053600,1.8420537109375,7.612778186798096,-7.3178935050964355,3.9603376388549805
1780625220608082700,1.852082763671875,7.617435455322266,-7.4755144119262695,4.455630779266357
1780625220618112500,1.862112548828125,7.561855316162109,-7.435507297515869,4.942038059234619
1780625220628141600,1.8721416015625,7.156249523162842,-6.938228130340576,5.601131439208984
1780625220638170600,1.882170654296875,6.114532470703125,-5.690173149108887,6.334204196929932
1780625220648200700,1.89220068359375,4.400653839111328,-4.124109268188477,6.8037919998168945
1780625220658229500,1.9022294921875,2.1553738117218018,-2.4007112979888916,6.660227298736572
1780625220668258600,1.912258544921875,-0.1566316932439804,-0.6142322421073914,5.834731101989746
1780625220678288600,1.92228857421875,-1.9656850099563599,1.056067705154419,4.480428695678711
1780625220688317700,1.932317626953125,-3.1250507831573486,2.365168571472168,2.938833236694336
1780625220698346500,1.942346435546875,-3.9536125659942627,3.0112431049346924,1.4095158576965332
1780625220708375800,1.952375732421875,-4.485946178436279,3.1815037727355957,0.11782730370759964
1780625220718405600,1.962405517578125,-4.748864650726318,3.0516726970672607,-0.9689102172851562
1780625220728434700,1.9724345703125,-5.023896217346191,2.5974228382110596,-1.7523847818374634
1780625220738463700,1.982463623046875,-5.368972301483154,2.178948163986206,-2.1853749752044678
1780625220748493600,1.99249365234375,-5.80237340927124,1.8232288360595703,-2.395291328430176
1780625220758522600,2.002522705078125,-6.23229455947876,1.537831425666809,-2.4995193481445312
1780625220768551700,2.0125517578125,-6.4758992195129395,1.311151385307312,-2.507059335708618
1780625220778581500,2.02258154296875,-5.880235195159912,0.7511507272720337,-2.1043360233306885
1780625220788610800,2.03261083984375,-5.449584484100342,-0.2629786431789398,-1.3525433540344238
1780625220798639900,2.042639892578125,-5.052529811859131,-1.137282133102417,-0.9732812643051147
1780625220808669400,2.05266943359375,-4.8348774909973145,-0.8485241532325745,-1.3286465406417847
1780625220818698800,2.06269873046875,-4.544551849365234,-0.0008399609941989183,-2.0749926567077637
1780625220828727800,2.072727783203125,-4.0201096534729,0.5779895782470703,-2.627139091491699
1780625220838756600,2.082756591796875,-3.019740581512451,0.4961719512939453,-2.5910465717315674
1780625220848786700,2.09278662109375,-2.295416831970215,-0.06956735998392105,-1.8655211925506592
1780625220858815700,2.102815673828125,-1.4378808736801147,-0.7603409886360168,-1.048293948173523
1780625220868844800,2.1128447265625,-0.8828477263450623,-1.1726404428482056,-0.4721241295337677
1780625220878874600,2.12287451171875,-0.5822178721427917,-0.9479900002479553,-0.4806417226791382
1780625220888903700,2.132903564453125,-0.5660319924354553,-0.37796327471733093,-1.3965529203414917
1780625220898932700,2.1429326171875,-0.7511115670204163,0.05349092185497284,-2.477818727493286
1780625220908962800,2.152962890625,-0.8440455198287964,-0.11588984727859497,-3.1745736598968506
1780625220918991600,2.16299169921875,-0.706984281539917,-1.0532405376434326,-3.559523105621338
1780625220929020700,2.173020751953125,-0.2468944787979126,-2.210423231124878,-3.588888645172119
1780625220939049700,2.1830498046875,0.5020716190338135,-3.1648075580596924,-3.4510927200317383
1780625220949079800,2.193079833984375,1.3631742000579834,-3.511566400527954,-3.2844395637512207
1780625220959108600,2.203108642578125,2.05493426322937,-3.3425581455230713,-3.0502114295959473
1780625220969137700,2.2131376953125,2.4778380393981934,-2.733743906021118,-2.8589248657226562
1780625220979167700,2.223167724609375,2.706712484359741,-1.511474609375,-2.8142778873443604
1780625220989196500,2.233196533203125,2.7768521308898926,-0.28659236431121826,-2.8123867511749268
1780625220999225600,2.2432255859375,2.686394453048706,0.9142730236053467,-2.708455801010132
1780625221009255700,2.253255615234375,2.0947091579437256,1.231200933456421,-2.5356364250183105
1780625221019284700,2.26328466796875,1.778410792350769,0.09784214198589325,-2.05552339553833
1780625221029313500,2.2733134765625,2.2185354232788086,-1.0720919370651245,-1.153398871421814
1780625221039343600,2.283343505859375,2.5606672763824463,-2.0162901878356934,-0.13457486033439636
1780625221049372700,2.29337255859375,2.587481737136841,-2.4092624187469482,0.8230614066123962
1780625221059401700,2.303401611328125,2.312345027923584,-2.540695905685425,1.6514874696731567
1780625221069430500,2.313430419921875,1.9415533542633057,-2.3126001358032227,2.1601197719573975
1780625221079460600,2.323460693359375,1.5571821928024292,-1.7584484815597534,2.2097206115722656
1780625221089489700,2.33348974609375,1.2879507541656494,-1.1140083074569702,1.8989307880401611
1780625221099518700,2.343518798828125,1.0857137441635132,-0.47257286310195923,1.420236349105835
1780625221109548500,2.353548583984375,1.0137066841125488,0.05254416912794113,0.9272477030754089
1780625221119577600,2.36357763671875,1.1220701932907104,0.31526580452919006,0.5710003972053528
1780625221129606700,2.373606689453125,1.366654396057129,0.16149328649044037,0.3453004062175751
1780625221139636700,2.38363671875,1.7931854724884033,-0.006405435036867857,0.14277073740959167
1780625221149665500,2.39366552734375,2.3646514415740967,-0.047753941267728806,-0.08353244513273239
1780625221159694600,2.403694580078125,2.961354970932007,-0.06498619168996811,-0.3171742260456085
1780625221169724700,2.413724609375,3.4422197341918945,-0.056479521095752716,-0.5449029803276062
1780625221179753500,2.42375341796875,3.821260929107666,-0.002284193178638816,-0.7146720290184021
1780625221189782500,2.433782470703125,3.9754557609558105,0.18139855563640594,-0.7862642407417297
1780625221199812600,2.4438125,3.891087293624878,0.6898982524871826,-0.873673677444458
1780625221209841700,2.453841552734375,3.747194290161133,1.2436763048171997,-0.9072548151016235
1780625221219870500,2.463870361328125,3.608400821685791,1.7193349599838257,-0.9337689876556396
1780625221229899500,2.4738994140625,3.5203816890716553,1.9893325567245483,-0.998451828956604
1780625221239929600,2.4839296875,3.4772799015045166,2.026611328125,-1.1022757291793823
1780625221249958700,2.493958740234375,3.466787815093994,1.805532693862915,-1.241890549659729
1780625221259987700,2.50398779296875,3.5015993118286133,1.4815272092819214,-1.3470945358276367
1780625221270017500,2.514017578125,3.5295848846435547,1.107769250869751,-1.2479287385940552
1780625221280046600,2.524046630859375,3.4955687522888184,0.7906283140182495,-0.907440721988678
1780625221290075600,2.53407568359375,3.3793375492095947,0.5689713358879089,-0.5298036932945251
1780625221300105500,2.54410546875,3.1439082622528076,0.21670673787593842,-0.18198631703853607
1780625221310134500,2.554134521484375,3.063349962234497,0.028202077373862267,0.053773749619722366
1780625221320164000,2.5641640625,3.796846389770508,0.44924864172935486,0.048172589391469955
1780625221330194200,2.574194091796875,4.411994934082031,1.0750057697296143,0.27496498823165894
1780625221340223000,2.584222900390625,4.4959893226623535,1.7236050367355347,0.6915448904037476
1780625221350252000,2.594251953125,4.236748695373535,1.7886284589767456,1.125701904296875
1780625221360282000,2.6042822265625,3.6269407272338867,1.6916567087173462,1.5675208568572998
1780625221370311200,2.614311279296875,2.7084546089172363,1.4781571626663208,1.8312153816223145
1780625221380340200,2.62434033203125,1.4998939037322998,1.2191085815429688,1.869349479675293
1780625221390369300,2.634369384765625,0.2632071375846863,1.2040555477142334,1.8009493350982666
1780625221400399000,2.644399169921875,-0.725881814956665,1.3058503866195679,1.6255743503570557
1780625221410428200,2.65442822265625,-1.3285653591156006,1.3224807977676392,1.3362445831298828
1780625221420457200,2.664457275390625,-1.5142056941986084,1.1867295503616333,1.033031940460205
1780625221430487000,2.674487060546875,-1.372131109237671,0.7869089841842651,0.6781089901924133
1780625221440516400,2.684516357421875,-1.014908790588379,0.00410552928224206,0.18963757157325745
1780625221450545200,2.694545166015625,-0.6861474514007568,-0.622242271900177,-0.2807975709438324
1780625221460575000,2.704574951171875,-0.518456757068634,-0.6925957798957825,-0.5705716013908386
1780625221470604300,2.714604248046875,-0.45568975806236267,-0.4531019628047943,-0.6798946261405945
1780625221480633300,2.72463330078125,-0.44344401359558105,-0.1391211301088333,-0.6604087948799133
1780625221490663200,2.7346630859375,-0.46149811148643494,0.16925454139709473,-0.5690544247627258
1780625221500692200,2.744692138671875,-0.49590376019477844,0.41399505734443665,-0.4425627887248993
1780625221510721300,2.75472119140625,-0.5586276054382324,0.5346328020095825,-0.27414631843566895
1780625221520751400,2.76475146484375,-0.6633590459823608,0.5779227018356323,-0.05614423006772995
1780625221530780200,2.7747802734375,-0.8442894220352173,0.5617072582244873,0.1814693957567215
1780625221540809200,2.784809326171875,-0.9123510718345642,0.6576721668243408,0.413897842168808
1780625221550838300,2.79483837890625,-0.8929203748703003,0.5826751589775085,0.557165265083313
1780625221560868400,2.804868408203125,-0.806123673915863,0.22935329377651215,0.45991939306259155
1780625221570897200,2.814897216796875,-0.6216771602630615,-0.3044554889202118,0.05854853242635727
1780625221580926200,2.82492626953125,-0.2657879889011383,-0.6872678399085999,-0.5635344982147217
1780625221590956300,2.834956298828125,0.20249265432357788,-0.7488518357276917,-1.1230974197387695
1780625221600985000,2.844985107421875,0.6678587198257446,-0.6418652534484863,-1.515116810798645
1780625221611014100,2.85501416015625,1.0680577754974365,-0.4309532642364502,-1.7610615491867065
1780625221621044200,2.865044189453125,1.3075002431869507,-0.1452232450246811,-1.893702745437622
1780625221631073300,2.8750732421875,1.2984201908111572,0.15255704522132874,-1.94390869140625
1780625221641102000,2.88510205078125,1.0914134979248047,0.46448856592178345,-2.0173144340515137
1780625221651132200,2.895132080078125,0.6852585077285767,0.5555969476699829,-2.2215042114257812
1780625221661161200,2.9051611328125,0.12181591987609863,0.20076718926429749,-2.424478769302368
1780625221671190300,2.915190185546875,-0.361184298992157,-0.4343402683734894,-2.4657020568847656
1780625221681220000,2.92522021484375,-0.5646908283233643,-0.95570969581604,-2.3050107955932617
1780625221691249200,2.935249267578125,-0.5517968535423279,-1.201751708984375,-2.0763933658599854
1780625221701278200,2.9452783203125,-0.4382931888103485,-1.0740046501159668,-1.8532570600509644
1780625221711308300,2.955308349609375,-0.2766481041908264,-0.5607794523239136,-1.618302345275879
1780625221721337000,2.965337158203125,-0.07560314983129501,0.04982108622789383,-1.35297429561615
1780625221731366100,2.9753662109375,0.048882320523262024,0.45295044779777527,-1.1037644147872925
1780625221741396200,2.985396240234375,0.10300414264202118,0.5722180008888245,-0.8841503262519836
1780625221751425300,2.99542529296875,0.07140573859214783,0.36551061272621155,-0.6707605123519897
1780625221761454000,3.0054541015625,-0.022236596792936325,0.08207543194293976,-0.48427507281303406
1780625221771483100,3.015483154296875,-0.10706173628568649,-0.042204443365335464,-0.29913583397865295
1780625221781513200,3.02551318359375,-0.1612834334373474,-0.03466556966304779,-0.14019545912742615
1780625221791542000,3.0355419921875,-0.1944083571434021,0.002832005498930812,0.003933755215257406
1780625221801571000,3.045571044921875,-0.20929382741451263,-0.01907568983733654,0.13609579205513
1780625221811601200,3.05560107421875,-0.25444960594177246,-0.09470893442630768,0.26177194714546204
1780625221821630200,3.065630126953125,-0.311533659696579,-0.14762860536575317,0.40468651056289673
1780625221831659000,3.075658935546875,-0.33252814412117004,-0.1527453362941742,0.5638202428817749
1780625221841689000,3.085689208984375,-0.2950316369533539,-0.047443415969610214,0.7431228756904602
1780625221851718100,3.09571826171875,-0.25929707288742065,0.059902749955654144,0.9313580393791199
1780625221861747200,3.105747314453125,-0.22371910512447357,0.11926114559173584,1.1233876943588257
1780625221871777000,3.115777099609375,-0.15294188261032104,0.14113901555538177,1.3237016201019287
1780625221881806000,3.12580615234375,-0.031861525028944016,0.2035568505525589,1.5319631099700928
1780625221891835100,3.135835205078125,0.09926826506853104,0.30213454365730286,1.6968770027160645
1780625221901865200,3.145865234375,0.23016023635864258,0.4281630516052246,1.801809549331665
1780625221911894000,3.15589404296875,0.30193030834198,0.5522807240486145,1.7910560369491577
1780625221921923000,3.165923095703125,0.26405027508735657,0.5976884365081787,1.650802493095398
1780625221931953200,3.175953125,0.11915116012096405,0.5380922555923462,1.4387117624282837
1780625221941982200,3.185982177734375,-0.06701844930648804,0.4372897148132324,1.226930856704712
1780625221952011000,3.196010986328125,-0.2288861721754074,0.26978355646133423,1.000239372253418
1780625221962040000,3.2060400390625,-0.31277576088905334,0.020313527435064316,0.7132357954978943
1780625221972070100,3.216070068359375,-0.23792468011379242,-0.14580939710140228,0.47226420044898987
1780625221982099000,3.226098876953125,-0.03226499632000923,-0.0996837168931961,0.41523393988609314
1780625221992128300,3.236128173828125,0.28533267974853516,0.1435861885547638,0.4731864631175995
1780625222002158000,3.246157958984375,0.6993231773376465,0.5585306286811829,0.583760142326355
1780625222012187100,3.256187255859375,1.0389853715896606,0.8840315341949463,0.681640625
1780625222022216200,3.26621630859375,1.2906477451324463,0.6606378555297852,0.6033855080604553
1780625222032246000,3.27624609375,1.455209493637085,-0.20706157386302948,0.2127239853143692
1780625222042275000,3.286275146484375,1.4316749572753906,-0.9150125980377197,-0.24081021547317505
1780625222052304400,3.296304443359375,1.1954536437988281,-0.7197344303131104,-0.4196561276912689
1780625222062334000,3.306333984375,0.9250468611717224,0.020109528675675392,-0.39489299058914185
1780625222072363300,3.31636328125,0.7653725147247314,0.5771099328994751,-0.37675926089286804
1780625222082392300,3.326392333984375,0.7451247572898865,0.6587283611297607,-0.3685407340526581
1780625222092422100,3.336422119140625,0.7812998294830322,0.5003488659858704,-0.1370081901550293
1780625222102451200,3.346451171875,0.7567497491836548,0.35096362233161926,0.3433464467525482
1780625222112480300,3.356480224609375,0.684489905834198,0.3414018154144287,0.9247986674308777
1780625222122510000,3.366510009765625,0.6058875322341919,0.41269728541374207,1.4136983156204224
1780625222132539400,3.376539306640625,0.4567129611968994,0.4448389708995819,1.6937371492385864
1780625222142568200,3.386568115234375,0.26918166875839233,0.3650389611721039,1.7481199502944946
1780625222152598000,3.396597900390625,0.1267925649881363,0.13828277587890625,1.6317275762557983
1780625222162627300,3.40662744140625,0.008890696801245213,-0.14018987119197845,1.504369854927063
1780625222172656000,3.41665625,-0.012574114836752415,-0.23481890559196472,1.4779300689697266
1780625222182685200,3.426685302734375,0.02664945460855961,-0.1348440945148468,1.5386756658554077
1780625222192715300,3.43671533203125,0.08970645070075989,-0.03280748054385185,1.6044427156448364
1780625222202744300,3.446744384765625,0.19842201471328735,-0.049258626997470856,1.6155883073806763
1780625222212773000,3.456773193359375,0.30070018768310547,-0.1252439320087433,1.5766468048095703
1780625222222803200,3.46680322265625,0.34382715821266174,-0.21377113461494446,1.525874137878418
1780625222232832300,3.476832275390625,0.3269301950931549,-0.2802495062351227,1.4963452816009521
1780625222242861300,3.486861328125,0.2330324500799179,-0.3570854365825653,1.4706332683563232
1780625222252891100,3.49689111328125,0.1233280599117279,-0.4270581305027008,1.4214690923690796
1780625222262920200,3.506920166015625,0.050569433718919754,-0.40297141671180725,1.382779836654663
1780625222272949200,3.51694921875,0.04542713612318039,-0.253552109003067,1.3641462326049805
1780625222282979300,3.526979248046875,0.12920139729976654,0.012917662970721722,1.333105206489563
1780625222293008100,3.537008056640625,0.20910608768463135,0.2671555280685425,1.2297849655151367
1780625222303037200,3.547037109375,0.216848686337471,0.32396769523620605,1.0121437311172485
1780625222313067300,3.5570673828125,0.22390420734882355,0.29327821731567383,0.7251667976379395
1780625222323096300,3.567096435546875,0.25052621960639954,0.21925325691699982,0.42046278715133667
1780625222333125600,3.577125732421875,0.26355016231536865,0.14532816410064697,0.14978523552417755
1780625222343155700,3.58715576171875,0.21807055175304413,0.07242972403764725,-0.042988479137420654
1780625222353184800,3.597184814453125,0.16740603744983673,0.010360228829085827,-0.1308847814798355
1780625222363213600,3.607213623046875,0.16052256524562836,0.12101776897907257,-0.09383568167686462
1780625222373243600,3.61724365234375,0.10174473375082016,0.022896261885762215,-0.05446111038327217
1780625222383272700,3.627272705078125,0.06124072149395943,-0.2003839612007141,-0.09246468544006348
1780625222393301800,3.6373017578125,0.10289149731397629,-0.2943573296070099,-0.1168922632932663
1780625222403331800,3.647331787109375,0.141291081905365,-0.35408538579940796,-0.1419113278388977
1780625222413360600,3.657360595703125,0.1585124135017395,-0.3619539439678192,-0.16925214231014252
1780625222423389700,3.6673896484375,0.18351523578166962,-0.2663525938987732,-0.18270429968833923
1780625222433418800,3.677418701171875,0.20524609088897705,-0.10726679861545563,-0.18251468241214752
1780625222443448600,3.687448486328125,0.1927444189786911,0.031632762402296066,-0.1663421094417572
1780625222453477600,3.6974775390625,0.15473365783691406,0.11056752502918243,-0.12921284139156342
1780625222463506700,3.707506591796875,0.12327399849891663,0.17044471204280853,-0.07856325060129166
1780625222473536800,3.717536865234375,0.08485576510429382,0.2103002369403839,-0.0536978505551815
1780625222483565600,3.727565673828125,0.0584246926009655,0.2577865421772003,-0.038233671337366104
1780625222493594600,3.7375947265625,0.03375796228647232,0.21409843862056732,-0.034634675830602646
1780625222503624700,3.747624755859375,0.00806298665702343,0.07208484411239624,-0.05142723768949509
1780625222513653800,3.75765380859375,-0.014489460736513138,-0.03702646121382713,-0.08603501319885254
1780625222523682600,3.7676826171875,-0.03392814099788666,-0.09314032644033432,-0.12405696511268616
1780625222533712600,3.777712646484375,-0.03538302332162857,-0.07019773125648499,-0.14015497267246246
1780625222543741700,3.78774169921875,0.002394448034465313,0.07836111634969711,-0.09623279422521591
1780625222553770500,3.7977705078125,-0.0018498316640034318,0.22348769009113312,-0.03723179176449776
1780625222563800600,3.807800537109375,0.0073071811348199844,0.485552042722702,0.03694496676325798
1780625222573829600,3.81782958984375,0.02375859208405018,0.6483995318412781,0.07266514748334885
1780625222583858700,3.827858642578125,0.024892034009099007,0.5743021368980408,0.026382870972156525
1780625222593888800,3.837888671875,-0.029949642717838287,0.33656230568885803,-0.11275690793991089
1780625222603917600,3.84791748046875,-0.03936764597892761,0.34062522649765015,-0.20709912478923798
1780625222613946600,3.857946533203125,-0.09821072220802307,0.3484405279159546,-0.2710570693016052
1780625222623976700,3.867976806640625,-0.17089851200580597,0.3609462082386017,-0.3115070164203644
1780625222634005500,3.878005615234375,-0.2703782320022583,0.3055332899093628,-0.37430328130722046
1780625222644034600,3.88803466796875,-0.3034474849700928,0.29770198464393616,-0.43139082193374634
1780625222654064600,3.898064697265625,-0.31191369891166687,0.3227570056915283,-0.4811578392982483
1780625222664093700,3.90809375,-0.339959979057312,0.3814743757247925,-0.5347845554351807
1780625222674122500,3.91812255859375,-0.38059288263320923,0.4661969840526581,-0.5835526585578918
1780625222684152600,3.928152587890625,-0.38230955600738525,0.6562681198120117,-0.6064606308937073
1780625222694181600,3.938181640625,-0.3655337691307068,0.9055165648460388,-0.5995718240737915
1780625222704210700,3.948210693359375,-0.31239625811576843,1.1271858215332031,-0.5582749843597412
1780625222714240500,3.958240478515625,-0.24701538681983948,1.217887282371521,-0.5183230638504028
1780625222724269600,3.96826953125,-0.17680060863494873,1.2200140953063965,-0.5422901511192322
1780625222734298600,3.978298583984375,-0.060564011335372925,1.163507103919983,-0.6222342848777771
1780625222744327400,3.988327392578125,0.10501376539468765,1.1536792516708374,-0.6918258666992188
1780625222754357500,3.998357421875,0.26666364073753357,1.1414095163345337,-0.7896490693092346
1780625222764386600,4.008386474609375,0.404965341091156,1.0248442888259888,-1.0521172285079956
1780625222774415600,4.01841552734375,0.4968332052230835,0.7905974388122559,-1.5154550075531006
1780625222784445700,4.02844580078125,0.5495656728744507,0.7656063437461853,-2.017232656478882
1780625222794474500,4.038474609375,0.5553684234619141,0.9458552002906799,-2.344525098800659
1780625222804503600,4.048503662109375,0.5436904430389404,1.217142105102539,-2.473874568939209
1780625222814533600,4.05853369140625,0.40754860639572144,1.2278869152069092,-2.5033011436462402
1780625222824562400,4.0685625,0.047809600830078125,0.8697202205657959,-2.537843942642212
1780625222834591700,4.078591796875,-0.028059065341949463,0.30467867851257324,-2.5077338218688965
1780625222844621600,4.08862158203125,0.02821965329349041,-0.4518263041973114,-2.5132436752319336
1780625222854650600,4.098650634765625,0.1657295823097229,-1.0481666326522827,-2.5806386470794678
1780625222864679700,4.1086796875,0.08438518643379211,-1.617186188697815,-2.732959747314453
1780625222874709500,4.11870947265625,-0.11820679903030396,-2.0234761238098145,-2.7990877628326416
1780625222884738600,4.128738525390625,-0.3744673430919647,-2.0599544048309326,-2.8115878105163574
1780625222894767900,4.138767822265625,-0.6438176035881042,-1.8115562200546265,-2.7824149131774902
1780625222904797400,4.14879736328125,-0.841472327709198,-1.4362475872039795,-2.6685070991516113
1780625222914826800,4.15882666015625,-0.8492410778999329,-1.0260528326034546,-2.4287548065185547
1780625222924855800,4.168855712890625,-0.6443768739700317,-0.6386529207229614,-2.1685564517974854
1780625222934885600,4.1788857421875,-0.20543357729911804,-0.23633210361003876,-1.9144359827041626
1780625222944914700,4.188914794921875,0.27595940232276917,0.25356969237327576,-1.6436082124710083
1780625222954943700,4.19894384765625,0.45381277799606323,0.5157893300056458,-1.366269588470459
1780625222964973600,4.2089736328125,0.42803362011909485,0.4354124665260315,-1.0506184101104736
1780625222975003000,4.2190029296875,0.47191160917282104,0.09231608361005783,-0.6284908056259155
1780625222985031700,4.22903173828125,0.551714301109314,-0.27576392889022827,-0.15090934932231903
1780625222995061800,4.239061767578125,0.5118939280509949,-0.5491927862167358,0.3091945946216583
1780625223005090800,4.2490908203125,0.36332812905311584,-0.6590753793716431,0.6871019601821899
1780625223015119600,4.25911962890625,0.22610503435134888,-0.5569444894790649,0.9985666275024414
1780625223025149700,4.269149658203125,0.11283200979232788,-0.29871824383735657,1.252496361732483
1780625223035178800,4.2791787109375,0.07104621082544327,-0.04621250182390213,1.436503529548645
1780625223045207800,4.289207763671875,0.02365739271044731,0.06230012699961662,1.5499969720840454
1780625223055238000,4.29923779296875,-0.007172957994043827,-0.07028800994157791,1.6408331394195557
1780625223065266700,4.3092666015625,-0.014523815363645554,-0.3328959345817566,1.7390737533569336
1780625223075295700,4.319295654296875,0.00672341650351882,-0.6264351606369019,1.8026117086410522
1780625223085325800,4.329325927734375,0.01085877325385809,-0.8983457684516907,1.8241697549819946
1780625223095354600,4.339354736328125,-0.01630973070859909,-1.0710402727127075,1.7932467460632324
1780625223105383700,4.3493837890625,-0.01888500712811947,-1.0631378889083862,1.7324802875518799
1780625223115413800,4.359413818359375,-0.059969060122966766,-0.9155585765838623,1.6029558181762695
1780625223125442800,4.36944287109375,-0.12539361417293549,-0.7553837895393372,1.3135567903518677
1780625223135471600,4.3794716796875,-0.24932220578193665,-0.6099115610122681,0.8322620391845703
1780625223145501700,4.389501708984375,-0.38839539885520935,-0.40049442648887634,0.28562936186790466
1780625223155530800,4.39953076171875,-0.5054514408111572,-0.09693879634141922,-0.18294478952884674
1780625223165559800,4.409559814453125,-0.39504584670066833,0.26818111538887024,-0.4454629719257355
1780625223175589600,4.419589599609375,-0.059353336691856384,0.6612508893013,-0.5473381876945496
1780625223185618700,4.42961865234375,0.34034374356269836,1.0070372819900513,-0.5415673851966858
1780625223195647700,4.439647705078125,0.683146059513092,1.1996222734451294,-0.29909375309944153
1780625223205677800,4.449677734375,0.8655076622962952,1.0771863460540771,0.0721234604716301
1780625223215706600,4.45970654296875,0.670960545539856,0.6645340323448181,0.34562692046165466
1780625223225735700,4.469735595703125,0.22190789878368378,0.033959563821554184,0.3451012074947357
1780625223235765800,4.479765869140625,-0.12424791604280472,-0.4327434301376343,0.199718177318573
1780625223245794800,4.489794921875,-0.1887214481830597,-0.6622080206871033,0.05718233063817024
1780625223255823600,4.49982373046875,-0.11407490819692612,-0.7882605195045471,-0.08600572496652603
1780625223265853700,4.509853759765625,0.07480978965759277,-0.8187867403030396,-0.19462008774280548
1780625223275882800,4.5198828125,0.3018490672111511,-0.7597939968109131,-0.22621023654937744
1780625223285911600,4.52991162109375,0.44469302892684937,-0.5209625363349915,-0.14706507325172424
1780625223295941600,4.539941650390625,0.4483453035354614,-0.11027537286281586,0.03116590902209282
1780625223305970700,4.549970703125,0.48513898253440857,0.3587810695171356,0.2336076945066452
1780625223315999700,4.559999755859375,0.45579203963279724,0.6499729752540588,0.3774074614048004
1780625223326029000,4.570029052734375,0.2939072549343109,0.7138938903808594,0.463283509016037
1780625223336058000,4.58005810546875,0.07441884279251099,0.7485786080360413,0.5599072575569153
1780625223346087000,4.5900869140625,-0.16449786722660065,0.758980393409729,0.6896862983703613
1780625223356117000,4.600116943359375,-0.4227709472179413,0.8119133710861206,0.8834091424942017
1780625223366146000,4.61014599609375,-0.6782194972038269,0.8863005638122559,1.1349146366119385
1780625223376174800,4.6201748046875,-0.8771424293518066,1.0164079666137695,1.413499116897583
1780625223386205000,4.630204833984375,-0.9089502096176147,1.387054443359375,1.6840273141860962
1780625223396234000,4.64023388671875,-0.7389174699783325,1.836032509803772,1.92733633518219
1780625223406263000,4.650262939453125,-0.5247242450714111,2.0630288124084473,2.1357295513153076
1780625223416293000,4.660293212890625,-0.3011595606803894,2.0474767684936523,2.210340976715088
1780625223426322000,4.670322021484375,-0.0747155174612999,1.8610928058624268,2.0730013847351074
1780625223436351000,4.68035107421875,0.08100111037492752,1.5620760917663574,1.7518510818481445
1780625223446381000,4.690381103515625,0.19189274311065674,1.1909546852111816,1.292834997177124
1780625223456409900,4.700409912109375,0.34853827953338623,0.8683167695999146,0.7673834562301636
1780625223466439000,4.71043896484375,0.5738435387611389,0.6299041509628296,0.2545427978038788
1780625223476469000,4.720468994140625,0.8523662686347961,0.48765355348587036,-0.14533083140850067
1780625223486498000,4.730498046875,1.188091516494751,0.45893749594688416,-0.3882846236228943
1780625223496526800,4.74052685546875,1.4374864101409912,0.45347267389297485,-0.4816928803920746
1780625223506557000,4.750556884765625,1.5615549087524414,0.5025920271873474,-0.49408695101737976
1780625223516586000,4.7605859375,1.4318077564239502,0.48172909021377563,-0.5309328436851501
1780625223526615000,4.770614990234375,1.0922163724899292,0.37124091386795044,-0.6289348006248474
1780625223536644900,4.780644775390625,0.6847490668296814,0.18532271683216095,-0.7466099858283997
1780625223546674000,4.790673828125,0.3271046280860901,0.03842621669173241,-0.9050694108009338
1780625223556703000,4.800702880859375,0.09608232229948044,0.08815169334411621,-1.0948125123977661
1780625223566733000,4.810733154296875,0.11514869332313538,0.37167927622795105,-1.258019208908081
1780625223576761900,4.820761962890625,0.2799759805202484,0.23647405207157135,-1.1699838638305664
1780625223586791000,4.830791015625,0.28863525390625,-0.32510724663734436,-0.86895751953125
1780625223596821000,4.840821044921875,0.1428263932466507,-0.8646857738494873,-0.5558986663818359
1780625223606850000,4.85085009765625,-0.07844261080026627,-1.0666558742523193,-0.25144821405410767
1780625223616879000,4.860879150390625,-0.27162590622901917,-0.7797967195510864,-0.018968630582094193
1780625223626909000,4.870908935546875,-0.3671276867389679,-0.2851100265979767,0.18593791127204895
1780625223636938000,4.88093798828125,-0.3722308278083801,0.2020401805639267,0.3513505756855011
1780625223646967000,4.890967041015625,-0.3104422986507416,0.5168843865394592,0.4337407946586609
1780625223656996000,4.90099609375,-0.2606566250324249,0.6605893969535828,0.43797653913497925
1780625223667026000,4.91102587890625,-0.21205739676952362,0.7091201543807983,0.34690630435943604
1780625223677055200,4.92105517578125,-0.08234281092882156,0.7410144209861755,0.18150880932807922
1780625223687084000,4.931083984375,0.0342479832470417,0.7306651473045349,0.002767024328932166
1780625223697114000,4.941114013671875,0.0841582864522934,0.5835976600646973,-0.1552170217037201
1780625223707143200,4.95114306640625,0.11096912622451782,0.4109063148498535,-0.27098676562309265
1780625223717172200,4.961172119140625,0.07972332090139389,0.27172738313674927,-0.30981510877609253
1780625223727202000,4.9712021484375,0.1303446888923645,0.28845471143722534,-0.2966654896736145
1780625223737231000,4.981231201171875,0.1478951871395111,0.3308982849121094,-0.2144574373960495
1780625223747260200,4.99126025390625,0.23772893846035004,0.404109925031662,-0.12041802704334259
1780625223757290200,5.001290283203125,0.3608306348323822,0.4922504425048828,-0.01811215840280056
1780625223767319000,5.011319091796875,0.4656960666179657,0.5361358523368835,0.07250455766916275
1780625223777348000,5.02134814453125,0.5314471125602722,0.4667392075061798,0.13548725843429565
1780625223787378200,5.031378173828125,0.5416467189788818,0.39494943618774414,0.13151675462722778
1780625223797407200,5.0414072265625,0.5399487018585205,0.3231807351112366,0.08303416520357132
1780625223807436000,5.05143603515625,0.5789666771888733,0.2550530731678009,0.05432156100869179
1780625223817466000,5.061466064453125,0.6007899641990662,0.1787942498922348,0.06435209512710571
1780625223827495200,5.0714951171875,0.5916763544082642,0.09797822684049606,0.11366850882768631
1780625223837524000,5.08152392578125,0.5334468483924866,0.0653316006064415,0.1834782212972641
1780625223847554000,5.091553955078125,0.43487343192100525,0.13079875707626343,0.24507154524326324
1780625223857583000,5.1015830078125,0.27819007635116577,0.2749311625957489,0.25100478529930115
1780625223867612200,5.111612060546875,0.07846923917531967,0.39243409037590027,0.19628828763961792
1780625223877642000,5.12164208984375,-0.17388524115085602,0.31019753217697144,0.22444482147693634
1780625223887671000,5.131671142578125,-0.4033493399620056,0.2423311471939087,0.2217867225408554
1780625223897700000,5.1417001953125,-0.6249930262565613,0.387931227684021,0.10928254574537277
1780625223907730200,5.151730224609375,-0.711687445640564,0.45872363448143005,-0.08564858883619308
1780625223917759000,5.161759033203125,-0.49239903688430786,0.5452800989151001,-0.37473180890083313
1780625223927788000,5.1717880859375,-0.17006812989711761,0.7435758709907532,-0.6952980756759644
1780625223937818000,5.181818115234375,0.0929909273982048,0.9549109935760498,-1.0174838304519653
1780625223947847200,5.19184716796875,0.22168578207492828,1.0118321180343628,-1.3412792682647705
1780625223957876000,5.2018759765625,0.1100095883011818,0.6975340843200684,-1.5573757886886597
1780625223967906000,5.211906005859375,-0.18729771673679352,0.02755040116608143,-1.5731878280639648
1780625223977935000,5.22193505859375,-0.4050103425979614,-0.7763106822967529,-1.3026705980300903
1780625223987964000,5.2319638671875,-0.30953869223594666,-1.3300819396972656,-0.8401561975479126
1780625223997994000,5.241993896484375,-0.07189842313528061,-1.4121004343032837,-0.3305009603500366
1780625224008023000,5.25202294921875,0.10939093679189682,-1.1986526250839233,0.02371438406407833
1780625224018052000,5.262052001953125,0.13025254011154175,-0.8405977487564087,0.010343184694647789
1780625224028082200,5.272082275390625,0.027993550524115562,-0.458244264125824,-0.29088377952575684
1780625224038111000,5.282111083984375,-0.04328355938196182,-0.16839513182640076,-0.5727953314781189
1780625224048140000,5.29214013671875,-0.07575548440217972,-0.021410750225186348,-0.669548511505127
1780625224058170000,5.302170166015625,-0.10109306126832962,0.03484879434108734,-0.6711722612380981
1780625224068199000,5.312198974609375,-0.12445218116044998,-0.019638948142528534,-0.6600013375282288
1780625224078228000,5.32222802734375,-0.15897101163864136,-0.18919523060321808,-0.6240580081939697
1780625224088258000,5.332258056640625,-0.1709674894809723,-0.40743353962898254,-0.5820043087005615
1780625224098287000,5.342287109375,-0.1893392950296402,-0.6190645694732666,-0.5136579871177673
1780625224108316000,5.35231591796875,-0.23862428963184357,-0.7963125705718994,-0.41327759623527527
1780625224118346000,5.362345947265625,-0.30934667587280273,-0.9396540522575378,-0.29180070757865906
1780625224128375000,5.372375,-0.37787753343582153,-1.0743924379348755,-0.19581051170825958
1780625224138404000,5.382404052734375,-0.42081671953201294,-1.1963419914245605,-0.14107243716716766
1780625224148434000,5.392433837890625,-0.4608006477355957,-1.2176967859268188,-0.12832708656787872
1780625224158463000,5.402462890625,-0.5505837798118591,-1.0978868007659912,-0.06884191185235977
1780625224168492000,5.412491943359375,-0.6400178074836731,-0.9128423929214478,0.015668975189328194
1780625224178522000,5.422522216796875,-0.737612783908844,-0.6417350172996521,0.10236471891403198
1780625224188551000,5.432551025390625,-0.7570645213127136,-0.4308435320854187,0.16345471143722534
1780625224198580000,5.442580078125,-0.6789382696151733,-0.3550395965576172,0.22360965609550476
1780625224208610000,5.452610107421875,-0.5513063073158264,-0.34033679962158203,0.3208613693714142
1780625224218639000,5.46263916015625,-0.4056899845600128,-0.3505396544933319,0.4944169223308563
1780625224228668000,5.47266796875,-0.2519797682762146,-0.3830086290836334,0.7353392243385315
1780625224238698000,5.482697998046875,-0.11026738584041595,-0.42081087827682495,0.9998132586479187
1780625224248727000,5.49272705078125,-0.012130964547395706,-0.44337689876556396,1.2265592813491821
1780625224258755800,5.502755859375,0.059304602444171906,-0.4787282347679138,1.319575548171997
1780625224268786000,5.512785888671875,0.07439114153385162,-0.6185223460197449,1.1364262104034424
1780625224278815000,5.52281494140625,-0.013891846872866154,-0.7642363905906677,0.4940240979194641
1780625224288844000,5.532843994140625,-0.24451014399528503,-0.6304131150245667,-0.4719957709312439
1780625224298874000,5.5428740234375,-0.6016115546226501,-0.1387203335762024,-1.2854911088943481
1780625224308903000,5.55290283203125,-0.9419779181480408,0.38443687558174133,-1.6450763940811157
1780625224318932000,5.562931884765625,-1.1927601099014282,0.8581386804580688,-1.551433801651001
1780625224328961500,5.57296142578125,-1.3582526445388794,1.392661690711975,-1.1417953968048096
1780625224338990600,5.582990478515625,-1.2364263534545898,1.5736445188522339,-0.5817659497261047
1780625224349019600,5.59301953125,-0.7295221090316772,1.077568769454956,0.115691177546978
1780625224359049700,5.6030498046875,0.12539947032928467,0.35003790259361267,0.7007107138633728
1780625224369078500,5.61307861328125,1.013008713722229,-0.14059466123580933,1.143242359161377
1780625224379107800,5.62310791015625,1.597154140472412,-0.25164157152175903,1.2613165378570557
1780625224389137700,5.6331376953125,1.515647292137146,0.015806660056114197,0.7439178228378296
1780625224399166500,5.64316650390625,0.851249098777771,1.3014559745788574,-1.309338927268982
1780625224409195800,5.65319580078125,0.6964866518974304,1.3514295816421509,-3.1940629482269287
1780625224419225600,5.6632255859375,0.6292663216590881,-0.3693910837173462,-3.184163808822632
1780625224429254700,5.673254638671875,0.5011253952980042,-1.8407965898513794,-2.2084362506866455
1780625224439283700,5.68328369140625,0.29701942205429077,-2.078362226486206,-1.0963488817214966
1780625224449313500,5.6933134765625,0.06493319571018219,-1.2875581979751587,0.08187462389469147
1780625224459342600,5.703342529296875,-0.023600401356816292,-0.0262430552393198,1.318475365638733
1780625224469372000,5.713371826171875,0.013864150270819664,0.9036251902580261,2.385122060775757
1780625224479401500,5.7234013671875,-0.013934191316366196,1.1367676258087158,3.0272178649902344
1780625224489430800,5.7334306640625,-0.11967500299215317,1.068031668663025,3.151064157485962
1780625224499459800,5.7434599609375,-0.3036200702190399,0.7364338040351868,2.8833861351013184
1780625224509489700,5.75348974609375,-0.4725086987018585,0.3496682643890381,2.293426275253296
1780625224519518700,5.763518798828125,-0.5686461329460144,0.00595642626285553,1.508101224899292
1780625224529547800,5.7735478515625,-0.48955637216567993,-0.4924355149269104,0.8701004981994629
1780625224539577600,5.78357763671875,-0.3009859323501587,-0.9112844467163086,0.5970575213432312
1780625224549607000,5.79360693359375,-0.12605300545692444,-0.986564040184021,0.47489434480667114
1780625224559635700,5.8036357421875,-0.02062911167740822,-0.7245877981185913,0.3179318904876709
1780625224569665800,5.813665771484375,0.011990349739789963,-0.30038008093833923,0.08010069280862808
1780625224579694800,5.82369482421875,-0.005783320404589176,0.06238241866230965,-0.16511784493923187
1780625224589723600,5.8337236328125,-0.035647209733724594,0.20096001029014587,-0.26798057556152344
1780625224599753700,5.843753662109375,-0.02599378302693367,0.20837929844856262,-0.11871732771396637
1780625224609782800,5.85378271484375,0.011847871355712414,0.2853798270225525,0.1248985230922699
1780625224619811800,5.863811767578125,0.07425132393836975,0.479314386844635,0.268982470035553
1780625224629842000,5.873842041015625,0.114027239382267,0.5899375677108765,0.35169705748558044
1780625224639870700,5.88387060546875,0.08235292881727219,0.6053242683410645,0.3952122926712036
1780625224649899800,5.893899658203125,0.04447558894753456,0.5699172616004944,0.39594173431396484
1780625224659929900,5.903929931640625,0.005197957623749971,0.4845408499240875,0.33314067125320435
1780625224669958700,5.913958740234375,-0.010172742418944836,0.41058459877967834,0.17383384704589844
1780625224679987700,5.92398779296875,-0.03807175159454346,0.25083914399147034,-0.032347287982702255
1780625224690017800,5.934017822265625,-0.080405093729496,-0.07471311837434769,-0.21182596683502197
1780625224700046800,5.944046875,-0.11779401451349258,-0.4695807993412018,-0.32144778966903687
1780625224710075600,5.95407568359375,-0.14823473989963531,-0.7928792238235474,-0.3899267315864563
1780625224720105700,5.964105712890625,-0.17410708963871002,-0.9686457514762878,-0.45551159977912903
1780625224730134800,5.974134765625,-0.20432916283607483,-1.0539840459823608,-0.5072240829467773
1780625224740163800,5.984163818359375,-0.23576991260051727,-1.11426842212677,-0.5403740406036377
1780625224750193700,5.994193603515625,-0.242437943816185,-1.1099627017974854,-0.5930563807487488
1780625224760222700,6.00422265625,-0.22579051554203033,-1.09910249710083,-0.6485220789909363
1780625224770251800,6.014251708984375,-0.16223444044589996,-1.0868504047393799,-0.700324296951294
1780625224780281900,6.02428173828125,-0.07221028208732605,-1.0226203203201294,-0.7469272017478943
1780625224790310700,6.034310546875,-0.015970977023243904,-0.9295843839645386,-0.7770938873291016
1780625224800339700,6.044339599609375,0.016023973003029823,-0.7250930070877075,-0.8192727565765381
1780625224810369800,6.054369873046875,-0.00944836251437664,-0.4812425374984741,-0.831538200378418
1780625224820398800,6.06439892578125,-0.07105313986539841,-0.23169633746147156,-0.8105077743530273
1780625224830427600,6.074427734375,-0.11700890958309174,0.030615966767072678,-0.7933905720710754
1780625224840457700,6.084457763671875,-0.13230504095554352,0.19792240858078003,-0.7664468288421631
1780625224850486800,6.09448681640625,-0.16395963728427887,0.23781175911426544,-0.7249888777732849
1780625224860515600,6.104515625,-0.20430625975131989,0.20074588060379028,-0.7188367247581482
1780625224870545700,6.114545654296875,-0.23759418725967407,0.0709194466471672,-0.6227309703826904
1780625224880574700,6.12457470703125,-0.24918904900550842,-0.13991902768611908,-0.4051416218280792
1780625224890603800,6.134603759765625,-0.21018119156360626,-0.28163087368011475,-0.14400990307331085
1780625224900633900,6.1446337890625,0.03821210190653801,0.23032055795192719,-0.21355435252189636
1780625224910662700,6.15466259765625,0.6626794338226318,0.7741439342498779,-0.9035154581069946
1780625224920691700,6.164691650390625,1.7442901134490967,0.8971987366676331,-1.799340009689331
1780625224930721800,6.1747216796875,2.568737268447876,1.0942503213882446,-2.0797064304351807
1780625224940750600,6.18475048828125,2.553244113922119,1.109337329864502,-2.000162124633789
1780625224950779600,6.194779541015625,1.6768980026245117,-0.018751850351691246,-1.5891907215118408
1780625224960809700,6.204809814453125,0.8474082946777344,-0.6873493790626526,-1.4581853151321411
1780625224970838800,6.2148388671875,0.3247506618499756,-0.4526550769805908,-1.516007423400879
1780625224980867600,6.22486767578125,0.04536028951406479,-0.1591409146785736,-1.4287116527557373
1780625224990897700,6.234897705078125,0.018976621329784393,-0.19008737802505493,-1.3307706117630005
1780625225000926700,6.2449267578125,0.11498064547777176,-0.31833723187446594,-1.3431605100631714
1780625225010955800,6.254955810546875,0.18925248086452484,-0.34248119592666626,-1.4246340990066528
1780625225020985600,6.264985595703125,0.2202197164297104,-0.3187284469604492,-1.4765419960021973
1780625225031014700,6.2750146484375,0.1992633044719696,-0.23116877675056458,-1.500542163848877
1780625225041043700,6.285043701171875,0.05324218422174454,-0.10061076283454895,-1.4963074922561646
1780625225051073800,6.29507373046875,-0.17567355930805206,-0.02003788948059082,-1.4432423114776611
1780625225061102600,6.3051025390625,-0.3756980001926422,0.023904001340270042,-1.34096360206604
1780625225071131600,6.315131591796875,-0.5599152445793152,0.03999295458197594,-1.1774152517318726
1780625225081161700,6.32516162109375,-0.7050409913063049,-0.040828123688697815,-0.9345652461051941
1780625225091190800,6.335190673828125,-0.7662303447723389,-0.2798825204372406,-0.6150022149085999
1780625225101219600,6.345219482421875,-0.7585591077804565,-0.5477176904678345,-0.24318788945674896
1780625225111249700,6.355249755859375,-0.7027773261070251,-0.769432783126831,0.15618054568767548
1780625225121278700,6.36527880859375,-0.6460099220275879,-0.8600574731826782,0.5566067695617676
1780625225131307500,6.3753076171875,-0.6131904125213623,-0.8781629800796509,0.8852328658103943
1780625225141337600,6.385337646484375,-0.6021364331245422,-0.8968048691749573,1.0974103212356567
1780625225151366700,6.39536669921875,-0.5888840556144714,-0.9293912649154663,1.267196536064148
1780625225161395700,6.405395751953125,-0.550895631313324,-0.9660773873329163,1.4378718137741089
1780625225171425500,6.415425537109375,-0.49093562364578247,-0.9714178442955017,1.5513341426849365
1780625225181454600,6.42545458984375,-0.40677815675735474,-0.8997998237609863,1.5717105865478516
1780625225191483600,6.435483642578125,-0.34879714250564575,-0.7826021313667297,1.478142499923706
1780625225201513700,6.445513671875,-0.2929077744483948,-0.6685695648193359,1.2805708646774292
1780625225211542500,6.45554248046875,-0.25353214144706726,-0.5307445526123047,1.040195345878601
1780625225221571600,6.465571533203125,-0.2433016002178192,-0.36280110478401184,0.7862269282341003
1780625225231601700,6.4756015625,-0.28282424807548523,-0.2551782429218292,0.5166066288948059
1780625225241630700,6.485630615234375,-0.382586270570755,-0.31200850009918213,0.1592855304479599
1780625225251659500,6.495659423828125,-0.4695022404193878,-0.46111008524894714,-0.27836504578590393
1780625225261689600,6.505689697265625,-0.48507988452911377,-0.562777578830719,-0.6498962640762329
1780625225271718700,6.51571875,-0.4191434681415558,-0.560384213924408,-0.7810377478599548
1780625225281747700,6.525747802734375,-0.2196175754070282,-0.4896259009838104,-0.5828618407249451
1780625225291777500,6.535777587890625,0.11115102469921112,-0.22173665463924408,-0.10199720412492752
1780625225301806600,6.545806640625,0.4496079087257385,0.19157688319683075,0.573828935623169
1780625225311835600,6.555835693359375,0.7930952310562134,0.6068989634513855,1.2646750211715698
1780625225321865700,6.56586572265625,1.1693156957626343,0.8826123476028442,1.8457788228988647
1780625225331895000,6.57589501953125,1.578928828239441,0.6007489562034607,1.969476580619812
1780625225341924000,6.585924072265625,1.7033368349075317,-0.9717819094657898,1.0578097105026245
1780625225351954200,6.5959541015625,1.0833334922790527,-1.6384153366088867,0.06993807107210159
1780625225361983000,6.60598291015625,0.2961016893386841,-0.7839672565460205,-0.5137125849723816
1780625225372012000,6.616011962890625,0.045884136110544205,0.3357582986354828,-0.767943263053894
1780625225382042000,6.6260419921875,0.13441453874111176,0.7695994973182678,-0.7121729254722595
1780625225392071200,6.6360712890625,0.25928109884262085,0.6418766975402832,-0.3878832757472992
1780625225402100000,6.646099853515625,0.3479260206222534,0.30631333589553833,0.15743756294250488
1780625225412130000,6.656130126953125,0.42675530910491943,-0.10188135504722595,0.7590376734733582
1780625225422159000,6.6661591796875,0.43273571133613586,-0.2551928758621216,1.2613455057144165
1780625225432188200,6.676188232421875,0.32664868235588074,-0.1171889379620552,1.5785990953445435
1780625225442218000,6.686218017578125,0.16571733355522156,0.08950404822826385,1.7744700908660889
1780625225452247000,6.6962470703125,0.0167896319180727,0.2996138632297516,1.8346785306930542
1780625225462276000,6.706276123046875,-0.05022775009274483,0.5066784024238586,1.710341215133667
1780625225472306200,6.71630615234375,-0.022217687219381332,0.5889924168586731,1.4290021657943726
1780625225482335000,6.7263349609375,0.020120181143283844,0.5170530080795288,1.0887465476989746
1780625225492364300,6.7363642578125,0.039745815098285675,0.42241835594177246,0.7632230520248413
1780625225502394000,6.74639404296875,0.10789930075407028,0.36757826805114746,0.4879172146320343
1780625225512423000,6.7564228515625,0.20838463306427002,0.3619438409805298,0.2970633804798126
1780625225522452200,6.7664521484375,0.2800276577472687,0.38358229398727417,0.17809756100177765
1780625225532482000,6.77648193359375,0.295207142829895,0.4311434030532837,0.12870311737060547
1780625225542511000,6.786510986328125,0.30292338132858276,0.5401516556739807,0.15332511067390442
1780625225552540200,6.7965400390625,0.2954343259334564,0.6869655847549438,0.21609607338905334
1780625225562569200,6.8065693359375,0.2676636576652527,0.8162477016448975,0.29461485147476196
1780625225572599300,6.816599365234375,0.24502865970134735,0.8776457905769348,0.3700089454650879
1780625225582628400,6.82662841796875,0.222843199968338,0.8545524477958679,0.42029741406440735
1780625225592657200,6.8366572265625,0.20492544770240784,0.7853917479515076,0.4629599153995514
1780625225602687200,6.846687255859375,0.2009730488061905,0.716167688369751,0.4906221926212311
1780625225612716300,6.85671630859375,0.2256765365600586,0.6714540123939514,0.49893710017204285
1780625225622745300,6.866745361328125,0.2650793492794037,0.6685945987701416,0.48744556307792664
1780625225632775200,6.876775146484375,0.28100478649139404,0.7014244198799133,0.4371613562107086
1780625225642804200,6.88680419921875,0.2856709063053131,0.7339573502540588,0.37931057810783386
1780625225652833300,6.896833251953125,0.2807389795780182,0.7887228727340698,0.3052866756916046
1780625225662863400,6.90686328125,0.2628673017024994,0.8518408536911011,0.24313248693943024
1780625225672892200,6.91689208984375,0.24900396168231964,0.8963478207588196,0.20630070567131042
1780625225682921200,6.926921142578125,0.25847575068473816,0.9260460734367371,0.2100754678249359
1780625225692951300,6.936951416015625,0.2881561517715454,0.9581795334815979,0.2354162484407425
1780625225702980000,6.94697998046875,0.29574695229530334,0.9522598385810852,0.2833384871482849
1780625225713009200,6.957009033203125,0.29254212975502014,0.9609215259552002,0.3429296612739563
1780625225723039200,6.967039306640625,0.30866995453834534,0.9722335338592529,0.3505479097366333
1780625225733068300,6.977068359375,0.3251168429851532,0.965567409992218,0.32142409682273865
1780625225743097000,6.98709716796875,0.3228438198566437,0.9654118418693542,0.27342167496681213
1780625225753127200,6.997127197265625,0.3213021159172058,0.9779961109161377,0.22117872536182404
1780625225763156200,7.00715625,0.309404194355011,1.054639458656311,0.20713001489639282
1780625225773185300,7.017185302734375,0.2989712655544281,1.1480796337127686,0.24149838089942932
1780625225783215000,7.027215087890625,0.2920944392681122,1.1871943473815918,0.29164251685142517
1780625225793244200,7.037244140625,0.28937456011772156,1.1456375122070312,0.3312724828720093
1780625225803273200,7.047273193359375,0.3067367672920227,1.0625418424606323,0.3408915400505066
1780625225813303300,7.05730322265625,0.3145661950111389,0.9928749203681946,0.32936352491378784
1780625225823332000,7.06733203125,0.30769363045692444,0.9772517681121826,0.3006487786769867
1780625225833361200,7.077361083984375,0.28568127751350403,0.9927459955215454,0.2631725072860718
1780625225843391200,7.08739111328125,0.2897375524044037,0.9857760071754456,0.2132134735584259
1780625225853420300,7.097420166015625,0.31657981872558594,0.9951369762420654,0.13810060918331146
1780625225863449000,7.107448974609375,0.3051135838031769,1.0912024974822998,0.0727200135588646
1780625225873479200,7.117479248046875,0.28204500675201416,1.2681463956832886,0.04734780639410019
1780625225883508200,7.12750830078125,0.2675875127315521,1.4113438129425049,0.07467184215784073
1780625225893537000,7.137537109375,0.27449920773506165,1.4832276105880737,0.11090654134750366
1780625225903567000,7.147567138671875,0.27480387687683105,1.4594324827194214,0.13959358632564545
1780625225913596200,7.15759619140625,0.26596829295158386,1.3859548568725586,0.1422058790922165
1780625225923625200,7.167625244140625,0.25694525241851807,1.3436702489852905,0.12522423267364502
1780625225933655300,7.1776552734375,0.23934388160705566,1.3439937829971313,0.07140333950519562
1780625225943684000,7.18768408203125,0.20771591365337372,1.388687252998352,-0.002772350562736392
1780625225953713200,7.197713134765625,0.17358776926994324,1.475006103515625,-0.03990320861339569
1780625225963743200,7.2077431640625,0.15671370923519135,1.5052393674850464,-0.019825635477900505
1780625225973772000,7.21777197265625,0.13132047653198242,1.3454787731170654,0.008655806072056293
1780625225983801000,7.227801025390625,0.06945204734802246,0.9775124788284302,-0.00965875294059515
1780625225993831200,7.2378310546875,0.024218253791332245,0.6432146430015564,-0.09483383595943451
1780625226003860200,7.247860107421875,0.03425757214426994,0.6849967241287231,-0.24024242162704468
1780625226013889000,7.257888916015625,0.07571286708116531,0.9019237160682678,-0.3683657646179199
1780625226023919000,7.267919189453125,0.12462741881608963,0.9102311730384827,-0.39441201090812683
1780625226033948200,7.2779482421875,0.156851127743721,0.7293606996536255,-0.3364392817020416
1780625226043977200,7.287977294921875,0.16686861217021942,0.5480732321739197,-0.24467526376247406
1780625226054007000,7.298007080078125,0.18130028247833252,0.4671778380870819,-0.1680169701576233
1780625226064036000,7.3080361328125,0.15873825550079346,0.5196687579154968,-0.12733770906925201
1780625226074065200,7.318065185546875,0.12364231050014496,0.6582769751548767,-0.08518174290657043
1780625226084095200,7.32809521484375,0.1359567642211914,0.8215905427932739,-0.03880571946501732
1780625226094124000,7.3381240234375,0.1720290184020996,0.9788948893547058,-0.0014498248929157853
1780625226104153000,7.348153076171875,0.18911851942539215,1.094841718673706,0.050637345761060715
1780625226114183200,7.35818310546875,0.20392942428588867,1.1754136085510254,0.11381551623344421
1780625226124212200,7.368212158203125,0.2095918357372284,1.1619927883148193,0.21064512431621552
1780625226134241000,7.378240966796875,0.20627620816230774,1.0933877229690552,0.3114857077598572
1780625226144271000,7.38827099609375,0.18717041611671448,0.9840140342712402,0.3777022957801819
1780625226154300200,7.398300048828125,0.13818423449993134,0.8497313261032104,0.4114551842212677
1780625226164329000,7.408328857421875,0.08606324344873428,0.7550336122512817,0.38422834873199463
1780625226174359000,7.418359130859375,0.03315848484635353,0.7322382926940918,0.29803887009620667
1780625226184388000,7.42838818359375,-0.014191718772053719,0.7317189574241638,0.20177866518497467
1780625226194417200,7.438417236328125,-0.040220655500888824,0.7508670687675476,0.1259392946958542
1780625226204447200,7.448447265625,-0.03592417761683464,0.7623897790908813,0.09460373967885971
1780625226214476000,7.45847607421875,-0.00791518110781908,0.777741014957428,0.09978704899549484
1780625226224505000,7.468505126953125,0.023208383470773697,0.7887169718742371,0.14072276651859283
1780625226234535200,7.47853515625,0.04463484510779381,0.7867640852928162,0.20927491784095764
1780625226244564000,7.48856396484375,0.055277369916439056,0.733276903629303,0.28122103214263916
1780625226254593000,7.498593017578125,0.05421263724565506,0.6694582104682922,0.33262720704078674
1780625226264623000,7.508623046875,0.03573349490761757,0.624424159526825,0.36432868242263794
1780625226274652200,7.518652099609375,0.030891869217157364,0.5966559648513794,0.37505829334259033
1780625226284681000,7.528680908203125,0.04614192992448807,0.5654785633087158,0.37019404768943787
1780625226294711000,7.5387109375,0.07624629884958267,0.5284912586212158,0.3401820659637451
1780625226304740000,7.548739990234375,0.09997213631868362,0.48652490973472595,0.295619934797287
1780625226314769200,7.55876904296875,0.11178645491600037,0.4444080889225006,0.2312697023153305
1780625226324798500,7.568798583984375,0.11061040312051773,0.4051480293273926,0.15374454855918884
1780625226334827800,7.578827880859375,0.10136843472719193,0.34629350900650024,0.07234130799770355
1780625226344856600,7.588856689453125,0.09052936732769012,0.24977467954158783,-0.0016160061350092292
1780625226354886700,7.59888671875,0.07510033994913101,0.13222914934158325,-0.06345807015895844
1780625226364915700,7.608915771484375,0.03544321283698082,0.022537266835570335,-0.08596337586641312
1780625226374944800,7.61894482421875,-0.01314935740083456,-0.039078425616025925,-0.05451410636305809
1780625226384974600,7.628974609375,-0.03939827159047127,-0.017945976927876472,0.021134579554200172
1780625226395003600,7.639003662109375,-0.05052629113197327,0.05308452248573303,0.11275291442871094
1780625226405032700,7.64903271484375,-0.05624436214566231,0.12443380057811737,0.20255950093269348
1780625226415062800,7.659062744140625,-0.05908702313899994,0.1634877324104309,0.2765551507472992
1780625226425091600,7.669091552734375,-0.06616676598787308,0.16124828159809113,0.32524120807647705
1780625226435120600,7.67912060546875,-0.06945151090621948,0.13436633348464966,0.33852213621139526
1780625226445149700,7.689149658203125,-0.0676373690366745,0.07680024206638336,0.3231264054775238
1780625226455179800,7.6991796875,-0.0494767390191555,-0.004655738361179829,0.2751159965991974
1780625226465208600,7.70920849609375,-0.024020913988351822,-0.09161380678415298,0.2042870968580246
1780625226475237600,7.719237548828125,0.0036876790691167116,-0.1501207947731018,0.1266881674528122
1780625226485267700,7.729267822265625,0.01703357882797718,-0.19191990792751312,0.06150330975651741
1780625226495296500,7.739296630859375,0.03190973028540611,-0.22938525676727295,0.013101953081786633
1780625226505325600,7.74932568359375,0.038349252194166183,-0.24504651129245758,-0.01786448433995247
1780625226515355600,7.759355712890625,0.052086636424064636,-0.23302632570266724,-0.04098125547170639
1780625226525384700,7.769384765625,0.060501959174871445,-0.21693870425224304,-0.06398617476224899
1780625226535413500,7.77941357421875,0.06564958393573761,-0.20887598395347595,-0.0888955146074295
1780625226545443600,7.789443603515625,0.0630255714058876,-0.20126280188560486,-0.10904473066329956
1780625226555472600,7.79947265625,0.04996010288596153,-0.18813900649547577,-0.13724388182163239
1780625226565501700,7.809501708984375,0.02389308251440525,-0.18657387793064117,-0.1735028177499771
1780625226575531500,7.819531494140625,-0.0017544905422255397,-0.21184514462947845,-0.22329939901828766
1780625226585560600,7.829560546875,-0.028012193739414215,-0.23864586651325226,-0.2903817594051361
1780625226595589600,7.839589599609375,-0.048172589391469955,-0.2680591344833374,-0.35398417711257935
1780625226605619700,7.84961962890625,-0.08365868031978607,-0.28216564655303955,-0.3866529166698456
1780625226615648500,7.8596484375,-0.11385386437177658,-0.2606009542942047,-0.3774554133415222
1780625226625677600,7.869677490234375,-0.1390734612941742,-0.24302436411380768,-0.31097304821014404
1780625226635707600,7.879707763671875,-0.1522236168384552,-0.21915099024772644,-0.2285626083612442
1780625226645736400,7.889736328125,-0.15235304832458496,-0.18259164690971375,-0.18022969365119934
1780625226655765500,7.899765625,-0.139068141579628,-0.1439334750175476,-0.18131865561008453
1780625226665795600,7.909795654296875,-0.10207337141036987,-0.12300688028335571,-0.2235390841960907
1780625226675824600,7.91982470703125,-0.049362488090991974,-0.1401403248310089,-0.29268431663513184
1780625226685853400,7.929853515625,-0.004001665860414505,-0.15322177112102509,-0.39062580466270447
1780625226695883500,7.939883544921875,0.019298329949378967,-0.1608930081129074,-0.5165848135948181
1780625226705912600,7.94991259765625,0.017344634979963303,-0.15487080812454224,-0.6720284819602966
1780625226715941600,7.959941650390625,0.006067213602364063,-0.1374441385269165,-0.8348211050033569
1780625226725971500,7.969971435546875,-0.008353803306818008,-0.08952935039997101,-0.9752376079559326
1780625226736000500,7.98000048828125,-0.009133310988545418,-0.04037458822131157,-1.094452977180481
1780625226746029600,7.990029541015625,-0.006854710169136524,-0.048952363431453705,-1.1750465631484985
1780625226756059600,8.0000595703125,-0.007713579572737217,-0.12975214421749115,-1.2287298440933228
1780625226766088400,8.01008837890625,0.008328770287334919,-0.21129439771175385,-1.2682141065597534
1780625226776117500,8.020117431640625,0.020871460437774658,-0.3175284266471863,-1.2584834098815918
1780625226786147600,8.030147705078125,0.006488259416073561,-0.4371837079524994,-1.1661078929901123
1780625226796176600,8.0401767578125,-0.049679405987262726,-0.5161547064781189,-1.0093090534210205
1780625226806205400,8.050205322265626,-0.10488221049308777,-0.46730539202690125,-0.83138108253479
1780625226816235500,8.060235595703125,-0.17100369930267334,-0.32425931096076965,-0.555895209312439
1780625226826264600,8.0702646484375,-0.222490593791008,-0.12407854199409485,-0.1902756690979004
1780625226836293400,8.08029345703125,-0.21497009694576263,0.03912955895066261,0.16763080656528473
1780625226846323500,8.090323486328124,-0.17158906161785126,0.10227151215076447,0.4579486548900604
1780625226856352500,8.1003525390625,-0.1262383610010147,0.057424675673246384,0.6803044676780701
1780625226866381600,8.110381591796875,-0.10079319030046463,-0.040833450853824615,0.8455469608306885
1780625226876411600,8.12041162109375,-0.11300777643918991,-0.15638375282287598,0.9778690934181213
1780625226886440400,8.1304404296875,-0.14006495475769043,-0.2397417575120926,1.0755431652069092
1780625226896469500,8.140469482421874,-0.18264012038707733,-0.2709715664386749,1.1482343673706055
1780625226906499600,8.15049951171875,-0.22218991816043854,-0.29673871397972107,1.2067821025848389
1780625226916528400,8.1605283203125,-0.23624849319458008,-0.3420223295688629,1.2493250370025635
1780625226926557400,8.170557373046876,-0.22685924172401428,-0.40599384903907776,1.2550548315048218
1780625226936587500,8.18058740234375,-0.22095927596092224,-0.49399322271347046,1.2181456089019775
1780625226946616600,8.190616455078125,-0.21720795333385468,-0.5666261315345764,1.109458565711975
1780625226956645400,8.200645263671875,-0.20762589573860168,-0.5695167183876038,0.9169362187385559
1780625226966675500,8.210675537109376,-0.2254781275987625,-0.5597788691520691,0.7003871202468872
1780625226976704500,8.22070458984375,-0.2501105070114136,-0.5658865571022034,0.4933314025402069
1780625226986733600,8.230733642578125,-0.28347912430763245,-0.5550970435142517,0.30454763770103455
1780625226996763400,8.240763427734375,-0.28497394919395447,-0.52041095495224,0.14652445912361145
1780625227006792400,8.25079248046875,-0.26551583409309387,-0.5097388625144958,0.0604763925075531
1780625227016821500,8.260821533203124,-0.22446373105049133,-0.6145592927932739,0.04736458510160446
1780625227026851600,8.2708515625,-0.16719910502433777,-0.703763484954834,0.0547063872218132
1780625227036880400,8.28088037109375,-0.14564667642116547,-0.6822784543037415,0.014055098406970501
1780625227046909700,8.29090966796875,-0.15707510709762573,-0.7129703164100647,-0.16122403740882874
1780625227056939500,8.300939453125,-0.26299673318862915,-0.992330014705658,-0.4959578216075897
1780625227066968600,8.310968505859375,-0.3869501054286957,-1.2895337343215942,-0.8590481281280518
1780625227076997600,8.32099755859375,-0.48203161358833313,-1.2679523229599,-0.926712691783905
1780625227087026700,8.331026611328125,-0.5770116448402405,-0.9988182783126831,-0.6263307332992554
1780625227097056500,8.341056396484374,-0.629787266254425,-0.6560156941413879,-0.17791007459163666
1780625227107085600,8.35108544921875,-0.6363751292228699,-0.3682078421115875,0.2354881465435028
1780625227117114600,8.361114501953125,-0.5982373356819153,-0.14441603422164917,0.4993347227573395
1780625227127144400,8.37114453125,-0.5400224924087524,0.053531400859355927,0.6000807881355286
1780625227137173800,8.381173828125,-0.5027749538421631,0.1363554447889328,0.6109222173690796
1780625227147202600,8.39120263671875,-0.43828120827674866,0.04271577298641205,0.5611304044723511
1780625227157232600,8.401232666015625,-0.38211753964424133,-0.11817377805709839,0.4407624900341034
1780625227167261700,8.41126171875,-0.32415464520454407,-0.2286084145307541,0.27032601833343506
1780625227177290800,8.421290771484376,-0.3036794662475586,-0.25931811332702637,0.11940549314022064
1780625227187320600,8.431320556640625,-0.30402621626853943,-0.2597929537296295,0.032827720046043396
1780625227197349600,8.441349609375,-0.30044931173324585,-0.2702866196632385,-0.01203855313360691
1780625227207378700,8.451378662109375,-0.2825302183628082,-0.27601295709609985,-0.052913814783096313
1780625227217408800,8.46140869140625,-0.2924931049346924,-0.24569445848464966,-0.08117767423391342
1780625227227437600,8.4714375,-0.3015792965888977,-0.19524352252483368,-0.08331779390573502
1780625227237466600,8.481466552734375,-0.31123271584510803,-0.1393919736146927,-0.0643390417098999
1780625227247496700,8.49149658203125,-0.31985923647880554,-0.05509867146611214,-0.019954532384872437
1780625227257525800,8.50152587890625,-0.3352712094783783,0.042519498616456985,0.047313984483480453
1780625227267554600,8.511554443359374,-0.33873996138572693,0.12374591082334518,0.1091214269399643
1780625227277584600,8.521584716796875,-0.3309185206890106,0.13910941779613495,0.148724764585495
1780625227287613700,8.53161376953125,-0.30212870240211487,0.0824115201830864,0.15630865097045898
1780625227297642500,8.541642578125,-0.26717445254325867,-0.015386945568025112,0.13169145584106445
1780625227307672600,8.551672607421875,-0.23067235946655273,-0.11645177751779556,0.10124113410711288
1780625227317701600,8.56170166015625,-0.20012670755386353,-0.19361980259418488,0.06296777725219727
1780625227327731700,8.571731689453125,-0.17068439722061157,-0.23778513073921204,0.028550950810313225
1780625227337761500,8.581761474609374,-0.14386795461177826,-0.23606713116168976,0.0008346347021870315
1780625227347790600,8.59179052734375,-0.12675128877162933,-0.23011043667793274,-0.007758320774883032
1780625227357819600,8.601819580078125,-0.11228659749031067,-0.2270752340555191,0.014345649629831314
1780625227367849500,8.611849365234375,-0.10796934366226196,-0.181637704372406,0.03633031249046326
1780625227377878800,8.621878662109374,-0.11157659441232681,-0.21020756661891937,0.07133836299180984
1780625227387907600,8.631907470703124,-0.1039450392127037,-0.25444239377975464,0.10202010720968246
1780625227397937700,8.641937744140625,-0.09866612404584885,-0.2810567021369934,0.11601102352142334
1780625227407966700,8.651966796875,-0.09441864490509033,-0.24720366299152374,0.10469552129507065
1780625227417995800,8.661995849609376,-0.09249983727931976,-0.2100384533405304,0.07057510316371918
1780625227428025600,8.672025634765625,-0.09465726464986801,-0.22632980346679688,0.054596398025751114
1780625227438054700,8.6820546875,-0.08754289895296097,-0.23335549235343933,0.04324201121926308
1780625227448083700,8.692083740234375,-0.06716731935739517,-0.22302882373332977,0.036617930978536606
1780625227458113800,8.70211376953125,-0.0410960391163826,-0.19320274889469147,0.03118135593831539
1780625227468142600,8.712142578125,-0.023198263719677925,-0.18241508305072784,0.043603137135505676
1780625227478171600,8.722171630859375,-0.024215590208768845,-0.176352396607399,0.057126667350530624
1780625227488201700,8.73220166015625,-0.027476098388433456,-0.1811540722846985,0.06136295944452286
1780625227498230500,8.74223046875,-0.03402135148644447,-0.1754719614982605,0.06542268395423889
1780625227508259600,8.752259521484374,-0.054370831698179245,-0.14443068206310272,0.06500323116779327
1780625227518289700,8.76228955078125,-0.05951526015996933,-0.10924632847309113,0.046312637627124786
1780625227528318700,8.772318603515625,-0.054963916540145874,-0.11362403631210327,0.031921979039907455
1780625227538347500,8.782347412109376,-0.04753715917468071,-0.11471912264823914,0.027167705819010735
1780625227548377600,8.792377685546874,-0.04157247766852379,-0.1008288785815239,0.03297898918390274
1780625227558406700,8.80240673828125,-0.032707080245018005,-0.10259561985731125,0.051045872271060944
1780625227568435700,8.812435791015625,-0.025742381811141968,-0.11551967263221741,0.0693974494934082
1780625227578465500,8.822465576171876,-0.02167147397994995,-0.11921960115432739,0.07761596143245697
1780625227588494600,8.83249462890625,-0.015792811289429665,-0.10294875502586365,0.07747428864240646
1780625227598523600,8.842523681640625,-0.010969560593366623,-0.0804080218076706,0.07429500669240952
1780625227608552400,8.852552490234375,-0.00788561999797821,-0.0800815224647522,0.08129565417766571
1780625227618582500,8.86258251953125,-0.005815810989588499,-0.08881748467683792,0.08506403118371964
1780625227628611600,8.872611572265624,-0.008183893747627735,-0.08212469518184662,0.07763087749481201
1780625227638640600,8.882640625,-0.011409780941903591,-0.07856431603431702,0.06107906624674797
1780625227648670700,8.892670654296875,-0.011692342348396778,-0.0756998211145401,0.0510123185813427
1780625227658699500,8.902699462890626,-0.02075907401740551,-0.058640409260988235,0.04109896719455719
1780625227668728600,8.912728515625,-0.026195917278528214,-0.03780943155288696,0.033464215695858
1780625227678758700,8.922758544921875,-0.02478550747036934,-0.04742290824651718,0.03021329641342163
1780625227688787500,8.932787353515625,-0.021932728588581085,-0.06016560271382332,0.032996565103530884
1780625227698816500,8.94281640625,-0.020108995959162712,-0.04982667788863182,0.045467883348464966
1780625227708846600,8.9528466796875,-0.009706422686576843,-0.02177826687693596,0.06601283699274063
1780625227718875600,8.962875732421875,-0.006509298458695412,0.002754773711785674,0.08603820949792862
1780625227728904400,8.972904541015625,-0.00686136819422245,0.015033544041216373,0.09186308085918427
1780625227738934500,8.9829345703125,-0.003174221608787775,0.006941529456526041,0.07602472603321075
1780625227748963600,8.992963623046874,-0.006816893350332975,-0.006150304339826107,0.059355735778808594
1780625227758992600,9.00299267578125,-0.008636897429823875,-0.01733584702014923,0.04446520283818245
1780625227769022500,9.0130224609375,-0.008859005756676197,-0.02490668185055256,0.03141358122229576
1780625227779051500,9.023051513671875,-0.012492622248828411,-0.0392235703766346,0.024769794195890427
1780625227789080600,9.03308056640625,-0.01726527325809002,-0.04932760074734688,0.018620289862155914
1780625227799110700,9.043110595703125,-0.018410699442029,-0.06737478077411652,0.027696609497070312
1780625227809139500,9.053139404296875,-0.015422631986439228,-0.07200681418180466,0.035540152341127396
1780625227819168500,9.06316845703125,-0.02046586014330387,-0.04753183200955391,0.033540915697813034
1780625227829198600,9.073198486328126,-0.02863643877208233,-0.030336866155266762,0.03714790195226669
1780625227839227600,9.0832275390625,-0.02977573871612549,-0.01944613642990589,0.034035731106996536
1780625227849256400,9.09325634765625,-0.028659075498580933,0.0005038700764998794,0.02468057908117771
1780625227859286500,9.10328662109375,-0.02460521087050438,0.0035835495218634605,0.017014402896165848
1780625227869315600,9.113315673828126,-0.02461852692067623,0.004113784991204739,0.017117999494075775
1780625227879344400,9.123344482421874,-0.023262977600097656,-0.004820321686565876,0.018437596037983894
1780625227889374500,9.13337451171875,-0.02654026448726654,-0.006357764359563589,0.026611104607582092
1780625227899403500,9.143403564453125,-0.030370421707630157,0.0011179950088262558,0.03952237591147423
1780625227909432600,9.1534326171875,-0.03335129842162132,0.011119229719042778,0.05319903790950775
1780625227919462700,9.163462646484374,-0.034759312868118286,0.007737548090517521,0.06000714376568794
1780625227929491500,9.173491455078125,-0.03562270849943161,-0.009139702655375004,0.056047823280096054
1780625227939520500,9.1835205078125,-0.029461752623319626,-0.03823340684175491,0.03187750652432442
1780625227949550600,9.193550537109376,-0.03219974786043167,-0.05764971300959587,0.0015675366157665849
1780625227959579400,9.203579345703124,-0.03311081603169441,-0.054492801427841187,-0.013643640093505383
1780625227969608400,9.2136083984375,-0.035466380417346954,-0.033602967858314514,-0.00806165486574173
1780625227979638500,9.223638427734375,-0.03726428002119064,-0.0021411816123872995,0.0005675196298398077
1780625227989667600,9.23366748046875,-0.05096304789185524,0.020184097811579704,0.0016351809026673436
1780625227999696400,9.2436962890625,-0.06208733841776848,0.02967134304344654,-0.006284261122345924
1780625228009726500,9.2537265625,-0.0686618834733963,0.015309447422623634,-0.014562164433300495
1780625228019755500,9.263755615234375,-0.07345876842737198,-0.015723302960395813,-0.034754518419504166
1780625228029784600,9.27378466796875,-0.07178497314453125,-0.06451214849948883,-0.04788896068930626
1780625228039814400,9.283814453125,-0.06859290599822998,-0.09141353517770767,-0.041187915951013565
1780625228049843500,9.293843505859375,-0.06607302278280258,-0.05838128551840782,-0.02063710056245327
1780625228059872500,9.30387255859375,-0.05548589676618576,-0.026224680244922638,0.011353322304785252
1780625228069902600,9.313902587890626,-0.05329384654760361,-0.005885053426027298,0.020065853372216225
1780625228079931400,9.323931396484374,-0.06280772387981415,0.01678697019815445,0.0032629049383103848
1780625228089960400,9.33396044921875,-0.06426554173231125,0.01859978400170803,-0.01101323589682579
1780625228099990500,9.343990478515625,-0.06149105727672577,0.017078319564461708,-0.008963667787611485
1780625228110019600,9.35401953125,-0.06974738836288452,0.02606196142733097,0.005745237227529287
1780625228120048600,9.364048583984374,-0.08061175793409348,0.019289275631308556,0.02677036076784134
1780625228130077700,9.37407763671875,-0.09607300162315369,0.014738199301064014,0.040764208883047104
1780625228140107500,9.384107421875,-0.11184024810791016,0.0086001455783844,0.038174282759428024
1780625228150136600,9.394136474609375,-0.12494459748268127,0.0016594156622886658,0.027836691588163376
1780625228160165600,9.40416552734375,-0.1193021610379219,-0.019160645082592964,0.01840617135167122
1780625228170195500,9.414195556640625,-0.10118786990642548,-0.038779351860284805,0.011668373830616474
1780625228180224800,9.424224853515625,-0.08286905288696289,-0.038290929049253464,0.01537549402564764
1780625228190253600,9.434253662109375,-0.06448844820261002,-0.03894153982400894,0.01594887301325798
1780625228200283600,9.44428369140625,-0.06744641810655594,-0.0344754196703434,-0.006615824531763792
1780625228210312700,9.454312744140625,-0.07978218048810959,-0.0309296865016222,-0.018617892637848854
1780625228220341800,9.464341796875,-0.09356936812400818,-0.023687219247221947,0.005055478774011135
1780625228230371600,9.47437158203125,-0.0983223095536232,0.0013957626651972532,0.031329426914453506
1780625228240400600,9.484400634765626,-0.09818276017904282,0.01648044027388096,0.05224110186100006
1780625228250429700,9.4944296875,-0.09986241161823273,0.027890753000974655,0.05266880244016647
1780625228260459800,9.504459716796875,-0.10259854793548584,0.030732080340385437,0.03910825401544571
1780625228270488600,9.514488525390625,-0.09693879634141922,-0.0007507451227866113,0.02738821506500244
1780625228280517600,9.524517578125,-0.08940710872411728,-0.03840437904000282,0.01649162545800209
1780625228290547700,9.534547607421874,-0.08357984572649002,-0.06280532479286194,0.00086872314568609
1780625228300576800,9.54457666015625,-0.07639677077531815,-0.07207712531089783,-0.004319114610552788
1780625228310605600,9.55460546875,-0.07482284307479858,-0.057379934936761856,-0.002910036128014326
1780625228320635600,9.5646357421875,-0.06968214362859726,-0.035838689655065536,-0.003953462466597557
1780625228330664700,9.574664794921874,-0.07395891100168228,-0.002817358123138547,-0.015971509739756584
1780625228340693800,9.58469384765625,-0.07442896068096161,0.013588513247668743,-0.0257469080388546
1780625228350723800,9.594723876953125,-0.08724648505449295,0.017979266121983528,-0.025595907121896744
1780625228360752600,9.604752685546876,-0.08016887307167053,0.02021072991192341,-0.010028932243585587
1780625228370781700,9.61478173828125,-0.07370990514755249,0.01164760161191225,0.02593918889760971
1780625228380811800,9.624811767578125,-0.07689691334962845,0.030773358419537544,0.058031611144542694
1780625228390840800,9.6348408203125,-0.07137298583984375,0.04493498429656029,0.07536053657531738
1780625228400869600,9.64486962890625,-0.07340231537818909,0.05011057108640671,0.07368354499340057
1780625228410899700,9.654899658203124,-0.07736456394195557,0.01996758207678795,0.053593188524246216
1780625228420928800,9.6649287109375,-0.08919166028499603,-0.004078631289303303,0.009430785663425922
1780625228430957800,9.674957763671875,-0.10479618608951569,-0.05040485039353371,-0.03464346379041672
1780625228440987600,9.684987548828126,-0.09910581260919571,-0.0865655168890953,-0.05246693640947342
1780625228451016700,9.6950166015625,-0.0934457927942276,-0.08674953877925873,-0.03551778197288513
1780625228461045800,9.705045654296875,-0.07434826344251633,-0.06658461689949036,-0.03298671171069145
1780625228471075800,9.715075927734375,-0.06998947262763977,-0.07317327708005905,-0.03593003749847412
1780625228481104600,9.725104736328126,-0.08066421747207642,-0.07246647775173187,-0.044969603419303894
1780625228491133700,9.7351337890625,-0.07983997464179993,-0.0839521586894989,-0.049431730061769485
1780625228501163800,9.745163818359375,-0.08352818340063095,-0.08635779470205307,-0.038608111441135406
1780625228511192800,9.75519287109375,-0.08466455340385437,-0.07271788269281387,-0.025708826258778572
1780625228521221600,9.7652216796875,-0.09123989939689636,-0.07431870698928833,-0.006588394287973642
1780625228531250700,9.775250732421876,-0.09433555603027344,-0.056419335305690765,0.008446482010185719
1780625228541280800,9.78528076171875,-0.09849061816930771,-0.031027425080537796,0.029266541823744774
1780625228551309600,9.7953095703125,-0.1047743484377861,-0.0020596887916326523,0.03236672654747963
1780625228561338600,9.805338623046875,-0.10099638998508453,0.013217534869909286,0.016711601987481117
1780625228571368700,9.81536865234375,-0.10425316542387009,0.0003888215287588537,0.008481369353830814
1780625228581397800,9.825397705078124,-0.10187629610300064,-0.011570636183023453,0.009096026420593262
1780625228591426600,9.835426513671875,-0.10308776795864105,-0.038228876888751984,0.01432354561984539
1780625228601456600,9.84545654296875,-0.10366860777139664,-0.04110722243785858,0.0026024410035461187
1780625228611485700,9.855485595703126,-0.10045284032821655,-0.04739361256361008,-0.014643923379480839
1780625228621514800,9.8655146484375,-0.09655743092298508,-0.06418164819478989,-0.022295452654361725
1780625228631544600,9.875544677734375,-0.09859048575162888,-0.07015165686607361,-0.004677576012909412
1780625228641573600,9.88557373046875,-0.09502078592777252,-0.06738276779651642,0.019107114523649216
1780625228651602700,9.895602783203126,-0.09929010272026062,-0.059472646564245224,0.0224485844373703
1780625228661632800,9.9056328125,-0.10755015909671783,-0.05768246948719025,0.009582053869962692
1780625228671661600,9.91566162109375,-0.1139710396528244,-0.05681907385587692,-0.007682420779019594
1780625228681690600,9.925690673828125,-0.11593326181173325,-0.05505339801311493,-0.018504176288843155
1780625228691720700,9.935720703125,-0.11284239590167999,-0.03371348977088928,-0.023996146395802498
1780625228701749800,9.945749755859374,-0.10386967658996582,-0.005995308049023151,-0.0267780851572752
1780625228711778600,9.955778564453125,-0.08982869237661362,0.021815016865730286,-0.023509586229920387
1780625228721808600,9.96580859375,-0.07286328822374344,0.005260808393359184,-0.007223558146506548
1780625228731837700,9.975837646484376,-0.05338359624147415,-0.01877741515636444,0.01636698842048645
1780625228741866500,9.985866455078124,-0.05024346336722374,-0.002769687445834279,0.019952137023210526
1780625228751896600,9.995896484375,-0.05362594500184059,0.021250693127512932,0.012946425005793571
1780625228761925600,10.005925537109375,-0.054490137845277786,0.03598596528172493,0.013074789196252823
1780625228771954700,10.01595458984375,-0.04260125756263733,0.004866394214332104,0.02869928814470768
1780625228781984800,10.02598486328125,-0.05035797879099846,0.009423329494893551,0.03338272497057915
1780625228792013600,10.036013671875,-0.06197575107216835,0.0005882922559976578,0.026321087032556534
1780625228802042600,10.046042724609375,-0.06132913753390312,-0.023129021748900414,0.01489426102489233
1780625228812072700,10.05607275390625,-0.05951099842786789,-0.02490135468542576,0.00532525684684515
1780625228822101500,10.0661015625,-0.050760116428136826,-0.0224459208548069,-0.007894674316048622
1780625228832130600,10.076130615234375,-0.04148352891206741,-0.03410311043262482,-0.010576478205621243
1780625228842160600,10.08616064453125,-0.02919064275920391,-0.04186275973916054,-0.004473578184843063
1780625228852189700,10.096189697265626,-0.024046747013926506,-0.027787955477833748,-0.0026844663079828024
1780625228862218500,10.106218505859376,-0.017943313345313072,-0.014476411044597626,0.003968376200646162
1780625228872248600,10.11624853515625,-0.01053573191165924,0.00019734023953787982,0.0036072516813874245
1780625228882277600,10.126277587890625,-0.004201136529445648,-0.009044361300766468,0.007245928514748812
1780625228892306700,10.136306640625,-0.002871153876185417,-0.013920342549681664,0.01805836334824562
1780625228902336500,10.14633642578125,-0.004518851637840271,-0.008053132332861423,0.020167851820588112
1780625228912365600,10.156365478515625,-0.00863476749509573,-0.01949087716639042,0.013339507393538952
1780625228922395000,10.166394775390625,-0.00845660176128149,-0.031494274735450745,0.017101489007472992
1780625228932424700,10.1764248046875,-0.006435262504965067,-0.029043635353446007,0.023358052596449852
1780625228942453500,10.18645361328125,-0.001249555149115622,-0.021405689418315887,0.01835690252482891
1780625228952482800,10.19648291015625,0.002475142013281584,-0.0226826760917902,0.006789728999137878
1780625228962512600,10.2065126953125,0.004568919073790312,-0.02906520664691925,0.006572681479156017
1780625228972541700,10.216541748046875,-0.002148372121155262,-0.009748234413564205,-0.0006444850005209446
1780625228982570800,10.22657080078125,-0.011392470449209213,-0.015422365628182888,-0.007736216764897108
1780625228992599800,10.236599853515624,-0.017226656898856163,-0.011125355027616024,-0.01636965200304985
1780625229002629600,10.246629638671875,-0.018275409936904907,-0.011116300709545612,-0.021804630756378174
1780625229012658700,10.25665869140625,-0.015089737251400948,-0.023605726659297943,-0.03140399605035782
1780625229022687700,10.266687744140626,-0.007242732681334019,-0.03280907869338989,-0.03862941637635231
1780625229032717800,10.2767177734375,0.004567853640764952,-0.04483192041516304,-0.026145050302147865
1780625229042747000,10.286746826171875,0.017535584047436714,-0.04851081222295761,-0.002576075727120042
1780625229052775700,10.296775634765625,0.024142088368535042,-0.04631822928786278,0.01095597818493843
1780625229062805800,10.3068056640625,0.023325029760599136,-0.055640093982219696,0.020495953038334846
1780625229072834800,10.316834716796874,0.02136441133916378,-0.06190784275531769,0.02172207273542881
1780625229082863900,10.32686376953125,0.00803049560636282,-0.06162767857313156,0.011720571666955948
1780625229092893700,10.336893798828125,-0.0009534116834402084,-0.07305637001991272,-0.0075543224811553955
1780625229102922800,10.3469228515625,-0.006745786871761084,-0.08447520434856415,-0.0219684150069952
1780625229112951800,10.356951904296874,-0.014730743132531643,-0.10507315397262573,-0.041006021201610565
1780625229122982000,10.36698193359375,-0.011181548237800598,-0.14555613696575165,-0.03578968718647957
1780625229133010700,10.3770107421875,-0.004809935111552477,-0.1616450846195221,-0.014640728011727333
1780625229143039700,10.387039794921876,-0.0005067995516583323,-0.1913374662399292,-0.0014572817599400878
1780625229153069800,10.39706982421875,0.00558278476819396,-0.21288350224494934,-0.0016197345685213804
1780625229163099000,10.407098876953125,0.008559932000935078,-0.22538918256759644,0.007597998715937138
1780625229173127700,10.417127685546875,-0.0015763250412419438,-0.22611302137374878,0.019351594150066376
1780625229183157800,10.42715771484375,-0.009525327943265438,-0.220957413315773,0.015835421159863472
1780625229193186800,10.437186767578124,-0.020916201174259186,-0.21727372705936432,-0.0030061763245612383
1780625229203215600,10.447215576171875,-0.03187750652432442,-0.22783716022968292,-0.020245883613824844
1780625229213245700,10.45724560546875,-0.03773486241698265,-0.24636104702949524,-0.03783366456627846
1780625229223274800,10.467274658203126,-0.03533242270350456,-0.2727327346801758,-0.03441150486469269
1780625229233303800,10.4773037109375,-0.0313965380191803,-0.30896076560020447,-0.018510567024350166
1780625229243334000,10.487333984375,-0.02863830327987671,-0.32255300879478455,-0.00318886898458004
1780625229253362700,10.49736279296875,-0.026883812621235847,-0.32028481364250183,0.014670821838080883
1780625229263391700,10.507391845703125,-0.017053551971912384,-0.32484307885169983,0.01399011816829443
1780625229273421800,10.517421875,-0.013606356456875801,-0.3409149646759033,0.0011736550368368626
1780625229283450600,10.52745068359375,-0.008284827694296837,-0.31697049736976624,-0.009424127638339996
1780625229293479700,10.537479736328125,-0.008872320875525475,-0.3033508360385895,-0.009180182591080666
1780625229303509800,10.547509765625,-0.003725496120750904,-0.2738637626171112,-0.016461264342069626
1780625229313538800,10.557538818359374,-0.000511593243572861,-0.2300473153591156,-0.04033916816115379
1780625229323567600,10.567567626953124,0.0022240057587623596,-0.19217529892921448,-0.05615221709012985
1780625229333597000,10.577596923828125,0.010574347339570522,-0.1432466357946396,-0.062062837183475494
1780625229343626000,10.5876259765625,0.01642664335668087,-0.07778614014387131,-0.053640592843294144
1780625229353654800,10.59765478515625,0.02960423193871975,0.0008191883680410683,-0.028728850185871124
1780625229363684900,10.607684814453124,0.04386412724852562,0.047036752104759216,-0.008535963483154774
1780625229373714000,10.6177138671875,0.06245538964867592,0.06650472432374954,-0.0012389025650918484
1780625229383742700,10.62774267578125,0.08035449683666229,0.0815340057015419,0.012953615747392178
1780625229393772800,10.637772705078126,0.09976201504468918,0.10203129053115845,0.022756977006793022
1780625229403801900,10.6478017578125,0.11345385760068893,0.11697961390018463,0.033063143491744995
1780625229413831000,10.657830810546875,0.12648923695087433,0.15675179660320282,0.038488537073135376
1780625229423859700,10.667859619140625,0.13481587171554565,0.18259137868881226,0.02918211929500103
1780625229433889800,10.677889892578126,0.1413251757621765,0.20164763927459717,0.018691662698984146
1780625229443918800,10.6879189453125,0.1514771431684494,0.21287764608860016,0.002094576135277748
1780625229453948000,10.697947998046875,0.16433221101760864,0.20675264298915863,-0.014195714145898819
1780625229463977700,10.707977783203125,0.16699378192424774,0.20846451818943024,-0.024897625669836998
1780625229474006800,10.7180068359375,0.170732319355011,0.21982717514038086,-0.03273690864443779
1780625229484036000,10.7280361328125,0.184438556432724,0.22297236323356628,-0.026816433295607567
1780625229494066000,10.73806591796875,0.20622986555099487,0.21892675757408142,-0.022310364991426468
1780625229504094700,10.7480947265625,0.22561608254909515,0.2309197634458542,-0.013025520369410515
1780625229514124000,10.7581240234375,0.24301105737686157,0.24099184572696686,0.008098939433693886
1780625229524153900,10.76815380859375,0.25874900817871094,0.2801024913787842,0.021587850525975227
1780625229534183000,10.778182861328125,0.2718997001647949,0.3063753843307495,0.03874952718615532
1780625229544212000,10.7882119140625,0.27200621366500854,0.32483959197998047,0.039802540093660355
1780625229554241800,10.79824169921875,0.26799577474594116,0.3775734007358551,0.010612696409225464
1780625229564270800,10.808270751953126,0.24811819195747375,0.4234498143196106,-0.03387647494673729
1780625229574300000,10.8182998046875,0.22481925785541534,0.47101253271102905,-0.06755933910608292
1780625229584329700,10.828329833984375,0.19456441700458527,0.5818905830383301,-0.09502824395895004
1780625229594359000,10.838359130859375,0.18640395998954773,0.5710760354995728,-0.08009830117225647
1780625229604388000,10.84838818359375,0.18914489448070526,0.4823472201824188,-0.07100626826286316
1780625229614417700,10.858417724609374,0.19472500681877136,0.3885466754436493,-0.06155816838145256
1780625229624447000,10.868447021484375,0.19894292950630188,0.3264915645122528,-0.07147737592458725
1780625229634476000,10.87847607421875,0.2133181393146515,0.28598541021347046,-0.07423534989356995
1780625229644505900,10.888505859375,0.23206758499145508,0.25881239771842957,-0.06780434399843216
1780625229654535000,10.898534912109374,0.24848517775535583,0.21772274374961853,-0.05277612805366516
1780625229664564000,10.90856396484375,0.2537188231945038,0.14515691995620728,-0.031678568571805954
1780625229674594000,10.918593994140625,0.2507845461368561,0.07525373995304108,-0.025428127497434616
1780625229684623000,10.928623046875,0.23492516577243805,0.05055771768093109,-0.03784138709306717
1780625229694652000,10.93865185546875,0.2199997454881668,0.048401620239019394,-0.05471358075737953
1780625229704682000,10.948681884765625,0.20891326665878296,0.07055912166833878,-0.09766903519630432
1780625229714711000,10.9587109375,0.1979849934577942,0.10209334641695023,-0.1303231120109558
1780625229724739800,10.96873974609375,0.2002132534980774,0.14524401724338531,-0.1398489773273468
1780625229734770000,10.97877001953125,0.21056389808654785,0.19322697818279266,-0.11740092933177948
1780625229744799000,10.988799072265625,0.23209474980831146,0.23611798882484436,-0.06721711903810501
1780625229754828000,10.998828125,0.2671875059604645,0.24619992077350616,0.004298608284443617
1780625229764858000,11.008858154296876,0.289675772190094,0.2803850471973419,0.07830439507961273
1780625229774887000,11.018886962890624,0.2994921803474426,0.2845577001571655,0.14825817942619324
1780625229784916000,11.028916015625,0.3127845525741577,0.3006351888179779,0.1792919933795929
1780625229794946000,11.038946044921875,0.31045055389404297,0.30135345458984375,0.17606477439403534
1780625229804974800,11.048974853515626,0.2977544665336609,0.3337385654449463,0.15406520664691925
1780625229815004000,11.05900390625,0.2864741086959839,0.37817153334617615,0.12993429601192474
1780625229825034000,11.069033935546875,0.2868086099624634,0.41746726632118225,0.1177830919623375
1780625229835063000,11.07906298828125,0.2912400960922241,0.44471701979637146,0.12318158894777298
1780625229845091800,11.089091796875,0.2951384484767914,0.45276135206222534,0.13183127343654633
1780625229855121000,11.099120849609376,0.28940412402153015,0.4374505579471588,0.13488350808620453
1780625229865151000,11.10915087890625,0.27929022908210754,0.43457114696502686,0.1237669512629509
1780625229875180000,11.119179931640625,0.2681158781051636,0.44896209239959717,0.11006125807762146
1780625229885208800,11.129208740234375,0.2570251226425171,0.46124857664108276,0.11163119226694107
1780625229895239000,11.139239013671874,0.25099921226501465,0.45624423027038574,0.10148002207279205
1780625229905268000,11.14926806640625,0.2483576089143753,0.4310515224933624,0.07002915441989899
1780625229915296800,11.159296875,0.2344372719526291,0.43844980001449585,0.02840128168463707
1780625229925326800,11.169326904296875,0.20722828805446625,0.44784727692604065,0.005536445416510105
1780625229935356000,11.17935595703125,0.17936736345291138,0.5052469372749329,-0.029272668063640594
1780625229945385000,11.189385009765624,0.1418229192495346,0.519281268119812,-0.05838501453399658
1780625229955415000,11.1994150390625,0.08648668974637985,0.529595673084259,-0.10387712717056274
1780625229965443800,11.20944384765625,0.06289374083280563,0.44992348551750183,-0.12983016669750214
1780625229975473000,11.219472900390626,0.03272012993693352,0.34894201159477234,-0.13423024117946625
1780625229985503000,11.2295029296875,0.009830259718000889,0.23386575281620026,-0.1353173404932022
1780625229995531800,11.23953173828125,0.006680273450911045,0.07637439668178558,-0.16233457624912262
1780625230005560800,11.249560791015625,0.016458069905638695,-0.10825669765472412,-0.2049715220928192
1780625230015591000,11.2595908203125,0.020845627412199974,-0.23644982278347015,-0.23446576297283173
1780625230025620000,11.269619873046874,-0.0027680895291268826,-0.22536493837833405,-0.24432718753814697
1780625230035648800,11.279648681640625,-0.03784272074699402,-0.23830071091651917,-0.2312348186969757
1780625230045678800,11.289678955078125,-0.07394932210445404,-0.23405057191848755,-0.210442453622818
1780625230055708000,11.2997080078125,-0.11465360969305038,-0.2080349624156952,-0.15300846099853516
1780625230065737000,11.309737060546874,-0.15877605974674225,-0.18113942444324493,-0.06269986927509308
1780625230075766800,11.319766845703125,-0.19061042368412018,-0.1569291651248932,0.07691768556833267
1780625230085795800,11.3297958984375,-0.2135295867919922,-0.05065784975886345,0.2546463906764984
1780625230095825000,11.339824951171876,-0.2277095913887024,0.1473231464624405,0.4615550935268402
1780625230105855000,11.34985498046875,-0.20857957005500793,0.35993874073028564,0.7048196792602539
1780625230115883800,11.3598837890625,-0.13751551508903503,0.505462646484375,0.9544169902801514
1780625230125912800,11.369912841796875,-0.05698578804731369,0.6210821866989136,1.1438755989074707
1780625230135943000,11.37994287109375,-0.0029768813401460648,0.6921854019165039,1.2522302865982056
1780625230145972000,11.389971923828124,-0.01113281212747097,0.7155556678771973,1.253160834312439
1780625230156000800,11.400000732421875,-0.06973353773355484,0.5893918871879578,1.1464200019836426
1780625230166030800,11.41003076171875,-0.20106066763401031,0.4239419400691986,0.9048420190811157
1780625230176060000,11.420059814453126,-0.3402683734893799,0.13331465423107147,0.4478185176849365
1780625230186088700,11.430088623046874,-0.41939008235931396,-0.38388189673423767,-0.19325681030750275
1780625230196118800,11.440118896484375,-0.39811569452285767,-1.0114001035690308,-0.7121830582618713
1780625230206147800,11.45014794921875,-0.16291408240795135,-1.4844845533370972,-0.9685192704200745
1780625230216177000,11.460177001953125,0.15554192662239075,-1.861366868019104,-0.9796677827835083
1780625230226206000,11.4702060546875,0.18195116519927979,-1.921945333480835,-0.7311738133430481
1780625230236235800,11.48023583984375,-0.07418821007013321,-1.4594764709472656,-0.36073875427246094
1780625230246264800,11.490264892578125,-0.2829291820526123,-0.8840792179107666,0.017315074801445007
1780625230256294000,11.5002939453125,-0.3467310667037964,-0.44355347752571106,0.17876708507537842
1780625230266323700,11.51032373046875,-0.34875187277793884,-0.24239373207092285,0.09562292695045471
1780625230276352800,11.520352783203125,-0.3450508713722229,-0.28284233808517456,0.032763540744781494
1780625230286382000,11.530382080078125,-0.31428736448287964,-0.31977027654647827,0.07264650613069534
1780625230296412000,11.540411865234375,-0.2714610695838928,-0.1270277202129364,0.18016470968723297
1780625230306440700,11.550440673828126,-0.21021609008312225,0.15689267218112946,0.2961757481098175
1780625230316470000,11.560469970703124,-0.13330958783626556,0.34478560090065,0.3207210302352905
1780625230326499800,11.570499755859375,-0.07210774719715118,0.33859190344810486,0.26106274127960205
1780625230336529000,11.58052880859375,-0.051363855600357056,0.22370925545692444,0.17072780430316925
1780625230346558000,11.590557861328126,-0.058648932725191116,0.08396227657794952,0.11760945618152618
1780625230356587800,11.600587890625,-0.09382103383541107,0.009860886260867119,0.1052265539765358
1780625230366617000,11.6106171875,-0.1370566487312317,0.0030280142091214657,0.07689957320690155
1780625230376646000,11.62064599609375,-0.16450345516204834,0.04066567122936249,0.03854925557971001
1780625230386675700,11.63067578125,-0.18333972990512848,0.11986275762319565,0.03172330930829048
1780625230396705000,11.640705078125,-0.20513184368610382,0.22444269061088562,0.06648927927017212
1780625230406734000,11.650734130859375,-0.20605996251106262,0.33779481053352356,0.10883700102567673
1780625230416764000,11.660763916015625,-0.19748272001743317,0.4352089762687683,0.12179248034954071
1780625230426793000,11.67079296875,-0.18504469096660614,0.46039876341819763,0.11160242557525635
1780625230436822000,11.680822021484374,-0.17049051821231842,0.3803926110267639,0.10032287240028381
1780625230446852000,11.69085205078125,-0.14976978302001953,0.27426058053970337,0.09565328806638718
1780625230456881000,11.700880859375,-0.12453766912221909,0.17245513200759888,0.09939742833375931
1780625230466910000,11.710909912109376,-0.10434984415769577,0.08081655204296112,0.08309195935726166
1780625230476940000,11.72093994140625,-0.096805639564991,0.03971705213189125,0.050520431250333786
1780625230486969000,11.730968994140625,-0.1020779013633728,0.09122951328754425,0.019032014533877373
1780625230496998000,11.740997802734375,-0.116175077855587,0.14298218488693237,0.014220747165381908
1780625230507028000,11.751028076171876,-0.13808304071426392,0.18749798834323883,0.013245231471955776
1780625230517057000,11.76105712890625,-0.14955753087997437,0.21706679463386536,0.02275245077908039
1780625230527086000,11.771086181640625,-0.16530214250087738,0.26664286851882935,0.04436586797237396
1780625230537116000,11.781115966796875,-0.16118648648262024,0.3455965518951416,0.07921625673770905
1780625230547145000,11.79114501953125,-0.16895972192287445,0.34950312972068787,0.14051130414009094
1780625230557174000,11.801174072265624,-0.16986067593097687,0.2941485345363617,0.18322601914405823
1780625230567204000,11.8112041015625,-0.1620248556137085,0.25043752789497375,0.20103031396865845
1780625230577233000,11.82123291015625,-0.14640381932258606,0.18450087308883667,0.21474719047546387
1780625230587262000,11.831261962890625,-0.11908884346485138,0.19166770577430725,0.198338121175766
1780625230597292000,11.8412919921875,-0.1144552081823349,0.1870386004447937,0.18822263181209564
1780625230607321000,11.851321044921875,-0.10281213372945786,0.18113969266414642,0.1567816287279129
1780625230617350000,11.861349853515625,-0.10526809841394424,0.23891004920005798,0.13712802529335022
1780625230627379000,11.87137890625,-0.10654641687870026,0.27078408002853394,0.1629263311624527
1780625230637409000,11.881408935546874,-0.11226262897253036,0.32049810886383057,0.198768749833107
1780625230647437800,11.891437744140624,-0.12804771959781647,0.3243809938430786,0.22467492520809174
1780625230657467000,11.901466796875,-0.15738563239574432,0.2826615273952484,0.2586810886859894
1780625230667497000,11.9114970703125,-0.15576589107513428,0.25332173705101013,0.27013295888900757
1780625230677526000,11.921526123046876,-0.16058461368083954,0.19356893002986908,0.2883974313735962
1780625230687554800,11.931554931640624,-0.15587854385375977,0.2198396921157837,0.27517589926719666
1780625230697585000,11.9415849609375,-0.16333939135074615,0.2839158773422241,0.22502300143241882
1780625230707614000,11.951614013671875,-0.18194423615932465,0.2477746456861496,0.19472260773181915
1780625230717643000,11.96164306640625,-0.16577404737472534,0.2546605169773102,0.11432711035013199
1780625230727672800,11.9716728515625,-0.17401866614818573,0.20685704052448273,0.07450592517852783
1780625230737702000,11.981701904296875,-0.17788131535053253,0.19270527362823486,0.0538611002266407
1780625230747731000,11.99173095703125,-0.1777108758687973,0.22438037395477295,0.04912067577242851
1780625230757761000,12.001760986328126,-0.17716652154922485,0.20491214096546173,0.07202572375535965
1780625230767789800,12.011789794921874,-0.15719974040985107,0.1959300935268402,0.0874270498752594
1780625230777819000,12.02181884765625,-0.12872709333896637,0.1843075305223465,0.10433626174926758
1780625230787849000,12.031848876953125,-0.11166474223136902,0.18278366327285767,0.11771891266107559
1780625230797877800,12.041877685546876,-0.09607193619012833,0.18480819463729858,0.12609562277793884
1780625230807906800,12.05190673828125,-0.08253855258226395,0.18897710740566254,0.11683420836925507
1780625230817937000,12.06193701171875,-0.07680875808000565,0.18247340619564056,0.10725721716880798
1780625230827966000,12.071966064453125,-0.06486368179321289,0.1645260900259018,0.08322378247976303
1780625230837994800,12.081994873046876,-0.04922746866941452,0.15282070636749268,0.06967468559741974
1780625230848024800,12.09202490234375,-0.04261084273457527,0.18970468640327454,0.060438308864831924
1780625230858054000,12.102053955078125,-0.0457291379570961,0.2069832682609558,0.06468871235847473
1780625230868083000,12.1120830078125,-0.04932786896824837,0.2066676914691925,0.07064061611890793
1780625230878112800,12.12211279296875,-0.04578346759080887,0.20083589851856232,0.06253288686275482
1780625230888141800,12.132141845703124,-0.05374898016452789,0.14288924634456635,0.06487832963466644
1780625230898171000,12.1421708984375,-0.055266983807086945,0.10563215613365173,0.07228591293096542
1780625230908201000,12.152200927734375,-0.04694327339529991,0.1154450997710228,0.080461286008358
1780625230918229800,12.162229736328126,-0.02732137031853199,0.1445997953414917,0.0876811146736145
1780625230928258800,12.1722587890625,-0.005904227960854769,0.1418205201625824,0.0940210372209549
1780625230938289000,12.182288818359375,0.008467520587146282,0.12738299369812012,0.10113780200481415
1780625230948318000,12.19231787109375,0.01895824447274208,0.13502706587314606,0.09825040400028229
1780625230958346800,12.2023466796875,0.014671887271106243,0.1572636514902115,0.07182864844799042
1780625230968376800,12.212376953125,0.010240653529763222,0.17751513421535492,0.04229472577571869
1780625230978406000,12.222406005859375,0.0019827233627438545,0.23985973000526428,0.012079565785825253
1780625230988434700,12.2324345703125,0.010659036226570606,0.21732273697853088,0.02654053084552288
1780625230998464800,12.24246484375,0.015163240022957325,0.22220830619335175,0.015619440004229546
1780625231008493800,12.252493896484374,0.025713618844747543,0.1754908561706543,0.01619068719446659
1780625231018523000,12.26252294921875,0.04014661908149719,0.15193919837474823,0.021408086642622948
1780625231028552000,12.272552001953125,0.05278278887271881,0.11839988082647324,0.0451325923204422
1780625231038581800,12.282581787109375,0.05632852017879486,0.16340090334415436,0.06126442179083824
1780625231048610800,12.29261083984375,0.05462249740958214,0.22125568985939026,0.06087267026305199
1780625231058640100,12.30264013671875,0.05962151661515236,0.24106134474277496,0.052852828055620193
1780625231068669700,12.312669677734375,0.06673135608434677,0.2447194755077362,0.05417855083942413
1780625231078698800,12.32269873046875,0.06386606395244598,0.32376155257225037,0.05179821699857712
1780625231088728000,12.33272802734375,0.05287865921854973,0.3214086592197418,0.08599826693534851
1780625231098758000,12.3427578125,0.04116101935505867,0.30928835272789,0.10280200839042664
1780625231108787000,12.352786865234375,0.02178252674639225,0.30180034041404724,0.09615635871887207
1780625231118816000,12.36281591796875,0.006445382256060839,0.2862674295902252,0.08190152049064636
1780625231128845800,12.372845703125,0.003859186777845025,0.27828460931777954,0.0691593661904335
1780625231138875000,12.382875,0.009265669621527195,0.22049401700496674,0.06367404758930206
