time,seconds_elapsed,z,y,x
1780626347299970300,0.05797021484375,-0.5344225185215473,-0.914144743066281,-0.92088384206295
1780626347309965300,0.06796533203125,-0.0067477206945419305,-1.433732826679945,-1.2318357511118054
1780626347319960300,0.077960205078125,0.49141632048785683,-1.9367540986351668,-1.5674309568993747
1780626347329956600,0.08795654296875,0.7126122630268334,-2.1594211366400122,-1.943817315019667
1780626347339950800,0.097950927734375,0.41360184392333027,-1.9210089786231517,-2.197249932035804
1780626347349945900,0.10794580078125,-0.4660545002162456,-1.2987772437453269,-2.1185250626280903
1780626347359941600,0.117941650390625,-1.1819599595695733,0.14513444712162016,-1.3633476233333348
1780626347369936600,0.1279365234375,-1.7266607109993695,2.283934236015379,0.4751113746359944
1780626347379932000,0.137931884765625,-1.7203367686748503,3.3100083450853823,2.01903680665493
1780626347389928000,0.147927978515625,-1.1687930194824934,2.8327158270180224,2.212139165870845
1780626347399923000,0.1579228515625,-0.41161154688894747,1.7673492797404526,1.5683698451846837
1780626347409918700,0.167918701171875,1.2633218994826079,0.8420981823787093,0.662576166356355
1780626347419913700,0.177913818359375,1.604434845778346,0.18478022881150244,0.11085311507433653
1780626347429908700,0.18790869140625,1.4070990867763757,-0.7228820203676819,-0.17721921897269785
1780626347439904800,0.19790478515625,1.62050335252583,-1.1148210446678102,-0.6031035482987761
1780626347449900000,0.207900146484375,1.620042749276757,-1.190931932184845,-0.7630272760123014
1780626347459894800,0.217894775390625,1.4496382518202064,-0.9465103046201169,-0.3597160860873759
1780626347469890800,0.227890869140625,0.5795610524088144,-0.28564313413873316,0.00906637290045619
1780626347479885800,0.2378857421875,-0.5348877979457378,0.2036858586810529,0.1709695839934051
1780626347489880800,0.247880859375,-1.186910275453329,0.48133477919548745,0.10377543177306651
1780626347499876900,0.257876953125,-1.1672218246430157,0.5024656838990748,-0.032785102140158416
1780626347509871600,0.26787158203125,-0.578336479049921,0.2795687826611101,-0.16898030987232923
1780626347519866600,0.27786669921875,0.0897112505853176,-0.10447218186557293,-0.2804161932706833
1780626347529863000,0.28786279296875,0.6723778677940369,-0.4918649410381913,-0.44614086234793066
1780626347539858000,0.29785791015625,0.902586553350091,-0.5623696791112422,-0.5923534600950777
1780626347549853700,0.307853759765625,0.8001467540949583,0.23806553653627632,-0.3448684994369745
1780626347559848700,0.3178486328125,-1.2562930237591265,1.549124461966753,0.41328313336297867
1780626347569843700,0.32784375,-2.987232434991002,1.4943515460327266,0.4966676651448011
1780626347579839700,0.33783984375,-1.6043167723566292,1.6604305815055966,0.3271507641777396
1780626347589834800,0.347834716796875,-1.0544529390752315,1.4862468577712773,0.6043041562601924
1780626347599830000,0.357830078125,0.1628916376084089,0.9148910313889383,0.7540336760871111
1780626347609825800,0.36782568359375,0.8819956007421016,0.23466303461641072,0.7138840365283191
1780626347619820800,0.37782080078125,0.5080512289464474,-0.25380904911309476,-0.5365115997552872
1780626347629815800,0.38781591796875,-0.6195137080907821,0.2644119839310646,-1.8623796795219183
1780626347639811800,0.397811767578125,-1.4497148241877555,0.2120204101756215,-1.7071261355765164
1780626347649806800,0.407806884765625,-1.5872458105683325,0.32869828588068484,-0.9057400489449501
1780626347659801600,0.417801513671875,-1.2493185085713863,0.33133652542978526,-0.5135891354598104
1780626347669798000,0.4277978515625,-0.5692319660961628,-0.5222825833946466,-0.5205721262149512
1780626347679793000,0.43779296875,0.11592004307508467,-0.7840586658641695,-0.5129414852060378
1780626347689788000,0.447787841796875,0.6021504853576422,-0.3477741577506065,-0.3170806210622191
1780626347699783700,0.45778369140625,0.7759931405693292,-0.14707242944687604,-0.23668358065858483
1780626347709778700,0.46777880859375,1.5885662455171345,-0.09238222336024045,0.019319471367448566
1780626347719774700,0.477774658203125,1.8194091373234986,0.07358692199736833,0.14103081119507552
1780626347729769700,0.487769775390625,0.7446563375413418,0.7278525022566318,1.550557855770737
1780626347739764700,0.4977646484375,-0.7320306647241115,0.38810149196386334,3.5594784882113335
1780626347749760800,0.5077607421875,-0.18754560187160968,0.16419015298634768,2.1786937001258133
1780626347759755800,0.517755859375,0.42362464076578615,0.5516241209521889,-0.20566826466992497
1780626347769750800,0.527750732421875,0.47102878149747845,-0.2149111631810665,-0.535503007234633
1780626347779746800,0.537746826171875,0.9804325940966605,-0.4110363773494959,0.07140650921836494
1780626347789741800,0.547741943359375,0.7690957822710275,0.11889438271075486,0.11905205749049783
1780626347799736800,0.55773681640625,0.1684048480719328,0.4863996613696217,-0.27295360230505467
1780626347809732900,0.56773291015625,-0.5364858807921409,0.11994067689329385,-0.6830715496353804
1780626347819728000,0.577727783203125,-0.9047299951195716,0.6000561434268951,-0.7729654633112252
1780626347829723000,0.587722900390625,-0.966233388352394,0.8630565069943666,-0.6767739107958972
1780626347839719000,0.597718994140625,-0.7016980703026056,1.2592562574788928,-0.4323218880929053
1780626347849714000,0.6077138671875,-0.19950316616892813,1.3676196015641093,-0.46629473871290683
1780626347859708700,0.617708740234375,0.4206646219164133,0.9722150931105017,-0.34855902451798315
1780626347869704700,0.62770458984375,0.6091308457642793,0.9571467033162713,-0.045821693845838306
1780626347879699700,0.63769970703125,-1.2173311326801777,1.9153186580270527,0.9905265564791857
1780626347889694700,0.64769482421875,0.2901543279528618,2.4007208327919245,1.0230550535097718
1780626347899690800,0.657690673828125,2.6658254751622676,0.12145604989230632,-0.17325243423357606
1780626347909685800,0.667685791015625,2.7424925352573393,-0.9158993316486478,-0.27025062695667146
1780626347919681800,0.677681884765625,1.4870488218039273,-1.0119792404830454,0.18053060854300856
1780626347929676800,0.6876767578125,-0.2537181559592485,-0.9386103451505303,0.8218617422968149
1780626347939671800,0.697671875,-0.9330641092002391,-1.0148097877338529,1.0307818483695388
1780626347949667600,0.70766748046875,-0.2354109303742647,-1.13932288710922,0.8660849149048327
1780626347959662800,0.717662841796875,0.49778234838843344,-0.9772790985018014,0.49787367993369697
1780626347969657900,0.727657958984375,0.3551297812104225,-0.5587412594810128,0.045162280089035625
1780626347979654000,0.73765380859375,0.5132669177681207,0.35393998690396544,0.013792305443808436
1780626347989649000,0.74764892578125,0.9577817863494157,0.6610220687821508,-0.14615290344916282
1780626347999644000,0.757643798828125,1.7864602229237556,0.8299024254113435,-1.2522666908524929
1780626348009639700,0.7676396484375,0.7758662993192672,0.15308920551836488,-0.6512262856286019
1780626348019634700,0.777634765625,0.028656185641884803,-0.37355069630295035,-0.11259520950131117
1780626348029629700,0.787629638671875,-0.20409400109052656,-0.29896541091799733,-0.2914160915169865
1780626348039626000,0.7976259765625,-1.3721470158606768,-0.14641688814759254,-0.8109985491074622
1780626348049621000,0.80762109375,-0.8057482273638248,0.47760202240794897,-1.257295478799939
1780626348059615700,0.81761572265625,-0.7074860060542821,0.803808199211955,-0.9689826139952987
1780626348069611800,0.82761181640625,0.15232055923342705,0.8692924787744879,-0.6513189323481172
1780626348079606800,0.837606689453125,1.107828555431962,0.9035144818499684,-0.4503280483720824
1780626348089601800,0.847601806640625,1.476726749753952,0.9343529799669981,-0.09839516350682824
1780626348099597600,0.85759765625,1.1252671814888715,0.1459177064538002,-0.09327204833943396
1780626348109592800,0.8675927734375,0.12591127573549746,-1.6975138192310928,-0.15007025955598802
1780626348119588900,0.8775888671875,-0.5211100324839353,-2.593201845239103,-0.28525028062993657
1780626348129583900,0.887583984375,0.0027706337571144104,-1.6297078187227247,-1.8578081338226795
1780626348139579000,0.897578857421875,-0.17187632357478141,-1.0440651083126664,-2.824240551878512
1780626348149574700,0.90757470703125,-0.5315729743093252,-1.1093132410317659,-2.5322481948435307
1780626348159569700,0.917569580078125,-0.4195698124170303,-0.7125716387555002,-1.6542869641840456
1780626348169564700,0.927564697265625,0.08335223694741725,-0.23605682706236839,-0.7847738283962011
1780626348179561000,0.93756103515625,-0.006560089167952537,-0.015084171885251999,-0.5816221496570855
1780626348189556000,0.947555908203125,-0.3503741111159324,-0.17514146285057067,-0.5514597972359508
1780626348199551000,0.957551025390625,-0.4854764090448618,0.048505087710916994,-0.20386855830419806
1780626348209546800,0.967546630859375,-0.1965770495891571,1.0887132283344865,-0.6605376462660729
1780626348219541800,0.977541748046875,-0.17950433423519133,1.7350941928237675,-1.8344398254558443
1780626348229536800,0.987536865234375,-0.22293606420457363,0.5318371782034635,0.4028902976317331
1780626348239532800,0.99753271484375,-0.22677228136658667,0.8855389724373817,2.2233741149820387
1780626348249527800,1.00752783203125,0.03068272303342819,1.9292723645776508,1.1243214981365948
1780626348259522800,1.017522705078125,0.17787819433808325,1.5731448045015335,-0.1566407970527187
1780626348269518800,1.027518798828125,0.32473698103427884,0.5087038476362824,-0.28507094200765715
1780626348279513900,1.037513916015625,0.24260581031441686,-0.09168664231151342,-0.042711589868133885
1780626348289508900,1.0475087890625,-0.06549041704237461,-0.11683511209338902,0.013208970864210277
1780626348299504600,1.057504638671875,-0.45192777518630023,-0.30064766491651534,-0.19128356455722823
1780626348309499600,1.067499755859375,-0.7411550514221191,-0.5842012794300914,-0.06719227079050615
1780626348319494700,1.07749462890625,-1.1078811624020337,-0.843706202097237,-0.0285609816391021
1780626348329491000,1.087490966796875,-1.121679970651865,-0.10386427910029887,0.31207415454443543
1780626348339486500,1.097486572265625,-0.6501929239928722,0.8927028727173805,0.24047588561363517
1780626348349482500,1.107482421875,-0.12683131318986415,1.0816729544341563,0.14810721585471182
1780626348359477500,1.1174775390625,0.595143821465969,0.723307260042429,0.21399985702242702
1780626348369472500,1.127472412109375,1.4358610708802937,0.032382512688636775,-0.1647804470296949
1780626348379468500,1.137468505859375,1.0347036979883908,-0.5100327581524848,-1.1063531491171568
1780626348389463600,1.147463623046875,0.3512351118594408,-0.060732993382215494,-1.1740533511634916
1780626348399458300,1.157458251953125,0.37198856155276294,1.0690893671929835,-0.6850359085109085
1780626348409454300,1.167454345703125,0.8532675189077854,1.4219994265273213,-0.08980375117436051
1780626348419449300,1.177449462890625,1.6766595395117998,1.0799579672098159,0.6136562872994691
1780626348429444600,1.187444580078125,2.2287235131859777,0.4481812821343541,0.8509864222332835
1780626348439440400,1.1974404296875,2.6718700160235165,-0.08339227669686078,0.6554228605356067
1780626348449435400,1.207435302734375,3.1043162611484525,-0.2171624492391944,0.35811011219546196
1780626348459430400,1.217430419921875,3.4844156484425066,-0.4932563953965902,0.0735002666272223
1780626348469426400,1.227426513671875,3.5710523138880728,-0.571872251471877,-0.4343847389068454
1780626348479421400,1.23742138671875,3.68239847317636,1.7053060805425047,-5.864519225141406
1780626348489416400,1.24741650390625,4.1363247287034985,2.5625761130899187,-4.5663528067708015
1780626348499412500,1.25741259765625,1.813035510638356,0.5911147120803594,3.3303935459882017
1780626348509407500,1.267407470703125,1.9732260725945232,1.4646110722854733,0.907471841173619
1780626348519402500,1.277402587890625,1.4883733484059571,2.808085243630409,-0.28768530749082566
1780626348529398500,1.2873984375,1.7640116597503424,2.190823990641534,1.0431503315553068
1780626348539393500,1.2973935546875,2.9157945077210665,1.866537091462314,1.5472347026973963
1780626348549388300,1.30738818359375,3.320892727193236,2.3837337498947977,0.8767471786946057
1780626348559384300,1.31738427734375,3.552984157755971,2.8967341256812214,-0.281039585866034
1780626348569379300,1.32737939453125,3.3206080650329586,3.2931688539654016,-0.9938348042443395
1780626348579374600,1.33737451171875,3.0294834307432175,3.6096041628614066,-0.9175923993021249
1780626348589370400,1.347370361328125,3.163580351021886,3.9154169554561373,-0.8124222983002662
1780626348599365400,1.357365478515625,3.384755250772834,3.896333192540705,-1.0524047743737697
1780626348609360400,1.3673603515625,2.9511434689998626,3.448713343681395,-0.30928806748986243
1780626348619356400,1.3773564453125,2.1950106286764144,2.9677573346704245,-0.03418050202131271
1780626348629351400,1.387351318359375,1.4091718013972043,3.0955756130710244,-0.08946399782598018
1780626348639347200,1.39734716796875,1.726615118291974,3.87197645765841,0.3399713750451803
1780626348649342500,1.407342529296875,2.8494705624639987,4.596842053058743,1.777531651058793
1780626348659337500,1.41733740234375,3.4957220553547144,4.719684004351496,2.623175250959396
1780626348669333500,1.42733349609375,2.359790271988511,4.338360628220439,1.3570593368440866
1780626348679328500,1.43732861328125,-0.747216543418169,3.3994138907223936,-1.3646113596588372
1780626348689323500,1.447323486328125,-1.610005339387059,3.3739982944369316,-1.35919751791656
1780626348699319300,1.4573193359375,-0.14614566999077797,3.479903139454126,-0.5540934336751699
1780626348709314300,1.467314208984375,1.6587229008048772,3.632341479848325,0.9038795157700776
1780626348719309300,1.477309326171875,2.7177757348909974,3.7473669121712443,1.9592484006464481
1780626348729305600,1.4873056640625,1.779558772972226,3.996633057157695,1.515505685481429
1780626348739300600,1.497300537109375,-0.13928776692003011,4.14202907782495,0.17335048778057097
1780626348749295400,1.50729541015625,-2.0194421725854275,4.548445686419308,-1.1557745479553938
1780626348759291400,1.51729150390625,-3.8568577989816664,5.0142953117132185,-1.9643103602111338
1780626348769286400,1.527286376953125,-4.53843662584126,5.283541876193881,-2.4805916573643683
1780626348779281400,1.537281494140625,-3.9111961228907104,5.471730452144145,-2.7325229299068448
1780626348789277400,1.54727734375,-3.1001123797178267,5.0369864514708516,-2.5507225936889646
1780626348799272400,1.5572724609375,-2.332169274613261,3.7724791415959595,-2.718374577566981
1780626348809267500,1.567267333984375,-0.5164765274643898,3.432868416556716,-3.050726125258207
1780626348819263500,1.577263427734375,0.5763245547056198,3.0348472958639263,-5.003128021010756
1780626348829258500,1.587258544921875,0.012069244510866701,1.2513918077141046,-8.633315829956532
1780626348839253500,1.59725341796875,-1.5079460638821125,-1.0720859186604619,-11.339072333490847
1780626348849249300,1.607249267578125,-2.7041701111257073,-2.6367054714009166,-12.019301499307154
1780626348859244300,1.617244384765625,-3.091400665473938,-2.2828566699117423,-11.860755781948566
1780626348869239300,1.6272392578125,-2.3990695584535597,-0.9906588045567274,-11.482415805542468
1780626348879235600,1.637235595703125,-2.0319863045990467,-1.056691657912731,-11.64218784982562
1780626348889230600,1.647230712890625,-2.167334686243534,-1.9147487491846082,-12.45189679751396
1780626348899225600,1.6572255859375,-1.6141957768142223,-2.8967747499525545,-12.938242390608787
1780626348909221400,1.667221435546875,-0.5371441255051642,-3.358030909976363,-12.155936998152733
1780626348919216400,1.67721630859375,0.446761697660014,-3.199773361909389,-10.849656831431389
1780626348929211400,1.68721142578125,0.32216271009948105,-3.423294532525539,-9.756887313443421
1780626348939207400,1.69720751953125,0.23301380610466002,-4.0290947725623845,-9.357771090990305
1780626348949202400,1.707202392578125,1.0388929663717745,-4.474374780297279,-8.487419750812649
1780626348959197400,1.717197509765625,1.2845628404319285,-4.380716253390908,-7.345541041740774
1780626348969193500,1.727193359375,2.0489912154138086,-3.0484763005048037,-5.602362326660752
1780626348979188500,1.7371884765625,2.942971852982044,-1.6934107678264378,-3.7851176738947627
1780626348989183500,1.74718359375,2.680420402225852,-1.4461913262367248,-2.8234955787301064
1780626348999179300,1.75717919921875,2.182035996291041,-1.432391933465004,-2.4795143835216757
1780626349009174300,1.76717431640625,2.3468740917921065,-1.1335650542348623,-1.8783038093626498
1780626349019170600,1.777170654296875,2.425051118058711,-1.0548878233611583,-1.3359154265284539
1780626349029165600,1.78716552734375,2.5279127959877252,-1.3530419178962707,-1.1842431020706892
1780626349039160600,1.79716064453125,2.370784251950681,-1.8722545923262834,-1.3443360488712788
1780626349049156400,1.80715625,1.7180460273891687,-2.3936744214117525,-1.63805362226367
1780626349059151400,1.8171513671875,0.7493480024889111,-2.3891128125846386,-1.5937380951970814
1780626349069146400,1.827146484375,0.18914602280557155,-1.395703248015046,-1.1356126344144344
1780626349079142400,1.837142333984375,0.8458937752693891,0.2640273685276508,0.298300225007534
1780626349089137400,1.847137451171875,1.4706418768823146,1.2235565830662847,1.7504840696573256
1780626349099132400,1.85713232421875,1.7065712781727314,1.5657681382536888,2.643644623014331
1780626349109128400,1.86712841796875,2.0627745338335632,1.4520198862597344,2.92624985076189
1780626349119123500,1.87712353515625,2.1379393726721405,0.8817010017096996,2.609533094576001
1780626349129118500,1.887118408203125,1.6615718604952097,0.08408172026574612,1.7872312072962522
1780626349139114500,1.897114501953125,0.7160425297364592,-0.6124205349594354,0.9656202248901128
1780626349149109200,1.907109130859375,-0.6754813867673277,-0.8963838993176817,0.03214987297654152
1780626349159104300,1.917104248046875,-1.391378370553255,-0.781765878751874,-0.6808610339790582
1780626349169100500,1.9271005859375,-1.1581301711708307,-0.1869409139767289,-0.8066647576868533
1780626349179095600,1.937095458984375,0.5446592503756285,0.44659342842102046,-0.3470569493919611
1780626349189090600,1.947090576171875,3.4120199820563197,0.9399936162024736,0.8767781583547591
1780626349199086300,1.95708642578125,4.470723856574296,0.913119930063188,0.9956313322722912
1780626349209081300,1.967081298828125,3.9114962748810647,0.44075317796021696,0.603928016424179
1780626349219076400,1.977076416015625,1.6662322535216807,-0.23208178595155476,0.44180268701314923
1780626349229072400,1.987072265625,0.2517950789421797,-0.8334852523341775,0.366130483174324
1780626349239067400,1.9970673828125,-0.2649421452850103,-0.9376400388136505,0.5475310064196587
1780626349249062700,2.007062744140625,-0.09823387199789285,-1.0207856472730636,0.27580782269239423
1780626349259058400,2.017058349609375,1.1776499874159694,-1.3985770498856902,0.23558745598495004
1780626349269053400,2.027053466796875,3.2415400812759994,-2.1100046331726015,0.500039771926403
1780626349279048400,2.03704833984375,3.8086139925554394,-2.9009675254672764,0.39806875922679896
1780626349289044500,2.04704443359375,3.247728706783056,-2.9978894380837677,0.37543022643923757
1780626349299039500,2.05703955078125,2.273366372510791,-2.6751889313131567,0.5887976673096418
1780626349309034200,2.0670341796875,0.9341951590567826,-2.3137778778761624,0.4188602028429508
1780626349319030500,2.077030517578125,-0.5874053361684084,-1.817657325220108,-0.11094050109684467
1780626349329025500,2.087025634765625,-0.7795192688688636,-1.5421207206845282,-0.4146954843789339
1780626349339020500,2.0970205078125,-0.21307284183800218,-1.252479164559394,0.5943050325542688
1780626349349016600,2.1070166015625,1.1613529326096177,-1.3414976105749605,0.8450953183680773
1780626349359011600,2.117011474609375,1.8689593501731752,-1.5690055127397178,0.7847644760459661
1780626349369006600,2.127006591796875,0.3594511515408754,-0.8337161384806037,1.2787702285051346
1780626349379002600,2.137002685546875,-1.4249731816411018,0.4664747349223122,1.1920657585203647
1780626349388997600,2.14699755859375,-1.7641873085781932,0.575357353641279,0.6121966630756854
1780626349398992600,2.15699267578125,-0.4151619328469038,-0.0032418679980561137,1.1313374413132666
1780626349408988400,2.166988525390625,0.6922986660555005,-0.920483882959932,1.6714029341578482
1780626349418983400,2.1769833984375,1.2015329673066735,-1.202913900271058,1.958931589782238
1780626349428978400,2.186978515625,1.503523279003799,-0.6276707110613584,2.4167548527479172
1780626349438974700,2.196974609375,0.606266688504815,0.12415851378403603,2.8852959090828896
1780626349448969700,2.2069697265625,-0.341771702465415,0.8327323881402611,2.8481875369161367
1780626349458965500,2.216965576171875,-0.6779825559332966,0.7043180435426533,1.7614391789138315
1780626349468960500,2.22696044921875,-0.21495266423523424,0.31586631336901333,0.36168051802814005
1780626349478955500,2.23695556640625,-0.04232902942448854,-0.1929345101020299,-0.5026894096523523
1780626349488951600,2.24695166015625,0.6073179511234164,-0.5951311811801046,-0.9302011209845542
1780626349498946600,2.256946533203125,1.551653103661537,0.01830950887361541,-0.2238122625172138
1780626349508941600,2.266941650390625,2.8647996490210295,0.937838776256144,0.9387070835232734
1780626349518937600,2.2769375,3.327689255465567,1.8878177799001334,2.593792504608631
1780626349528932600,2.2869326171875,2.055512726137042,2.6136148109316824,3.411717491978407
1780626349538927600,2.296927734375,0.2779030414059758,3.646657005448639,2.769538947615027
1780626349548923400,2.30692333984375,0.33326252505630255,3.8781785271689295,2.1383108363330363
1780626349558918400,2.31691845703125,0.14196458491384983,3.5455341340109703,1.7704899158537386
1780626349568913400,2.326913330078125,-1.2951602222919463,2.6734932333111763,0.226801507461071
1780626349578909700,2.33690966796875,-1.5406176226451993,2.0143460184901953,-2.369351881060004
1780626349588904700,2.34690478515625,-0.48862449781224127,1.9742565846860407,-1.3489356516212223
1780626349598899700,2.356899658203125,0.5603583392888307,1.7238785329349338,-0.109404962092638
1780626349608895500,2.3668955078125,1.0952411687985062,2.2904865802682934,1.5809475872069596
1780626349618890500,2.376890380859375,0.5065291339457034,2.91024797950983,1.9509610492944716
1780626349628885500,2.386885498046875,-0.1613045145474374,3.187442288124561,2.2294284465849397
1780626349638881500,2.396881591796875,-0.8751173855356872,3.2670760890707373,3.2200814059227705
1780626349648876500,2.40687646484375,-2.5009224977314473,3.1052491580843924,1.5470330426454544
1780626349658871600,2.41687158203125,-4.349535517707467,1.2765015529207884,-3.4062031124711036
1780626349668867600,2.42686767578125,-3.381775942701101,-0.8949778319120406,-5.587947432339191
1780626349678862600,2.436862548828125,-2.144135012441873,-2.5510195308089254,-6.5805585400074715
1780626349688857600,2.446857666015625,-0.6608446663886308,-2.3894088729217646,-5.112057766807079
1780626349698853400,2.456853271484375,-0.5809048682332039,-2.3713041841715574,-5.730289033871888
1780626349708848400,2.466848388671875,-1.6434870454892516,-3.1254286072820423,-5.914029398241639
1780626349718843400,2.476843505859375,-2.2419956672132013,-2.88313990009278,-4.7466456610351795
1780626349728839700,2.486839599609375,-1.7745568730317056,-1.7088944604232907,-2.88949102268517
1780626349738834700,2.496834716796875,-0.97618136639297,-1.193073766519129,-1.246422787129879
1780626349748829700,2.50682958984375,-0.4623690897017717,-0.502073469711095,-1.4093582638800144
1780626349758825500,2.516825439453125,-1.7574445563197134,0.174471308504045,-1.7273866871863603
1780626349768820500,2.526820556640625,-1.2460937013059854,-0.5264239209830761,-0.04003039709329605
1780626349778815500,2.5368154296875,0.43071912907138465,0.1112006133377552,1.032623969104886
1780626349788811500,2.5468115234375,1.6728640927515923,1.1234884813785553,2.038841577321291
1780626349798806800,2.556806884765625,2.125989114898443,1.653105645444989,2.903585014489293
1780626349808801500,2.566801513671875,2.01968913308382,1.727944613330066,3.152552176529169
1780626349818797600,2.576797607421875,1.6523311539411545,1.5949506858572362,3.135059774458408
1780626349828792600,2.58679248046875,0.8905074084997177,0.8711167715921998,2.451955345466733
1780626349838787600,2.59678759765625,-0.0217236829649657,0.24263562093079089,1.2185901928305625
1780626349848783600,2.60678369140625,-0.2558896547794342,-0.4361626352995634,0.11179565662145614
1780626349858778400,2.6167783203125,0.36821722632050513,-1.8316972487494347,-1.0053004933714866
1780626349868773400,2.6267734375,1.4131716846883295,-2.39428495452553,-1.0323860686957835
1780626349878769700,2.636769775390625,1.8216373347669839,-2.3647055165588853,-1.3836170889019965
1780626349888764700,2.6467646484375,0.985385248067975,-2.7183517812132836,-2.2469711175382137
1780626349898759700,2.656759765625,0.19261925187408924,-3.3092736010700463,-3.2285704173266887
1780626349908755500,2.66675537109375,-0.549341270712018,-3.8635187181755897,-3.516744969639182
1780626349918750500,2.67675048828125,-0.4513707258254289,-3.857962545353174,-3.3304467374801634
1780626349928746500,2.68674658203125,-0.011348474221955984,-3.898065423160791,-3.2145249408394094
1780626349938741500,2.696741455078125,0.4349637809038162,-3.3221661081299185,-2.4853227775394915
1780626349948736800,2.70673681640625,-0.9001485125482082,1.5718936353966593,3.1471354121774433
1780626349958732500,2.716732666015625,-3.2830811751931903,5.894582939493656,4.0910979320108884
1780626349968727600,2.7267275390625,-3.272410143575072,7.13814273840785,5.863893202197551
1780626349978722600,2.73672265625,1.0591992568194866,4.630265014711022,4.389143889996409
1780626349988718600,2.746718505859375,0.9318085561811923,1.189198678651452,1.8777005827724933
1780626349998713600,2.756713623046875,0.2621498842179775,0.17440847240090368,0.14353285714387892
1780626350008708400,2.766708251953125,0.32167752039842307,0.0685188249528408,-0.6168950500249862
1780626350018704600,2.77670458984375,0.04308744657635689,1.713890076753497,0.27863866220414635
1780626350028699600,2.78669970703125,0.3412567386806011,1.8540864829510448,1.0495599063366652
1780626350038694700,2.796694580078125,0.19718042230978608,1.983771432006359,1.9257406833201645
1780626350048690400,2.8066904296875,-0.4217056554019451,1.651610146190226,1.8629595252364872
1780626350058685400,2.816685546875,-0.9648564009107649,1.0810121524378657,1.3649766858398913
1780626350068680400,2.826680419921875,-0.23910927343554794,-0.029409049835801122,0.26449673960506914
1780626350078676500,2.836676513671875,-0.17906484683938323,-1.3216180211067199,-0.5117822321683169
1780626350088671500,2.84667138671875,-1.0217315498210489,-1.492460033197701,-0.7598638435453176
1780626350098666800,2.856666748046875,-1.1540180596768856,-0.5715618703484535,-0.5859095446527004
1780626350108662500,2.86666259765625,-0.9939468132514506,0.3160293584436178,-0.48589784932732577
1780626350118657500,2.876657470703125,-0.7036182247102261,0.5674722629472613,-0.44908115358352657
1780626350128652500,2.886652587890625,-0.6281565218169242,0.25626287200599907,-0.4344447254657745
1780626350138648600,2.896648681640625,0.24783136294297872,-0.24554917028993367,-0.17385317660570143
1780626350148643600,2.9066435546875,0.5674900177996606,-0.21387246778309343,0.06005962416529655
1780626350158638600,2.916638671875,-0.27281755483523007,-0.06707476362437009,-0.4443441881895065
1780626350168634600,2.926634521484375,-0.930632498139143,-0.3758510821998119,-0.623960166105628
1780626350178629600,2.936629638671875,-1.235346097320318,-0.6848144477799535,-0.6991203287690877
1780626350188624600,2.946624755859375,-1.3425789760708808,-0.4434618523970246,-0.6757517281413078
1780626350198620700,2.95662060546875,-1.2183891173005104,-0.21653525725156067,-0.6363800872176886
1780626350208615400,2.966615478515625,-1.1701168884973971,0.03743307407647371,-0.36373745055794715
1780626350218610400,2.9766103515625,-1.4229554120779038,0.4075613947153091,-0.14985855303406714
1780626350228606500,2.9866064453125,-1.237513504487276,0.5551487879469991,0.3688368195235729
1780626350238601500,2.9966015625,-0.7152595626652241,0.27472908754497766,1.5104560008764265
1780626350248596700,3.0065966796875,0.2869394392932765,-0.28347967249453065,2.192633378151059
1780626350258592500,3.016592529296875,0.7133855854868888,-1.0536176572948694,2.574564657047391
1780626350268587500,3.02658740234375,0.30872868004143234,-1.3743833966106176,2.6979373542159792
1780626350278582500,3.03658251953125,-0.588586654907465,-1.612557069696486,2.4494459929943084
1780626350288578600,3.04657861328125,-0.898893544051051,-2.0927499853804705,2.056048148187995
1780626350298573600,3.056573486328125,-0.4782996492832899,-2.6062285000726577,1.0860796649605036
1780626350308568600,3.066568603515625,0.0034346688901074228,-2.548825235635042,-0.4315823217719793
1780626350318564600,3.076564697265625,0.1636258153681643,-1.4944453617960214,-0.949610754853487
1780626350328559600,3.0865595703125,0.08827685213433578,-0.13715689237117767,-0.6116629945904016
1780626350338554600,3.0965546875,0.3387947324812412,0.9891787951320409,-0.13085399283468724
1780626350348550700,3.106550537109375,0.571305265238881,1.6442109758496284,-0.19755553923249244
1780626350358545700,3.116545654296875,0.3597287994384765,2.075113498663902,-0.8687854060351848
1780626350368540400,3.12654052734375,-0.04977375593986362,2.185717899674177,-1.8580472032755613
1780626350378536400,3.136536376953125,-0.5544616824656725,1.590376509809494,-2.353426582175493
1780626350388531500,3.146531494140625,-0.8942232141524553,0.9743728556662797,-2.1542408113926648
1780626350398526700,3.156526611328125,-0.750493373131752,0.7527911286801099,-2.042677794483304
1780626350408522500,3.1665224609375,-0.8586713507127016,0.860105255973339,-1.6900953596681356
1780626350418517500,3.176517578125,-0.14239534101393073,0.30407588579952716,-0.7022048507809638
1780626350428512500,3.186512451171875,0.12456512182354926,-0.3349912485450506,-0.34629239476025103
1780626350438508500,3.196508544921875,-0.4521166488219052,0.1576157430320978,0.28427871391773224
1780626350448503600,3.206503662109375,-0.279038475176692,0.556208233872056,1.1630740573137999
1780626350458498600,3.21649853515625,-0.10537358768470585,-0.26076515186131,1.0342033472508192
1780626350468494600,3.22649462890625,0.23268537786789237,-0.9441729477137326,0.10386194101274013
1780626350478489600,3.236489501953125,0.24535014058649537,-1.0903706401526927,-0.3615402327746153
1780626350488484600,3.246484619140625,-0.08393778175041079,-0.7054986316293478,-0.3503676813751459
1780626350498480600,3.256480712890625,-0.31518640481345356,-0.5060252760767936,-0.35144963139295576
1780626350508475600,3.2664755859375,-0.28537176985144613,-0.1670838286012411,0.04676525830626487
1780626350518471400,3.276471435546875,-0.21914324779286978,0.6193412741333246,0.4121107285827398
1780626350528466400,3.286466552734375,-0.3263609289743006,0.8318097203373909,0.09040975424349307
1780626350538461400,3.29646142578125,-0.3619682489283383,0.20729367391467093,-0.39747371594309805
1780626350548457700,3.306457763671875,-0.18803543121516703,-0.4350935447633266,-0.5188169531106949
1780626350558452500,3.316452392578125,0.06810045341029763,-0.7345686587691307,-0.4109481145441532
1780626350568447500,3.326447509765625,0.4145696660421788,-0.7276841599524021,-0.08641396260559558
1780626350578443500,3.336443603515625,0.5316751195095479,-0.5802069490969181,0.005049100083112716
1780626350588438500,3.3464384765625,0.786993258011341,-0.4846621700525284,-0.09606675709187984
1780626350598433500,3.35643359375,0.3306051424153149,-0.9089122492402791,-0.27873510831594467
1780626350608429600,3.3664296875,0.06189443837702274,-1.9184487727463244,-0.7363906134992837
1780626350618424600,3.376424560546875,0.3089152886547148,-2.6236744326531887,-0.6994932537347078
1780626350628419600,3.386419677734375,0.28398133840635414,-2.2078654340744017,-0.45213528045713897
1780626350638415600,3.39641552734375,-0.24013196754679084,-1.0961252581566572,-0.2750333311885595
1780626350648410600,3.40641064453125,-0.9428073584489524,-0.3439560607671737,-0.06834697551727295
1780626350658405600,3.416405517578125,-1.0786987609289587,-0.22649930964410303,-0.08142565279901028
1780626350668401400,3.4264013671875,0.06546119094789028,-0.5248164857864379,-0.28343583335280415
1780626350678396400,3.436396484375,1.175826571381092,-0.8338900337427854,-0.569250086274743
1780626350688391400,3.446391357421875,1.7956348785042762,-0.9727034611493348,-1.1467764179855584
1780626350698387700,3.4563876953125,1.0833296356000006,-1.1806079604387283,-1.5533260053098201
1780626350708382700,3.4663828125,0.3231792301982641,-1.4035077842861412,-1.573245926788449
1780626350718377500,3.47637744140625,-0.1999653037879616,-1.512551511850953,-1.43853525852561
1780626350728373500,3.48637353515625,-0.0897111775200814,-1.890987349846959,-1.20190326192379
1780626350738368500,3.496368408203125,-0.06775777745246887,-2.391901566520333,-0.9661386958062648
1780626350748363500,3.506363525390625,0.14728154215291142,-2.651481307989359,-0.5122749841213226
1780626350758359600,3.516359619140625,0.11271109096594153,-2.8407857362270352,-0.29138240844309327
1780626350768354600,3.5263544921875,0.2818530211407691,-2.8359686913341284,-0.5269277788519859
1780626350778349600,3.536349609375,0.23809688152261077,-2.7367817563951014,-0.8572294082760811
1780626350788345600,3.546345703125,-0.11956044540405272,-2.4052806880533693,-0.797202517336607
1780626350798340600,3.556340576171875,-0.4056558533549309,-1.813442337873578,-0.7321048990041017
1780626350808335600,3.566335693359375,-0.36221367505677043,-1.439836988773942,-0.8475655078738927
1780626350818331400,3.576331298828125,-0.19948219644613563,-1.3914485131800174,-1.1334434736818075
1780626350828326400,3.586326416015625,-0.10520279769506305,-1.5185931301027535,-1.5054022246181964
1780626350838321400,3.5963212890625,-0.1297129695734009,-1.5630489424228666,-1.42076170142591
1780626350848317700,3.606317626953125,-0.6084124683618545,-1.218906419172883,-1.1324562162101268
1780626350858312700,3.616312744140625,-1.6533172423690556,-0.024884265887737272,-0.7122633034586906
1780626350868307700,3.6263076171875,-2.0101941595077513,1.8451672634363174,-0.3138888392835855
1780626350878303500,3.636303466796875,-1.3963158269554377,1.9792484016239642,0.11013561445474623
1780626350888298500,3.646298583984375,0.9414566744923591,1.654731785342097,1.4607102654546498
1780626350898293500,3.65629345703125,-1.03709263895154,-0.2462111413300037,0.9950397961199283
1780626350908289800,3.666289794921875,-3.0125884100437164,-1.2017495326668024,-0.6672153704643249
1780626350918284500,3.676284423828125,-0.6337129138350487,-0.7819996875077485,-1.4576929634600877
1780626350928279600,3.686279541015625,1.3243582597255705,-0.0744049603819847,-0.46491585157513615
1780626350938275600,3.696275634765625,2.3902315874814986,1.4824310988754033,0.8690642229765653
1780626350948270600,3.7062705078125,2.44427648140192,2.764731255072355,1.8110966515302658
1780626350958265600,3.716265625,1.155694614586979,2.859737104934454,2.1629273911952973
1780626350968261400,3.726261474609375,0.5863923597335815,2.878942740663886,1.6796972997725008
1780626350978256400,3.73625634765625,-0.003329436683654785,2.7018273473918435,1.0536275941669941
1780626350988251400,3.74625146484375,0.08013086374811827,1.9465461554616688,1.1524199768304824
1780626350998247700,3.75624755859375,-0.42635143538117404,1.2076087800890207,1.0521756417930126
1780626351008242700,3.76624267578125,-1.843515404576063,0.9839093302965164,0.9454501280426979
1780626351018237700,3.77623779296875,-2.278987573393434,1.522247560957074,0.9174100284725427
1780626351028233500,3.7862333984375,-1.7117597867265342,1.5236094969600438,0.816404645934701
1780626351038228500,3.796228515625,-0.9313936917699873,1.5884399887889622,0.9784253459274769
1780626351048223500,3.806223388671875,-0.8226936630763113,0.9274497764497995,0.7889584206044673
1780626351058219800,3.8162197265625,-0.558778084360063,0.3558984274953604,0.7434504688829183
1780626351068214500,3.826214599609375,-0.40220132898688316,-0.0791805042207241,0.7716811225891113
1780626351078209500,3.83620947265625,-0.4851040686011314,-0.08546002288162707,0.7433487620741128
1780626351088205600,3.84620556640625,-0.5673799084886908,-0.05378536620140075,0.3509124557763338
1780626351098200600,3.85620068359375,-0.9235071763038635,-0.7285697106152772,-0.13734393937587738
1780626351108195600,3.866195556640625,-2.0545723765470085,-0.5533604432255029,0.011648352217674254
1780626351118191400,3.87619140625,-2.7250360812827945,-0.22660335454046726,0.4623310957789421
1780626351128186400,3.886186279296875,-2.7994927718520164,0.02985796264708042,1.0612404072582722
1780626351138182700,3.8961826171875,-2.3761072005391117,0.0512695839881897,1.4481196639508007
1780626351148177700,3.906177734375,-1.9398960499227045,-0.005884966385364532,1.28129653211236
1780626351158172700,3.916172607421875,-0.23410072455853223,0.23897359129190443,0.8695417773604392
1780626351168168400,3.92616845703125,1.9571219100117683,0.09143500563800334,0.12919278162419795
1780626351178163500,3.93616357421875,2.6750112366586922,-0.06714519851207733,-0.4020271414637565
1780626351188158500,3.946158447265625,1.8455276211813092,-0.35072657781541344,-0.5653621389254927
1780626351198154500,3.956154541015625,0.8237140921652316,-0.8307534892827272,-0.41479777570962906
1780626351208149800,3.966149658203125,0.7855819299086928,-1.0344336488753556,-0.15772446410357951
1780626351218144800,3.976144775390625,1.2062182025134562,-0.7860551003783941,0.5724138110026716
1780626351228140500,3.986140625,1.191932487529516,-0.9167214616864919,0.7921490333393215
1780626351238135600,3.996135498046875,1.1884382156729698,-2.572238259926438,-0.23784078786969184
1780626351248130600,4.006130615234375,-0.48036710320711135,-4.132708876293897,-0.686450816810131
1780626351258126600,4.016126708984375,-0.1326987439185381,-2.7237697146087885,1.137703761474788
1780626351268121600,4.02612158203125,0.15750249191597104,-1.7751316041797398,2.151127355547249
1780626351278116400,4.036116455078125,-0.681024553977698,-0.9167243842959404,2.9197265864729878
1780626351288112600,4.046112548828125,-2.046425602709502,0.2660492297440767,3.3423566632434722
1780626351298107600,4.056107666015625,-2.314261569739878,1.225911329498887,3.4145486237511036
1780626351308102700,4.0661025390625,-2.192030736082792,1.923233668935299,3.281181479051709
1780626351318098400,4.076098388671875,-1.6063769197568296,2.0113596961557865,2.7146745540052653
1780626351328093400,4.086093505859375,-0.997623382872343,1.5865443843007088,1.9299632694512605
1780626351338088700,4.096088623046875,-0.5899687569156289,1.0410311474442482,1.1655924698755145
1780626351348085000,4.1060849609375,-0.10965689102709293,0.7031938618183136,0.615637597309798
1780626351358080000,4.116080078125,0.10221358928382396,0.5922340714991092,0.615062281639874
1780626351368075000,4.126074951171875,0.2364952184796333,0.5733844096004963,0.842839063873887
1780626351378070800,4.13607080078125,0.1873217299878597,0.24937632736265658,1.0094406619161367
1780626351388065800,4.146065673828125,-0.041456630504131314,-0.44455636963546274,0.8719275765184312
1780626351398060800,4.156060791015625,-0.11124781348034739,-1.7573387578576802,0.024398272469080984
1780626351408056800,4.166056884765625,-0.34723552082926035,-3.2969711688578127,-0.8015586667194962
1780626351418051800,4.1760517578125,-0.28947277542948724,-4.98439760157764,-1.649852050476521
1780626351428046600,4.186046630859375,-0.29743425582796335,-6.900280323228239,-2.7356436922758816
1780626351438043000,4.19604296875,-0.8709925606906413,-7.946415515813231,-3.48370983826071
1780626351448038000,4.206037841796875,-0.2017373549617827,-8.50759978453219,-3.980674732786417
1780626351458033000,4.216032958984375,3.240196557712555,-7.186724690747261,-3.6377065140128133
1780626351468028700,4.226028564453125,4.849406070546806,-4.1922880234658715,-2.4771760037019845
1780626351478023700,4.236023681640625,3.443258293145895,0.8331102815419436,-0.20306524256467817
1780626351488018700,4.246018798828125,1.274037939286232,7.919740274855494,2.720004809117317
1780626351498015000,4.256014892578125,-0.7016039622783661,14.298158285927771,5.888832997664809
1780626351508010000,4.266010009765625,-1.2704827310226856,19.087116902035472,8.981974953848123
1780626351518005000,4.2760048828125,-0.6316774624846875,19.15818073529601,8.774662575232982
1780626351528000800,4.286000732421875,1.2648375647425651,12.249731718659401,2.6073744552373883
1780626351537995800,4.295995849609375,0.9371402725979685,2.8174890317916867,-3.46489174054414
1780626351547990800,4.30599072265625,-0.6882967369377613,0.5745031844973564,-4.281836192443967
1780626351557986800,4.31598681640625,0.29369302347302434,-0.75551383164227,-4.407583802050352
1780626351567981800,4.32598193359375,1.3663739854171872,-1.6921341720193623,-3.8322242929846047
1780626351577976600,4.3359765625,1.1864166467174886,-1.6628496253460645,-2.164053034224361
1780626351587972900,4.345972900390625,0.4014461267054081,-1.021672366979718,-0.14003931593969463
1780626351597968000,4.3559677734375,-0.5364250905156135,-0.4823305122345686,1.1804741049259901
1780626351607964000,4.3659638671875,-0.9125050130352378,-0.42628187727630135,1.737587909335643
1780626351617959000,4.375958984375,-0.4338154876515269,-0.7960235366851091,1.7221597463183105
1780626351627953700,4.38595361328125,-0.5767021558463573,-1.0626228015273809,1.475553614321351
1780626351637949700,4.39594970703125,-0.7144888705536723,-1.128878942245245,1.1638513252966105
1780626351647945000,4.405945068359375,-0.19967998404055834,-1.0859440558820963,0.8512082482904195
1780626351657940000,4.41593994140625,0.33121932879090304,-0.8522638948231935,0.717999216762185
1780626351667935700,4.425935791015625,0.5468536916799843,-0.570246111574769,0.6477972610279917
1780626351677930800,4.4359306640625,0.39828181745558977,-0.49319794320762156,0.49084071255698797
1780626351687925800,4.44592578125,0.1947489573791623,-0.5459054510444402,0.22701646538600323
1780626351697921800,4.455921875,0.0043570261657238,-0.6371358740210533,-0.030868747124820947
1780626351707916800,4.465916748046875,-0.25941081464290616,-0.8331085279762744,-0.2103872560158372
1780626351717911800,4.475911865234375,-0.4274903762832284,-1.0117448472052812,-0.28630963522344827
1780626351727907800,4.485907958984375,-0.2534051444873214,-1.1434802990496158,-0.26131957087367774
1780626351737902800,4.49590283203125,0.24001550156027077,-1.1139853244960307,-0.17904168515950442
1780626351747897900,4.50589794921875,0.5233572268888353,-0.9301029213070869,-0.06771949126869439
1780626351757894000,4.515893798828125,0.4493365896493196,-0.8227274192154407,-0.09370689609274267
1780626351767889000,4.525888916015625,0.23717706326395271,-0.7227198155432939,-0.21376798449531195
1780626351777883600,4.535883544921875,0.15357494320869444,-0.5763339070558547,-0.33417905537933107
1780626351787879700,4.545879638671875,0.07676730559915304,-0.5421832156509161,-0.3786816294506192
1780626351797874700,4.555874755859375,-0.0252861246868968,-0.5720411782979965,-0.23713278573080895
1780626351807870000,4.565869873046875,0.10457242736965418,-0.6827671598613262,-0.041697161261737344
1780626351817865700,4.57586572265625,0.5535790544122458,-0.8915636395543813,-0.12483780128508805
1780626351827860700,4.58586083984375,0.5377051934540271,-0.8527537241667509,-0.06810878284722566
1780626351837855700,4.595855712890625,0.47235330809950826,-0.9890922858923673,0.01311433311700821
1780626351847851800,4.605851806640625,0.2801961207792163,-1.068812303817272,0.3924162864230573
1780626351857846800,4.6158466796875,0.36799949191659687,-1.182704640457034,0.6103859603919088
1780626351867841800,4.625841796875,0.7168555996850132,-1.0861194124490021,0.8433432140037417
1780626351877837800,4.635837890625,0.7654960042133927,-0.8199538628488778,1.1370974661447106
1780626351887832800,4.645832763671875,0.7509376097679138,-0.5791331823855638,1.3627496574401854
1780626351897827800,4.655827880859375,0.8175766123235225,-0.39674014097154137,1.476024592833966
1780626351907823900,4.665823974609375,0.9727952310860156,-0.2857131306350231,1.4166396530598402
1780626351917819000,4.67581884765625,1.107893729622662,-0.24341829574108123,1.1228761946991086
1780626351927814000,4.68581396484375,1.0853554423391818,-0.31324937233626843,0.5660431069269776
1780626351937809700,4.6958095703125,0.796764125919342,-0.24939152493178843,0.0374924030482769
1780626351947804700,4.7058046875,0.5861386772334576,0.007032382854819297,-0.40533246661946176
1780626351957800000,4.715800048828125,0.3605482991278171,0.3857125510007143,-0.8107599180459976
1780626351967796000,4.7257958984375,0.17188889079540967,0.9685621235609054,-0.9104618167698383
1780626351977790700,4.735790771484375,-0.0014537059396505356,1.7177052511274813,-0.6599927257344126
1780626351987785700,4.74578564453125,0.07462912452667951,2.3767104271292685,-0.24960282959491012
1780626351997781800,4.75578173828125,0.25795360157191755,2.610827226039767,0.33682942375764247
1780626352007776800,4.76577685546875,0.3311319427683949,2.2473148164093493,0.8660847687743604
1780626352017772800,4.775772705078125,0.24363310753554104,1.6355793411046267,1.1765389574341476
1780626352027767800,4.785767822265625,0.11188421168774365,0.9319377355188131,1.1807456153437494
1780626352037762800,4.7957626953125,-0.09886457111686467,0.09782149180471897,0.879973155003786
1780626352047758800,4.8057587890625,-0.3887888897061348,-0.5772165351092815,0.5492882253505289
1780626352057753900,4.81575390625,-0.8983505232155322,-0.9587579379051924,0.393285032081604
1780626352067748900,4.825748779296875,-1.5110206490218638,-1.1416571752756834,0.4559077847331762
1780626352077744600,4.83574462890625,-1.99181708355695,-1.1646820770323276,0.5845689436987042
1780626352087739600,4.84573974609375,-1.9711890138089656,-1.046871105644107,0.5447371379174292
1780626352097734700,4.855734619140625,-1.509586232304573,-0.7558937708705663,0.5089090148195624
1780626352107731000,4.86573095703125,-1.1000750186957418,-0.29925884090662,0.6294448811270296
1780626352117726000,4.875725830078125,-0.9522808508455752,0.14960662409961223,0.7618431807942688
1780626352127721000,4.885720947265625,-1.0872840723142028,0.4839502223908901,0.7844841977998613
1780626352137716700,4.895716796875,-1.1965772445954381,0.6060965926349162,0.544729100741446
1780626352147711700,4.905711669921875,-1.0035752770140767,0.5152285732299089,0.11344795387312769
1780626352157706800,4.915706787109375,-0.8115411315515637,0.46614451658725736,-0.2221574810475111
1780626352167703000,4.925703125,-0.7223631110601126,0.5161000953674316,-0.407198845013231
1780626352177697800,4.93569775390625,-0.6876233677208423,0.5835077442079782,-0.5034041337929666
1780626352187692800,4.94569287109375,-0.8702914266839623,0.5462468118280172,-0.48927141741365193
1780626352197688800,4.955688720703125,-1.1118199631556869,0.37928690186738967,-0.4537327787816524
1780626352207683800,4.965683837890625,-1.2423873941339552,0.15744447811841963,-0.3023822336241603
1780626352217678800,4.975678955078125,-1.3575111722648143,-0.04387479756176471,-0.04039966879710555
1780626352227674600,4.985674560546875,-1.3704093784131108,-0.1938052467882633,0.23816285943090915
1780626352237669600,4.995669677734375,-1.1818624905444681,-0.3500982167840004,0.4608121425833553
1780626352247664600,5.00566455078125,-0.9854454538226127,-0.4944254391759634,0.5898745027609169
1780626352257661000,5.015660888671875,-0.8236499408878386,-0.5287941572457552,0.5683065218143165
1780626352267656000,5.025656005859375,-0.6640051762461662,-0.4384463623225689,0.4997232533231377
1780626352277651000,5.03565087890625,-0.6662836425721645,-0.22613281441926955,0.36257863591164347
1780626352287646700,5.045646728515625,-0.8127215735077857,0.005660509979724884,0.204957120725885
1780626352297641700,5.055641845703125,-1.0059491665385663,0.1854272945433855,0.01255436114668846
1780626352307636700,5.06563671875,-1.1259329519212244,0.2817512412667274,-0.1779648497082293
1780626352317633000,5.075633056640625,-1.165451307839155,0.3190150962561369,-0.3070991060782224
1780626352327627800,5.085627685546875,-1.0119862547457217,0.31213176648318763,-0.4253707537807524
1780626352337622800,5.095622802734375,-0.8829284976780414,0.24566110623180865,-0.5138193640191108
1780626352347617800,5.10561767578125,-0.82757295955047,0.23042437413334846,-0.5111305633265525
1780626352357612800,5.11561279296875,-0.8045347599208355,0.262370833492279,-0.4656580482445657
1780626352367609000,5.125609130859375,-0.7970563868641853,0.3198901255249977,-0.4243190527707338
1780626352377604000,5.13560400390625,-0.8342997835874557,0.37370471782088277,-0.4094494004189968
1780626352387599000,5.14559912109375,-0.8627895266212523,0.3723796066969633,-0.3258741683706641
1780626352397595000,5.155594970703125,-0.7794448153931647,0.3039075434952974,-0.19805282123014328
1780626352407590000,5.16558984375,-0.5958114185292274,0.11246610322892665,-0.08003361391872167
1780626352417585000,5.1755849609375,-0.3340811479628086,-0.09507716153264045,-0.04009206415265798
1780626352427581000,5.185580810546875,-0.1531727921485901,-0.25322072783112526,-0.07311221715770662
1780626352437576000,5.195575927734375,-0.09144033940024673,-0.3250689894676208,-0.09963540935888886
1780626352447571000,5.205571044921875,-0.008518822020292282,-0.37278351132273674,-0.1434274970732629
1780626352457567000,5.21556689453125,0.004518354207277297,-0.3584983808606863,-0.1609788627896458
1780626352467562000,5.22556201171875,-0.09694996966719627,-0.29246143585145473,-0.22566629288606344
1780626352477557000,5.235556884765625,-0.18793898510336876,-0.15268705445826053,-0.3394104532267898
1780626352487552800,5.245552734375,-0.21078443863987922,-0.04676467378437519,-0.48442507336102425
1780626352497547800,5.2555478515625,-0.2494587449491024,0.028837387427687645,-0.6675632340539246
1780626352507542800,5.265542724609375,-0.2420692557523027,0.1317009650528431,-0.8281047283396125
1780626352517539000,5.2755390625,-0.15468089515659958,0.18984803359508512,-0.9489856817577034
1780626352527534000,5.2855341796875,-0.10616086560487746,0.20958324615657328,-1.0106029106285424
1780626352537529000,5.295529052734375,-0.05077511500213295,0.241083715313673,-0.9858624371256679
1780626352547524900,5.30552490234375,0.14335399344563482,0.25601298889815804,-0.9116489076625556
1780626352557520000,5.315519775390625,0.46941663359310476,0.21568331659734247,-0.8502114923380315
1780626352567515000,5.325514892578125,0.671698653358221,0.17387421939373016,-0.7687312598075717
1780626352577511000,5.335510986328125,0.5991945946941152,0.17801497246026993,-0.6413054878558964
1780626352587506000,5.345505859375,0.33621352034900337,0.18478841211795805,-0.48127559635415673
1780626352597501000,5.3555009765625,-0.006781659496761858,0.13137187922894955,-0.24731844498477876
1780626352607497000,5.3654970703125,-0.39766890972163527,0.024290391647815702,0.048336380080506204
1780626352617492000,5.375491943359375,-0.6718436147868633,-0.17448036859333513,0.26528248315528036
1780626352627487000,5.385487060546875,-0.766429777932167,-0.382818583124876,0.4169706627693027
1780626352637483000,5.39548291015625,-0.6893348478138447,-0.468569697907567,0.5692567352112382
1780626352647477800,5.405477783203125,-0.49226917445752766,-0.43871699595749375,0.6729406162433326
1780626352657472800,5.41547265625,-0.27491007013507185,-0.372635627284646,0.6343835065729916
1780626352667469000,5.425468994140625,-0.13652443968653677,-0.2303998242139816,0.36363757038004696
1780626352677464000,5.435464111328125,-0.023290859216451642,0.015791443371772764,-0.1133615176986903
1780626352687459000,5.445458984375,0.18482815960645674,0.23886487022042274,-0.5090891936920583
1780626352697454800,5.455454833984375,0.45336566250231114,0.31728900311589237,-0.776081768700853
1780626352707449900,5.465449951171875,0.7041045469224453,0.33663258601129054,-0.9320798474032431
1780626352717444900,5.47544482421875,0.827023655104637,0.29899989770948887,-0.9983628761280328
1780626352727441000,5.48544091796875,0.8545441147148609,0.20243454344570636,-0.9764044345591216
1780626352737436000,5.495435791015625,0.8656570448815822,0.05927051961421966,-0.825703877742961
1780626352747431000,5.505430908203125,0.8253811485946178,-0.061739540076255796,-0.5935235998529941
1780626352757427000,5.515427001953125,0.7023533193409442,-0.13581132298111914,-0.33315000459253785
1780626352767422000,5.525421875,0.6054267305493355,-0.12849486248791217,-0.11818499233238398
1780626352777417000,5.5354169921875,0.6110381406903267,-0.01226677637696266,-0.1162746286664158
1780626352787413000,5.5454130859375,0.6790647982120513,0.310419117346406,-0.25720577887929974
1780626352797407700,5.55540771484375,0.781131672501564,0.619079408326745,-0.3555431112516671
1780626352807404000,5.565404052734375,0.8406313246965408,0.5674947670400142,-0.40494923945553596
1780626352817399000,5.57539892578125,0.7302081254720687,0.3057441112726927,-0.3273094618707895
1780626352827394000,5.58539404296875,0.5871008002638817,0.04911152917146683,-0.11432575962096451
1780626352837389800,5.595389892578125,0.44119712233543396,-0.1507137085586786,0.1990884478881955
1780626352847384800,5.605384765625,0.043553885911172256,-0.19014847784638403,0.5152054115500301
1780626352857379800,5.6153798828125,-0.6419979270994662,-0.03844166659712791,0.7809449908230454
1780626352867375900,5.6253759765625,-1.434018073362112,0.22733049977123737,0.8718700741775334
1780626352877371000,5.635370849609375,-2.1099977650403976,0.43544367337524886,0.7336855192590505
1780626352887366000,5.645365966796875,-2.555626732343435,0.41786885371804233,0.4053491254933178
1780626352897362000,5.65536181640625,-2.677016731262207,0.22207097180783747,0.1487375861801207
1780626352907357000,5.66535693359375,-2.555810272216797,-0.03589139759242534,0.05316197360605001
1780626352917352000,5.67535205078125,-2.2724212006151676,-0.32633155674934383,0.031444647316634655
1780626352927348000,5.685347900390625,-1.9012790267586708,-0.5566325967639685,0.05709207959659397
1780626352937343000,5.695343017578125,-1.5407541085064411,-0.6670452745944261,0.13735234187804163
1780626352947338000,5.705337890625,-1.166030057575181,-0.6620861908823251,0.22289185973666606
1780626352957334000,5.715333984375,-0.7716963201582432,-0.6118558868139982,0.2984919481873512
1780626352967329000,5.7253291015625,-0.46881695066690443,-0.4922019179075956,0.39694991126470264
1780626352977324000,5.735323974609375,-0.380835848342441,-0.3039554742902517,0.5732822644002735
1780626352987320000,5.745320068359375,-0.4677964119801298,-0.09258242210745811,0.7738737372625619
1780626352997314800,5.755314697265625,-0.7822095308661461,0.11775310372114181,0.9151889183569699
1780626353007309800,5.765309814453125,-1.0280150140047073,0.9999760834783316,1.8603120794676242
1780626353017305900,5.775305908203125,-0.7636801869630813,1.0424982973873615,2.309574142576009
1780626353027300900,5.78530078125,-0.5853028109312057,-0.0745101743221283,0.9712845342621207
1780626353037295900,5.7952958984375,-0.8916717761039733,-0.5874865847110748,0.7463361073218285
1780626353047292000,5.8052919921875,-1.3533213193595408,-0.9149369163572788,0.7098356379203498
1780626353057287000,5.815286865234375,-1.4333026185691355,-0.5770516999363899,1.0645191366679967
1780626353067282000,5.825281982421875,-1.3529402110874653,-0.11769231344461441,1.292994422560185
1780626353077278000,5.83527783203125,-1.2752023068904876,-0.07000643316209317,1.232670156109333
1780626353087273000,5.84527294921875,-1.2231330969572067,-0.1534814197063446,0.9484268057659268
1780626353097268000,5.85526806640625,-1.1830594452440737,-0.2809340796649456,0.3881700271554291
1780626353107264000,5.865263916015625,-1.0831307520270348,-0.286834243619442,-0.5768589538432657
1780626353117259000,5.875259033203125,-1.0642542021214962,0.0008089782953262329,-1.2322444780431687
1780626353127254000,5.88525390625,-1.0602151558637618,0.4594464802533388,-0.7801049598023295
1780626353137250000,5.89525,-0.8646528362751007,0.43942309840023513,-0.5465925565257668
1780626353147245000,5.9052451171875,-0.6391068818330764,0.03941606458723545,-0.35864115033224225
1780626353157239800,5.91523974609375,-0.5343360458144918,-0.3424649454265833,0.22923136495649812
1780626353167235800,5.92523583984375,-0.4307236591160297,-0.6114519821882247,0.3857967221528292
1780626353177230800,5.93523095703125,-0.39221418797969815,-0.7367226219326257,-0.09701967390254139
1780626353187225900,5.945225830078125,-0.5413712782135233,-0.5160708692729473,-0.22216887922436
1780626353197222000,5.955221923828125,-0.852160434448719,-0.03642097442448139,0.18533727817237375
1780626353207217000,5.965216796875,-0.9154524646639823,0.330924729758501,0.6351286258518696
1780626353217212000,5.9752119140625,-0.8962555236976594,0.2837058824658394,1.0513754313260317
1780626353227208000,5.9852080078125,-0.6899450886666775,0.05903846442401409,1.3762785627074539
1780626353237203000,5.995202880859375,-0.27272965735606847,-0.12504384525120257,1.267903966575861
1780626353247198700,6.00519873046875,0.006552563448622822,-0.21116087073683737,0.9921519657239317
1780626353257194000,6.015194091796875,-0.082836104118824,-0.20464462071061132,1.0880366442471743
1780626353267189000,6.02518896484375,-0.41427514007501304,-0.16674012973010538,1.4167397524334489
1780626353277185000,6.03518505859375,-0.8591255242209881,-0.19955811122655867,1.7006103239417074
1780626353287180000,6.045179931640625,-1.2028034256339073,-0.28686171614825723,1.7353157266199588
1780626353297175000,6.055175048828125,-1.5248340703189371,-0.29385435151457784,0.7803620033033192
1780626353307170800,6.0651708984375,-1.7306699466407298,-0.12977730351388453,-0.3373405881501734
1780626353317165800,6.075165771484375,-1.833653351253271,0.232954184871912,-0.40200653706714506
1780626353327160800,6.085160888671875,-1.730015282124281,0.4727344163715839,-0.104606329639256
1780626353337157000,6.0951572265625,-1.3047604098081589,0.4474807326495647,-0.47540743497312066
1780626353347152100,6.105152099609375,-0.5901485704619437,0.3749894969344139,-1.1625175924748181
1780626353357147400,6.1151474609375,0.2971067043740302,0.304598448368907,-1.363594437701255
1780626353367143400,6.125143310546875,1.077180173059553,0.15674714350402355,-1.346899761879444
1780626353377138400,6.135138427734375,1.3943898273289204,-0.054871407872438424,-1.1825713694661855
1780626353387133400,6.145133544921875,1.3371053669653832,-0.2118172888189554,-1.1186192679069935
1780626353397129200,6.155129150390625,0.9912894306104629,-0.3477221353024244,-1.0381558842688798
1780626353407124200,6.165124267578125,0.42265952206067736,-0.5128484000951051,-0.48823359879851336
1780626353417119200,6.175119140625,-0.0482897644598037,-0.6135054075866937,-0.4911088619738817
1780626353427115500,6.185115478515625,-0.24900639807172117,-0.5295686487495899,-0.7026166464522481
1780626353437110500,6.195110595703125,-0.15777539057321846,-0.3202642195343971,-0.8240916933059692
1780626353447105300,6.205105224609375,0.02752396674156189,-0.08716565775573253,-0.9717845927387475
1780626353457101300,6.215101318359375,0.1464800165116787,0.049969022783637046,-1.2572504706144332
1780626353467096300,6.225096435546875,0.15911862187571824,0.18202829975485801,-1.1978200842633844
1780626353477091300,6.23509130859375,0.0967348656117916,0.35037761824727054,-0.5359259088218212
1780626353487087400,6.24508740234375,0.19439908449556678,0.44876843437254427,0.296151814801991
1780626353497082000,6.25508203125,0.41576106778383254,0.36622049954533575,0.6769684104546904
1780626353507077400,6.265077392578125,0.80282912504673,0.15835516322255133,0.42278526733219624
1780626353517073400,6.275073486328125,1.2066647772371768,0.013174538871645927,0.21492168457508085
1780626353527068400,6.285068359375,1.5540601648032664,-0.013443418940901756,-0.09883563728332519
1780626353537063400,6.2950634765625,1.7697253612220287,-0.06188683959245681,-0.6026011517345905
1780626353547059200,6.30505908203125,1.7504864077448843,-0.12819441823661326,-1.0351616708889604
1780626353557054200,6.31505419921875,1.5428946276664732,-0.17024433845877646,-1.187171556738019
1780626353567049200,6.32504931640625,1.1544728177070618,-0.1895662940442562,-0.9727002462789416
1780626353577045500,6.33504541015625,0.6113374524304643,-0.2378980710148811,-0.5773506828829645
1780626353587040500,6.34504052734375,0.12457564321756362,-0.34735739364325996,-0.5793421489611268
1780626353597035500,6.355035400390625,-0.2045803233027458,-0.28017712381780147,-0.5193363008096814
1780626353607031300,6.36503125,-0.23225509669184682,-0.1151134028673172,-0.5262494411990046
1780626353617026300,6.3750263671875,0.048152895006071776,0.028161095601320265,-0.997595325821638
1780626353627021300,6.385021240234375,0.4017757970511913,0.06694295393824577,-1.0069769021511077
1780626353637017300,6.395017333984375,0.5705471403479576,0.03148994776308536,-0.8245344686374068
1780626353647012400,6.405012451171875,0.5472703096568584,0.10101531940996647,-0.6237576292708515
1780626353657007400,6.41500732421875,0.39455348111484195,0.18210136499106883,-0.3635805064305663
1780626353667003400,6.42500341796875,0.11052724412083625,0.20392156713306903,-0.10079437013566493
1780626353676998400,6.434998291015625,-0.032966998045705256,0.07090776591598986,0.08098492329418659
1780626353686993400,6.444993408203125,-0.010985504394769668,-0.08743336878120898,0.30567659899443383
1780626353696989200,6.4549892578125,0.0901215849518776,-0.22092121725082395,0.5482718879148364
1780626353706984200,6.464984130859375,0.2042131704907864,-0.2747252881526947,0.7927128047019243
1780626353716979200,6.474979248046875,0.19913148331232366,-0.24504385111629962,1.065295235607028
1780626353726975500,6.4849755859375,0.10531911755111067,-0.2244306866765022,1.2718524119406938
1780626353736970500,6.494970458984375,0.017739070308208465,-0.17009645442068574,1.3638985352143644
1780626353746965500,6.504965576171875,0.0032207156121730803,-0.13860358404815196,1.2588240035414695
1780626353756961300,6.514961181640625,0.20962832740731535,-0.24161212310194968,0.8962740092024206
1780626353766956300,6.524956298828125,0.5108184286374599,-0.4379284759283065,0.3347679611831903
1780626353776952300,6.534952392578125,0.6667126816391945,-0.5604974554985761,-0.13704495642930267
1780626353786947300,6.544947265625,0.5890483541350812,-0.46620764495134354,-0.3288493847891688
1780626353796942300,6.5549423828125,0.385537778955698,-0.25442192031443117,-0.28060440931916236
1780626353806938400,6.5649384765625,0.21825338628105817,-0.058363341641426085,-0.08247866898328066
1780626353816933400,6.574933349609375,0.0705272056331858,0.07886077074706555,0.15040420421808956
1780626353826928400,6.584928466796875,-0.000009352350234985351,0.1673813502430916,0.3336222982794046
1780626353836924400,6.59492431640625,-0.012996369293145835,0.21016250734925268,0.4462722336426377
1780626353846919400,6.60491943359375,0.03504084517769515,0.19029110118746756,0.44205578499138354
1780626353856914200,6.6149140625,0.13453114697746932,0.1665267792403698,0.44666269426494837
1780626353866910500,6.624910400390625,0.2767067808261141,0.11001578746736049,0.41464404645264147
1780626353876905500,6.634905517578125,0.3559083278348669,-0.021864625805616378,0.3581049976289272
1780626353886900500,6.644900390625,0.29529340787436814,-0.16579904948771,0.3291536284327507
1780626353896896300,6.654896240234375,0.1546129810195416,-0.32056466378569604,0.3373743442893028
1780626353906891300,6.664891357421875,-0.0009644976506009697,-0.4585013083577156,0.3014265403345227
1780626353916886300,6.67488623046875,-0.061620334143377836,-0.45806934668123717,0.25635201159417625
1780626353926882300,6.68488232421875,-0.026011260623671113,-0.3366986369848251,0.25440643048435446
1780626353936877300,6.694877197265625,0.03759882256481796,-0.13505436713397503,0.24916268461197613
1780626353946872300,6.704872314453125,0.04112462207078933,0.06629471916258335,0.18861410788595676
1780626353956868400,6.714868408203125,0.06588964549303054,0.10510229646265506,0.004831657940149307
1780626353966863400,6.72486328125,0.145860459841229,-0.06941957318484783,-0.26945786914378406
1780626353976858400,6.7348583984375,0.16574468895196914,-0.278001533344388,-0.4571487247049808
1780626353986854400,6.7448544921875,0.10595511389970778,-0.4307680827796459,-0.4587330712869763
1780626353996849400,6.754849365234375,-0.014266973750852048,-0.5736059433966875,-0.3666056994706392
1780626354006844200,6.76484423828125,-0.1714624820768833,-0.5996212591409683,-0.20886223840564488
1780626354016840400,6.77484033203125,-0.2891162536093965,-0.4850438628464937,-0.009774082778394222
1780626354026835500,6.78483544921875,-0.35820436635017394,-0.3366898691564798,0.15273644655793905
1780626354036830500,6.79483056640625,-0.3642565059959888,-0.22765724750757216,0.26974019321650267
1780626354046826200,6.804826171875,-0.33679106450863183,-0.25659283461272714,0.297806011749804
1780626354056821200,6.8148212890625,-0.3178431298673153,-0.37226796301603315,0.2537260470047593
1780626354066816300,6.824816162109375,-0.28473117039296775,-0.4544622620999813,0.17573942874372003
1780626354076812300,6.834812255859375,-0.2246236154327169,-0.43848610981106756,0.05489245066046714
1780626354086807300,6.844807373046875,-0.1618202455172315,-0.31832828303575517,-0.06497077708244324
1780626354096802300,6.85480224609375,-0.022921441382169724,-0.07961538850665092,-0.14896598810851572
1780626354106798300,6.86479833984375,0.08964340951349585,0.26783552863895893,-0.1402504744723439
1780626354116793300,6.87479345703125,0.06955689929630607,0.5742869113981723,-0.0059063014343380925
1780626354126788400,6.884788330078125,-0.005902538574673235,0.7482336115062236,0.22723580722510814
1780626354136784400,6.894784423828125,-0.11845690460894256,0.66351300881505,0.5251636917889118
1780626354146779400,6.904779296875,-0.26714173768851907,0.360457113713026,0.7731146625235676
1780626354156774400,6.9147744140625,-0.34390115224216133,-0.00682137045264244,0.8933195433109998
1780626354166770400,6.9247705078125,-0.28739425212237985,-0.362169178327918,0.8677002411469816
1780626354176765400,6.934765380859375,-0.14758943905830382,-0.6167232005894184,0.6858642490938306
1780626354186760400,6.944760498046875,-0.019568642089236525,-0.6923550724178552,0.40322336551100013
1780626354196756500,6.954756591796875,-0.016059154397249222,-0.6322679757237434,0.12911182534247637
1780626354206751200,6.964751220703125,-0.0866658550074324,-0.42409576540887356,-0.10690262388288974
1780626354216746200,6.974746337890625,-0.15508072639545425,-0.12417992189824581,-0.25091829610764976
1780626354226742300,6.9847421875,-0.13527820248510689,0.24107377844154834,-0.26985417498499153
1780626354236737300,6.9947373046875,-0.06987727209078147,0.5612795457869768,-0.19683423922061918
1780626354246732300,7.004732177734375,-0.017024748026393352,0.7158283024638891,-0.12392623939812182
1780626354256728300,7.014728271484375,0.04608719464791938,0.6224649591118097,-0.07079699901789427
1780626354266723300,7.024723388671875,0.1149170035123825,0.33175475084185596,-0.08024111918956041
1780626354276718300,7.03471826171875,0.22729601297974586,0.02893032640814781,-0.14038169963657854
1780626354286714400,7.04471435546875,0.32587329158782957,-0.1469897195994854,-0.19223259064406156
1780626354296709400,7.05470947265625,0.3401180900394916,-0.1262239949464798,-0.2201356198310852
1780626354306704400,7.064704345703125,0.22587094861268997,0.000011105915904045104,-0.20422668755948542
1780626354316700400,7.074700439453125,0.09237086171600967,0.0854068313896656,-0.17235124761015175
1780626354326695400,7.0846953125,0.03229132727384567,0.07530103243887425,-0.10705518409609795
1780626354336690400,7.0946904296875,-0.015412673187255858,0.016070260313153267,-0.0394683792963624
1780626354346687000,7.10468701171875,-0.06279051043391227,-0.04133212734162807,0.01840162587016821
1780626354356682000,7.114681884765625,-0.06330488969683647,-0.039515433308482166,0.05141688350439071
1780626354366677000,7.124677001953125,-0.003032499563694,-0.03672492580711841,0.0392199574932456
1780626354376673000,7.134673095703125,0.08105680122030899,-0.08006020966470241,0.0070674541682004925
1780626354386668000,7.14466796875,0.19128829553127288,-0.06859481279850006,0.03814648304283619
1780626354396664000,7.1546640625,0.3035141785298474,0.018202596166729926,0.11007365513443947
1780626354406659000,7.1646591796875,0.4190414046287536,0.12258417713940142,0.14722323609441518
1780626354416654000,7.174654052734375,0.5056488439798354,0.1545224531918764,0.10966390528976917
1780626354426650000,7.184650146484375,0.5225894573867321,0.14120879811048506,-0.015432254670560358
1780626354436645000,7.19464501953125,0.41887072423696514,0.10020400302708149,-0.11728840881884098
1780626354446640000,7.20464013671875,0.22867665368318557,0.014400281274318694,-0.18060586573630572
1780626354456636000,7.214635986328125,0.045437242839206006,-0.09009002076983451,-0.21236907748281955
1780626354466631200,7.224631103515625,-0.06241643469082191,-0.1875578768312931,-0.21751053202450274
1780626354476626200,7.234626220703125,-0.07263385905623436,-0.23883915125727653,-0.22251959235817192
1780626354486622200,7.244622314453125,0.005841711765527725,-0.1473199744671583,-0.17350012538433074
1780626354496617000,7.254616943359375,0.11875731232762336,-0.007140519404411316,-0.12123597740083931
1780626354506612000,7.264612060546875,0.08945990617275237,0.14034312119185924,-0.05538461809158325
1780626354516608000,7.27460791015625,-0.009254168823827057,0.205046187248826,0.006925999870896339
1780626354526603000,7.28460302734375,-0.0905857135985978,0.12842296629548072,0.0516287726894021
1780626354536598000,7.294597900390625,-0.14570260239839553,0.005605564922094345,0.13267623982578516
1780626354546594000,7.304593994140625,-0.11772153953909874,-0.09143909729123115,0.22022066776603458
1780626354556589000,7.314589111328125,-0.06570493657588958,-0.18601824617385862,0.2855909655600786
1780626354566584000,7.324583984375,-0.051056799754034723,-0.3141086195141077,0.25957944920808074
1780626354576580000,7.334580078125,-0.02835515686869621,-0.43294425777494905,0.1584670991644263
1780626354586575000,7.3445751953125,0.008995791882276534,-0.3849029881834984,0.05411006811112165
1780626354596570000,7.354570068359375,0.06702597431289031,-0.1667915676563978,0.0016840075641870497
1780626354606566000,7.36456591796875,0.11435114979054778,0.05521218413412571,-0.06089315237998962
1780626354616561200,7.37456103515625,0.12213351076245307,0.18649755412340163,-0.13396248024404048
1780626354626556200,7.38455615234375,0.07868950583338737,0.272503520449996,-0.14597966577410698
1780626354636552200,7.39455224609375,0.07083822607742622,0.29306758505105973,-0.10414835673868655
1780626354646547200,7.404547119140625,0.13209847647044806,0.18620587770044802,-0.0669417848944664
1780626354656542000,7.4145419921875,0.19946228616926817,-0.03269640094339847,-0.0389411405518651
1780626354666538000,7.4245380859375,0.25923666365239767,-0.22266426152586935,-0.015787643979489802
1780626354676533000,7.434532958984375,0.26989129212498664,-0.31352234405875207,-0.00961333925873041
1780626354686528000,7.444528076171875,0.28876550394296646,-0.2495972766369581,-0.053445466722548005
1780626354696524000,7.45452392578125,0.27824524243976917,0.0278197348177433,-0.02598930452018976
1780626354706519000,7.46451904296875,0.23840664159152655,0.3225947083085775,0.031132512627542016
1780626354716514000,7.47451416015625,0.17279519198536872,0.5095072729736566,0.10516776291429995
1780626354726510000,7.484510009765625,0.12752161527527495,0.4852268181979656,0.11743746190071105
1780626354736505000,7.494505126953125,0.1146013434256427,0.2579500944405794,0.13370850548297167
1780626354746500000,7.5045,0.13152208308828994,-0.01243628772497177,0.18279899186640977
1780626354756496000,7.514495849609375,0.1341641220296733,-0.27181203105449675,0.19015870697945356
1780626354766491100,7.5244912109375,0.13747604132294655,-0.4740454989701509,0.16667174066901205
1780626354776486100,7.534486083984375,0.09938742594718933,-0.584263531011343,0.13133768469840287
1780626354786482200,7.544482177734375,0.0654734293749556,-0.5547551124542951,0.049045185936987395
1780626354796477200,7.554477294921875,0.041385282300971445,-0.3671136489927769,-0.02454290510416031
1780626354806472000,7.564471923828125,-0.002469056994654238,-0.06818272486627101,-0.005173895506560802
1780626354816468000,7.574468017578125,-0.03857497412059456,0.19913725546598432,0.01040156702697277
1780626354826463000,7.584462890625,-0.025911891902424395,0.30192075359225273,-0.016438509103655814
1780626354836458000,7.5944580078125,-0.06262337370608001,0.22407646641135215,0.006900865429639816
1780626354846454000,7.6044541015625,-0.11646711903121322,0.09027063803374767,0.07848521543294192
1780626354856449000,7.614448974609375,-0.19464925986435264,-0.0380196417927742,0.13477788828015327
1780626354866444000,7.624444091796875,-0.2111854571888223,-0.13095394607782362,0.15796791747063396
1780626354876440000,7.634440185546875,-0.1519956015953794,-0.18103227445483205,0.16327449944615363
1780626354886435000,7.64443505859375,-0.0812766362497583,-0.14584931739270687,0.18207155437469483
1780626354896430000,7.65443017578125,-0.00826397047638893,-0.11308160477876662,0.20008651901483535
1780626354906425900,7.66442578125,0.06798574098944664,-0.05534136347174644,0.1881587653338909
1780626354916421000,7.674421142578125,0.13897358640432356,0.008738017728924751,0.1491392988488078
1780626354926416100,7.684416015625,0.15333528923392295,0.06422492715120315,0.12733780140727757
1780626354936412200,7.694412109375,0.140202324481681,0.0946001916706562,0.07357377025485039
1780626354946407200,7.7044072265625,0.053062897145748134,-0.00563712910413742,0.03782236565500498
1780626354956402200,7.714402099609375,-0.049366380715370174,-0.15202479115724563,0.03229308083951473
1780626354966398000,7.72439794921875,-0.17680742330141364,-0.2673731718242168,0.041946752108633516
1780626354976393000,7.73439306640625,-0.24871523310542104,-0.35236616171598434,0.04984364283829927
1780626354986388000,7.744387939453125,-0.33148360575027763,-0.2811345706731081,0.08156272318214178
1780626354996384300,7.75438427734375,-0.4020610437333584,-0.14163725265562532,0.11652969940602778
1780626355006379000,7.76437890625,-0.3719780401587486,-0.05071545723676681,0.12641688717007638
1780626355016374000,7.7743740234375,-0.2745453284759074,-0.022752514556050298,0.1002662546083331
1780626355026370000,7.7843701171875,-0.1780067891538143,-0.07016776120364665,0.03746843765079975
1780626355036365000,7.794364990234375,-0.07575418303385377,-0.0871060365229845,-0.0009296820655465126
1780626355046360000,7.804360107421875,0.010382204739376902,-0.10590426049530506,-0.020596505565941333
1780626355056355800,7.81435595703125,0.09009118981361389,-0.05771686043143272,-0.04815145196765661
1780626355066351000,7.82435107421875,0.1447450824778527,-0.03552607141137123,-0.08479951314628124
1780626355076346000,7.83434619140625,0.14549568164944648,0.0004138414978981018,-0.15533786122798918
1780626355086342100,7.844342041015625,0.10847907941937446,0.08688976342380046,-0.19158377134650945
1780626355096337200,7.854337158203125,0.06305237624049187,0.13116963465511797,-0.2206575978785753
1780626355106332200,7.864332275390625,-0.03906820099763572,0.09370762674510479,-0.2218584981009364
1780626355116328000,7.874327880859375,-0.1398702429831028,-0.039539983227849004,-0.1745084256440401
1780626355126323000,7.884322998046875,-0.17240480442829428,-0.24744272895157335,-0.10962094293087721
1780626355136318000,7.89431787109375,-0.20925182224512098,-0.46005730562806124,-0.049128480306267736
1780626355146314200,7.904314208984375,-0.21551548574976623,-0.6096937403440476,0.031736616000533104
1780626355156309200,7.914309326171875,-0.191004144827649,-0.5908113452196121,0.0979398574873805
1780626355166304000,7.924303955078125,-0.06332359439730643,-0.4678747013807297,0.09375088136494159
1780626355176300000,7.934300048828125,-0.641274215934798,-0.2704664616644382,-0.08795680813342333
1780626355186295000,7.944294921875,-0.925507410210371,-0.18343056776821612,-0.29288872135281563
1780626355196290000,7.9542900390625,-0.5899602813482284,-0.09307400501668453,-0.26350626726299525
1780626355206286000,7.9642861328125,-0.1467103181362152,-0.2019090582668781,-0.3466758411198854
1780626355216281000,7.974281005859375,0.34147761488966644,-0.2734533685207367,-0.17110680050700902
1780626355226276000,7.984276123046875,0.16199790363907812,-0.1806909136712551,-0.22152385931909083
1780626355236272000,7.994272216796875,1.4540554837405681,-0.10308861855268478,-0.24118249951303003
1780626355246267100,8.00426708984375,2.1837457228183745,0.12796528565585613,-0.13027063998878002
1780626355256262100,8.01426220703125,1.7186673741579055,0.47707507592439646,-0.03628828795552254
1780626355266258000,8.0242578125,1.3027297807633875,0.6105845517039299,-0.06453092436045407
1780626355276253000,8.0342529296875,0.8435200318753718,0.54603638394773,-0.2021668324202299
1780626355286248000,8.044248046875,0.463686163649708,0.32783962322473525,-0.5350593551203608
1780626355296244200,8.054244140625,0.09801957166008651,0.006263152047991752,-0.9786121006712317
1780626355306239200,8.0642392578125,-0.06689969931840896,-0.2844055551677942,-1.3822373249813913
1780626355316234000,8.07423388671875,0.040597383326292036,-0.33129590115845203,-1.3606138144552706
1780626355326230000,8.08422998046875,0.2933269666396081,-0.3090934217005968,-1.02446638161242
1780626355336225000,8.09422509765625,0.3787875740431249,-0.3353963222146034,-0.6606865532174706
1780626355346220300,8.10422021484375,0.32427513567619026,-0.3711982879579067,-0.4215308833569288
1780626355356215300,8.11421533203125,0.29479075558185575,-0.2575549576431513,-0.22498305986225603
1780626355366210300,8.124210205078125,0.21189137696847318,0.02927987049818039,-0.1765621433034539
1780626355376206000,8.1342060546875,0.1148502218864858,0.3623451194167137,-0.26912586071044203
1780626355386201000,8.144201171875,0.2334437219545245,0.6193079563856124,-0.3586094400197267
1780626355396196000,8.154196044921875,0.432085448988527,0.8143179027885198,-0.40723976154550906
1780626355406192000,8.164192138671876,0.5680358881793915,0.8457681030631065,-0.4076134171634912
1780626355416187400,8.1741875,0.779206111266464,0.6739139913201332,-0.4042303505964577
1780626355426182100,8.18418212890625,0.9708392747126519,0.44756724188923835,-0.32544965934827924
1780626355436178200,8.19417822265625,1.0798808103203772,0.2855348514586687,-0.13618658603429792
1780626355446173200,8.204173095703124,1.040764605462551,0.16022797135710715,0.03482274544760584
1780626355456168200,8.214168212890625,0.9066367055237293,0.2095300546646118,0.19722557662576437
1780626355466164200,8.224164306640626,0.7524550285935402,0.31614041760265826,0.3483484505072236
1780626355476159000,8.234158935546875,0.8141537982679903,0.39489480536580085,0.49080797933116554
1780626355486154000,8.244154052734375,0.8864325602762401,0.4369897337734699,0.7280851419687271
1780626355496150300,8.254150390625,-0.3156080642916262,-0.02828852137327194,0.01678089280053973
1780626355506145300,8.264145263671875,-1.196459025043249,-0.35932255672514435,-0.6772393363505601
1780626355516140300,8.274140380859375,-1.604477808137238,-0.3151280256897211,-0.43954248699620363
1780626355526136000,8.284135986328126,-1.78377580614537,-0.26180910795629025,-0.00587853664457798
1780626355536131000,8.294131103515625,-1.9564500020995734,-0.3040560120552778,0.3931029535129666
1780626355546126000,8.3041259765625,-1.895790073953569,-0.2641144622892141,0.8766879958532751
1780626355556122000,8.3141220703125,-1.6107494357526302,-0.23045827640295027,1.2613127516172826
1780626355566117400,8.324117431640625,-1.2218760826334356,-0.30618074912428855,1.3170431144066155
1780626355576112400,8.3341123046875,-0.6324539998151362,-0.17150339860916136,1.3188814357496796
1780626355586108200,8.344108154296874,-0.31502602661997076,-0.1723907028377056,1.1624310832351445
1780626355596103200,8.354103271484375,-0.29473595665469765,-0.2262690080195665,0.8836974362239242
1780626355606098200,8.36409814453125,-0.29266981790512797,-0.1357657302737236,0.7706310290142894
1780626355616094200,8.37409423828125,-0.12432985176295042,-0.01721241608560085,0.771468210490793
1780626355626089200,8.384089111328125,-0.00755903707742691,-0.13596388319432734,0.6268832139454782
1780626355636084000,8.394083984375,0.034504181017726655,-0.38960371322035786,0.5021456581644713
1780626355646080300,8.404080322265624,-0.04751242341175675,-0.7163496959894895,0.4105008091680705
1780626355656075300,8.4140751953125,-0.21016133830547332,-1.0347849465310572,0.4127998798906803
1780626355666070300,8.4240703125,-0.2583361711487174,-1.1998714638352392,0.5141800870902836
1780626355676066000,8.434066162109374,-0.18413140951395035,-1.2153121940732001,0.6434519253000617
1780626355686061000,8.44406103515625,-0.16234715546816586,-1.1054331847280263,0.640731122034043
1780626355696056000,8.45405615234375,-0.17879560144394635,-0.9863380187481641,0.5020804839737713
1780626355706052000,8.464052001953124,0.005558803170919418,-0.8049795810788869,0.3075150664679706
1780626355716047400,8.47404736328125,0.37134237260371444,-0.715298725631833,0.038020956967025996
1780626355726042400,8.48404248046875,0.9084674280822277,-0.5365051700145006,-0.1674745814844966
1780626355736038100,8.4940380859375,1.1670555281654,-0.31642683332860466,-0.34149113195836545
1780626355746033200,8.504033203125,1.1634205326639115,-0.19664953030347823,-0.4463496827930212
1780626355756028200,8.514028076171876,1.0574082817494868,-0.09983867684602737,-0.4852966685637831
1780626355766024200,8.524024169921875,0.9264543356716632,-0.09207622615098952,-0.49370282398983834
1780626355776019200,8.534019287109375,0.7836883712470532,-0.08710252939164638,-0.43644042932763694
1780626355786014200,8.54401416015625,0.6592820932470261,-0.021541969722509383,-0.2777545728459954
1780626355796010200,8.55401025390625,0.7886461397849023,0.055441901236772534,-0.06742123897448182
1780626355806005200,8.564005126953125,1.1837214162841438,0.08462006492614746,0.14682941447123884
1780626355816000300,8.574000244140626,1.4365879238501191,0.06372925258874892,0.3935895679861307
1780626355825996300,8.583996337890625,1.307978787332773,-0.2412935586720705,0.4563540671959519
1780626355835991000,8.593990966796875,1.1293033051371573,-0.49707040072679515,0.4735965861588716
1780626355845986000,8.603986083984376,1.161020631915331,-0.5065379017740488,0.5410898674562573
1780626355855982000,8.613982177734375,1.0395631207183003,-0.5969651916742325,0.47386926562041043
1780626355865977300,8.623977294921875,0.6409215300396084,-0.7918605717867613,0.307509659640491
1780626355875972400,8.633972412109374,0.10576368298083544,-0.9847066181540488,0.11913228311985731
1780626355885968100,8.643968017578125,-0.5990251929439604,-1.1940993101745843,-0.0688306673809886
1780626355895963100,8.653963134765625,-1.1742065689638257,-1.3579209221094846,-0.2448620648086071
1780626355905958100,8.663958251953124,-1.6116799946010112,-1.4487877724707126,-0.402613709180057
1780626355915954200,8.6739541015625,-1.858508098785579,-1.3620955774456263,-0.38330424774996935
1780626355925949200,8.68394921875,-1.8792273539483546,-1.1426578767508269,-0.17749226376041768
1780626355935944200,8.693944091796874,-1.961096658861637,-0.7955062348127364,0.18710114603973924
1780626355945940200,8.703940185546875,-1.8492730913199484,-0.348560339692235,0.6234886030711233
1780626355955935200,8.713935302734376,-1.0557618297167122,0.36240824778079983,1.1680742036886513
1780626355965930200,8.72393017578125,0.25049934004321694,1.2988731053352356,1.9402473475784061
1780626355975926300,8.73392626953125,1.2535482550956307,2.2565835800141096,2.7972362250968814
1780626355985921000,8.743921142578126,1.3098926581300794,2.866967640709877,3.2474469672322273
1780626355995916000,8.753916015625,0.7149542961083352,2.9164000723987815,3.287686038640141
1780626356005912000,8.763912109375,-0.3555107433520257,2.3330793751955032,3.041300709787011
1780626356015907300,8.7739072265625,-1.2577611966155469,1.1814555171787737,2.412989362734556
1780626356025902300,8.78390234375,-1.736843520709127,-0.04743745847940445,1.3118725799009203
1780626356035898000,8.793898193359375,-1.9617644751206038,-0.792097887673974,0.2751058849681169
1780626356045893000,8.80389306640625,-1.9044038807809351,-0.9837398189485073,-0.299635565264523
1780626356055888100,8.81388818359375,-1.7002594646774232,-0.8998077362865209,-0.6780752757180482
1780626356065884200,8.82388427734375,-1.356860891662538,-0.6578536678791046,-0.8094044848490506
1780626356075879200,8.833879150390626,-0.9139841456770896,-0.2581774734556675,-0.811741914820671
1780626356085874200,8.843874267578125,-0.5462522186554968,0.27774200562536716,-0.8780025125179439
1780626356095870200,8.8538701171875,-0.3909389073468745,0.6926157691806555,-1.0545507003612815
1780626356105865200,8.863865234375,-0.437283309892565,0.8112269510358572,-1.342843764486909
1780626356115860200,8.873860107421875,-0.43214287826418873,0.5580161600768566,-1.5674517074264585
1780626356125856300,8.883856201171875,-0.12716492905840276,0.07589899833202361,-1.5528312075302004
1780626356135851300,8.893851318359374,0.5063863644741475,-0.28431144714355466,-1.1898087003085762
1780626356145846000,8.903845947265625,1.1154184991043061,-0.43693478871583935,-0.6521918427251279
1780626356155842000,8.913842041015625,1.3771861790716646,-0.4264034578293562,-0.14966076543964446
1780626356165837300,8.92383740234375,1.0439806448996067,-0.21352643082439898,0.1953943426106125
1780626356175832300,8.933832275390625,0.5575684163093566,0.10161211625933647,0.3631143502235412
1780626356185828000,8.943828125,0.11960019289255142,0.41849136953055854,0.43519006394036114
1780626356195823000,8.953822998046874,-0.28115276391692456,0.6126233640551567,0.4532021059710532
1780626356205818000,8.963818115234375,-0.6393349184352904,0.6168015265226364,0.3193853178080171
1780626356215814100,8.973814208984376,-0.749664374961704,0.4370236360430717,0.18943631098903715
1780626356225809200,8.98380908203125,-0.6461712672613561,0.20200258176922797,0.05127864407747983
1780626356235804200,8.99380419921875,-0.602063464661315,0.0751630852729082,-0.01792049128971994
1780626356245800200,9.00380029296875,-0.7642517032407223,0.01366319917142391,-0.032398148649185894
1780626356255795200,9.013795166015624,-0.9044481094382703,-0.13530161989331244,-0.24312698464430868
1780626356265790200,9.023790283203125,-0.8175638259071856,-0.27887948522269723,-0.5971758752828463
1780626356275786200,9.0337861328125,-1.022137061882019,-0.2702005042046308,-1.0570977544955908
1780626356285781200,9.04378125,-1.3378794200778006,-0.15011457362174987,-1.4342695639051497
1780626356295776300,9.0537763671875,-1.140436109048128,0.10762976911365985,-1.514809812171757
1780626356305772000,9.06377197265625,-0.7260474986612796,0.32532442553341384,-1.285099869918078
1780626356315767300,9.073767333984375,-0.2762895417947322,0.3932493762463331,-0.9187848239570856
1780626356325762300,9.08376220703125,0.1148306404031813,0.33071897805333134,-0.3944317909639328
1780626356335758300,9.09375830078125,0.22601123386621474,0.15502046584188936,0.1963030549533665
1780626356345753900,9.10375390625,0.28172902943491934,0.07005904013216495,0.803602009115368
1780626356355748900,9.113748779296875,0.30319610729031266,0.0054740474969148635,1.4048707432024181
1780626356365745000,9.123744873046874,0.14826280827522276,-0.07553308762907981,1.808516864170134
1780626356375740000,9.133739990234375,0.021019334087893367,-0.2060223388046026,1.81065036906749
1780626356385735000,9.14373486328125,-0.09852357565946876,-0.32074586557149887,1.4435001874566078
1780626356395730700,9.153730712890624,-0.34755306234583255,-0.31504034740626813,0.9096671592608093
1780626356405725700,9.1637255859375,-0.5484812928818166,-0.23624504311084746,0.4982525962486863
1780626356415720700,9.173720703125,-0.7103973634563386,-0.13352058169543743,0.17400352659551427
1780626356425717000,9.183717041015624,-0.741086077839136,-0.06906944457292556,0.0015817892987281083
1780626356435711700,9.193711669921875,-0.6335914794124663,-0.03575169686079025,-0.06682833284894005
1780626356445706800,9.203706787109375,-0.47011342021822927,0.01796235767006874,-0.08679339037723839
1780626356455702800,9.213702880859374,-0.25064181725382806,0.09679097971320151,-0.16264995607333257
1780626356465697800,9.22369775390625,-0.17285598226189614,0.032256840482354165,-0.2696513824218884
1780626356475692800,9.23369287109375,-0.23774375723600386,-0.12298106750249863,-0.3744401559559628
1780626356485688800,9.243688720703124,-0.20965046617388725,-0.30035774205923077,-0.27773252541096877
1780626356495683800,9.253683837890625,-0.15511340482234953,-0.3071837886869907,0.019118943826667963
1780626356505678800,9.263678955078126,-0.06029116789884865,-0.13930501031577586,0.3692188045784831
1780626356515675000,9.2736748046875,-0.12532507334537804,-0.020901333731412886,0.5914170560277998
1780626356525670000,9.283669921875,-0.45875031468272204,0.03954407488107681,0.56078989910651
1780626356535665000,9.293664794921876,-0.43707967707924544,0.04039046257734299,0.40688649112842973
1780626356545660700,9.30366064453125,-0.14335392038039863,-0.030924715095758438,0.19176477220291271
1780626356555655700,9.31365576171875,0.13574234939813612,-0.14139233798384665,-0.04655000812038779
1780626356565650700,9.323650634765626,0.33822073198556896,-0.2049818898409605,-0.2880210605175234
1780626356575647000,9.33364697265625,0.40150457889437674,-0.2505354342699051,-0.545627072494477
1780626356585642000,9.34364208984375,0.4315221160173416,-0.21129940242469308,-0.7223227790497243
1780626356595636700,9.35363671875,0.43081827859692273,-0.09846154327392577,-0.7644170498702675
1780626356605632800,9.3636328125,0.4587712113402784,-0.04344166684150696,-0.6886326178286224
1780626356615627800,9.373627685546875,0.5045826760530472,-0.07135141803026199,-0.5788943321283906
1780626356625622800,9.383622802734376,0.4871814593970775,-0.03168751616179943,-0.578218990150094
1780626356635618800,9.393618896484375,0.377712199896574,0.09242284763157367,-0.594967734246701
1780626356645613800,9.40361376953125,0.058857920225337146,0.11483517044782637,-0.5152753349810838
1780626356655608800,9.41360888671875,-0.3280628375213593,-0.07951368169784545,-0.3821707136753946
1780626356665604900,9.42360498046875,-0.48081477390937505,-0.46738721012473106,-0.23997264879923313
1780626356675600000,9.433599853515625,-0.37950777807645497,-0.9207593389004468,-0.10810169747434556
1780626356685595000,9.443594970703124,-0.06584522182941437,-1.3533645739793776,0.025834981608157975
1780626356695590700,9.453590576171875,0.36848954045586285,-1.3318705350518225,0.11641137938913888
1780626356705585700,9.463585693359375,0.8352759351432323,-0.8056132028073072,0.18345860655261204
1780626356715580700,9.47358056640625,1.2039772186536342,0.12013035424649715,0.22746760668698696
1780626356725577000,9.483576904296875,1.2239034968078135,1.0159347001105545,0.22856616077972575
1780626356735572000,9.493572021484376,1.0933400113523006,1.4048469239354133,0.18803263646988197
1780626356745566700,9.503566650390624,0.995890859991312,1.1798340534567833,0.021577187166363
1780626356755562800,9.513562744140625,0.9936732570070773,0.5482224958151578,-0.12398544050576164
1780626356765557800,9.523557861328126,1.0952676914792507,-0.04595628001093864,-0.2254830452736467
1780626356775552800,9.533552734375,0.9982616077106445,-0.43867666394710536,-0.2335300850637257
1780626356785548800,9.543548828125,0.6013304742116481,-0.5754647230058908,-0.17671985461581496
1780626356795543800,9.553543701171876,0.04831533729247749,-0.4341700001776218,-0.08343139399769715
1780626356805538800,9.563538818359374,-0.34479660324454303,-0.11389116759598254,-0.007030026500951498
1780626356815534800,9.573534912109375,-0.5781131916880607,0.19250176297426222,0.056122736807516775
1780626356825529900,9.58352978515625,-0.6900550518471747,0.31315351074635983,0.05320462543768808
1780626356835524900,9.59352490234375,-0.7344295425593853,0.3103735246390104,0.05555295582923572
1780626356845520600,9.603520751953125,-0.765208127182722,0.1780593961238861,0.052172177117411046
1780626356855515600,9.613515625,-0.7718623243749141,-0.038036008405685426,0.03513391202231869
1780626356865510700,9.6235107421875,-0.8733749988477677,-0.30655016695857046,0.055405487349675965
1780626356875507000,9.6335068359375,-0.9791946497995406,-0.5035989257127046,0.1161750224831514
1780626356885502000,9.643501953125,-0.8606068488199263,-0.5221610028415918,0.24968617876311763
1780626356895497000,9.6534970703125,-0.5048749369978904,-0.4716238247811794,0.41977392015438525
1780626356905492700,9.66349267578125,-0.13184000819735228,-0.4939940620213747,0.60216845940575
1780626356915487700,9.67348779296875,0.10867547877430915,-0.5281254642039537,0.7972135501872748
1780626356925482800,9.683482666015625,0.4210627543885261,-0.49395957522988315,0.8027114169511944
1780626356935477800,9.693477783203125,0.5664425545733421,-0.12284370485842228,0.5920534542351961
1780626356945473800,9.703473876953124,0.41789099248461425,0.422828521952033,0.10285764107471332
1780626356955468800,9.71346875,-0.00992751977443695,0.6871463978588581,-0.5289194641258568
1780626356965464800,9.72346484375,-0.4753238483428955,0.6590080986112355,-1.1081702084764837
1780626356975459800,9.7334599609375,-1.0153788197934628,0.34793548579216,-1.474916631592065
1780626356985454800,9.743454833984375,-1.4411024786651134,-0.028058804270625112,-1.4853649603702128
1780626356995450600,9.75345068359375,-1.4939245527923106,-0.18011282152235508,-1.1325001284170895
1780626357005445600,9.763445556640624,-1.3095745320916174,-0.059630585098266596,-0.5602708071358502
1780626357015440600,9.773440673828125,-1.181847146844864,0.1674889022707939,-0.03434778487961739
1780626357025436000,9.783435791015625,-1.191323488785699,0.353825128352642,0.4219446517895907
1780626357035432000,9.793431884765624,-1.1578584415573625,0.4373988990962505,0.826619531283155
1780626357045427000,9.803427001953125,-1.0544096844553947,0.39757834536135195,1.2017446372959761
1780626357055422000,9.813421875,-0.6471639315605163,0.18245792334377764,1.4703706587255
1780626357065417700,9.823417724609374,0.39463644669055936,-0.1258230129301548,1.5650427465885877
1780626357075412700,9.833412841796875,1.3994003489673137,-0.26039222689568997,1.4999560880415141
1780626357085407700,9.84340771484375,1.675719043791294,-0.25136077917814253,1.1588991097167134
1780626357095404000,9.853404052734374,0.9034205930214375,-0.2154810720235109,0.5582276839356869
1780626357105398800,9.863398681640625,-0.3177192112267017,-0.12310498614311217,-0.07457181398202664
1780626357115393800,9.873393798828126,-1.0701497629661112,0.08748772931694984,-0.5822148913858458
1780626357125389800,9.883389892578125,-1.0768318710785358,0.2614788530886173,-0.9833387638669461
1780626357135384800,9.893384765625,-0.5159621482014656,0.289251241633296,-1.2381151236422359
1780626357145379800,9.9033798828125,-0.024121026430279014,0.19418226340711114,-1.3580977399811147
1780626357155375600,9.913375732421875,0.27497429447770116,0.04076981728374958,-1.3784360330022871
1780626357165370600,9.92337060546875,0.45220250047445293,-0.11757891619801521,-1.225063261302188
1780626357175366000,9.933365966796876,0.4228946459908038,-0.20480536423027515,-0.9721577369000762
1780626357185362000,9.94336181640625,0.28250761259198187,-0.2731815658420324,-0.6953555694080888
1780626357195357000,9.95335693359375,0.3429273753065616,-0.25849720692932604,-0.37377738119829446
1780626357205352000,9.96335205078125,0.6721546534974128,-0.13036007183790208,0.06754291085908189
1780626357215347700,9.97334765625,0.991107132846117,0.029834581771492955,0.4647000899326056
1780626357225342700,9.9833427734375,0.9703951842069626,0.1605097109079361,0.6772832485575229
1780626357235337700,9.993337646484376,0.703646281760931,0.2170850000888109,0.6355334072604775
1780626357245334000,10.003333984375,0.32900757102556527,0.167951259085536,0.5048256910286844
1780626357255328800,10.013328857421875,0.06360058470778167,0.06934007820785046,0.3932251185879111
1780626357265323800,10.02332373046875,0.07506671222634613,-0.14824644166231155,0.3765429369214922
1780626357275319800,10.03331982421875,0.3944342021167278,-0.3824696235567331,0.3955898384252563
1780626357285314800,10.043314697265625,0.9002759383201598,-0.46133390143513675,0.4758633255144581
1780626357295309800,10.053309814453126,1.0180733926396817,-0.3476023083150387,0.4903334571545943
1780626357305305600,10.0633056640625,0.6853320419132709,-0.08039923236072063,0.3913083982463926
1780626357315300600,10.073300537109375,0.46525253618359563,0.1981675336509943,0.2325979553127661
1780626357325295900,10.0832958984375,0.32311551731228827,0.43378363120853897,-0.012816117355413733
1780626357335292000,10.0932919921875,0.15207966314963994,0.5801888289183378,-0.25600290589556096
1780626357345286700,10.10328662109375,0.03919803792238235,0.525597991552949,-0.4008810036359355
1780626357355281700,10.11328173828125,-0.08470781627483666,0.3397925113469362,-0.3034760567428544
1780626357365277400,10.12327734375,-0.13822057607993482,0.2489619013428688,-0.00934376506973058
1780626357375272400,10.1332724609375,-0.016539631390571595,0.22666063768565653,0.40358511149547993
1780626357385267500,10.143267333984374,0.08774367683939635,0.1487543911844492,0.8413582507316023
1780626357395263700,10.153263671875,0.20942937076911328,0.05616553933620452,1.1134879694331437
1780626357405258800,10.1632587890625,0.19501396499089896,-0.09311901320219039,1.185540302274376
1780626357415253800,10.173253662109374,-0.03596563187241554,-0.22008768903613088,1.1216731755848974
1780626357425249500,10.18324951171875,-0.38497788005061445,-0.22088205428421495,1.0230820145819335
1780626357435244500,10.19324462890625,-0.3788626120407134,-0.23899171147048473,1.0133933450646697
1780626357445239600,10.203239501953124,-0.21389760222434998,-0.2927040124356747,0.9634749564897268
1780626357455235600,10.213235595703125,-0.005126330037787556,-0.4390688781350851,0.7844300564598292
1780626357465230600,10.223230712890626,0.15434059381894766,-0.7008867539197207,0.39557803838960826
1780626357475225600,10.2332255859375,0.26860183683633804,-0.9593220015287399,-0.09462357254624366
1780626357485221600,10.2432216796875,0.45565015671029685,-0.9422446099996566,-0.492677207269147
1780626357495216600,10.253216552734376,1.059010894640535,-0.6383481724202632,-0.6076300127472728
1780626357505211600,10.263211669921875,1.4631167420744895,-0.29763679266273974,-0.6996667836707084
1780626357515207400,10.27320751953125,0.97841950070858,0.015070727881789207,-0.8608337163783609
1780626357525202400,10.283202392578126,0.21033450291529296,-0.009613631519675253,-1.0899681968316435
1780626357535197400,10.293197509765625,-0.4615196332655847,-0.28689152676463126,-1.1166736867971718
1780626357545193700,10.30319384765625,-0.7451731279570609,-0.653188598677516,-0.8574887167993932
1780626357555188700,10.313188720703126,-0.26532500712275503,-0.812816266053915,-0.5090012231476605
1780626357565183700,10.323183837890625,0.32168694581389423,-0.7562626041829585,-0.08343041675016284
1780626357575179500,10.333179443359375,0.4667151560820639,-0.5826116721510887,0.1726573178846389
1780626357585174500,10.343174560546874,0.024074118548631666,-0.26985096011459825,0.2018710643440485
1780626357595169500,10.35316943359375,-0.06670680709481239,0.038892332974076266,0.25638547547236085
1780626357605165600,10.36316552734375,0.06554024753347039,0.21447043367624283,0.27764431740455325
1780626357615160600,10.37316064453125,0.0701018563605845,0.08675941504240035,0.09814940858483313
1780626357625155600,10.383155517578125,0.29041597456373275,-0.13467910408079622,-0.18845007643066344
1780626357635151600,10.393151611328125,0.24170791162662206,-0.38039281728267665,-0.5757266618777066
1780626357645146600,10.403146728515624,-0.08658077053986489,-0.5380231733620167,-0.8791236255023628
1780626357655141600,10.4131416015625,-0.2590508952893317,-0.4653220942884683,-0.8512681617841124
1780626357665137400,10.423137451171876,-0.36939803360290824,-0.2889215712875128,-0.600606470786035
1780626357675132400,10.43313232421875,-0.41951837449073787,-0.0450736519575119,-0.2958480095498264
1780626357685127400,10.44312744140625,-0.44326983695626254,0.23254268146157264,-0.20673998555466533
1780626357695123700,10.453123779296876,-0.7060569230992346,0.3724830670714378,-0.30496837765984236
1780626357705118700,10.46311865234375,-1.0017478423912078,0.18751520673334598,-0.36812362975291907
1780626357715113700,10.47311376953125,-1.1343841155327856,-0.33029286159574983,-0.1195555500332266
1780626357725109500,10.483109619140626,-0.3918449893411249,-0.7666197475463151,0.4663858510624617
1780626357735104500,10.4931044921875,0.2634919464766979,-0.7918208242982625,0.9906686683636158
1780626357745099500,10.503099609375,0.3122934598509222,-0.47787937804460523,1.1975287001013755
1780626357755095600,10.513095458984376,0.5758415934942662,0.062386605808138845,0.8985824322752654
1780626357765090800,10.5230908203125,0.7226981882333755,0.644113311818242,0.2471647887930274
1780626357775085600,10.53308544921875,0.6478511831723153,1.111459605410695,-0.3025152854193002
1780626357785080600,10.54308056640625,0.46655499708428977,1.095051491445303,-0.7984021754499524
1780626357795076600,10.55307666015625,0.10317512779235839,0.3307920432895422,-1.3962332632385193
1780626357805071600,10.563071533203125,-0.10257190120220183,-0.7178256137609481,-1.6317472155958412
1780626357815066600,10.573066650390626,-0.09024082741737365,-1.1354589051574469,-1.0236891136296093
1780626357825062400,10.5830625,-0.3139735949575901,-0.8706552915602922,-0.20940832798108458
1780626357835057400,10.593057373046875,-1.1232559877969324,-0.3293623027473688,0.45225591116212305
1780626357845052700,10.603052734375,-1.2038637483417987,0.13179858020842075,1.0988188811548054
1780626357855048700,10.613048583984375,-1.148161150342226,0.43149698157608507,1.3154592062160373
1780626357865043700,10.623043701171875,-0.8433670332707465,0.4853805474549532,1.0584687505878507
1780626357875038700,10.633038818359376,0.10688786470517515,0.3651771279722452,0.6898379019651562
1780626357885034500,10.643034423828125,0.5239196830771863,0.10203647915124893,0.23565577198080717
1780626357895029500,10.653029541015625,0.3109235597372055,-0.03012976532578468,-0.23223427309952674
1780626357905024500,10.6630244140625,0.0694552290201187,-0.07828267859816551,-0.4926264269299805
1780626357915020800,10.673020751953125,-0.24988909919038413,-0.015598551148176192,-0.45417263150364157
1780626357925015800,10.683015869140625,-0.22330825851783154,0.17379121728539465,-0.2638354992173612
1780626357935010600,10.693010498046876,-0.2714284385643899,0.41864392974376674,-0.021984745053946972
1780626357945006600,10.703006591796875,-0.4123604655601084,0.41593116365373134,0.12854315860904753
1780626357955001600,10.713001708984375,-0.4399250565730035,0.3072492551386356,0.17730090590678155
1780626357964996600,10.72299658203125,-0.559164161068201,0.13516717985868454,0.30795060834102334
1780626357974992600,10.73299267578125,-0.755604286404699,-0.04684533780515194,0.5458891574967653
1780626357984987400,10.7429873046875,-0.6274468391776085,-0.12056290044486521,0.6466797282401472
1780626357994982400,10.752982421875,-0.0781340639077127,-0.14323592002391813,0.5107303119625896
1780626358004978700,10.762978759765625,0.333269977710396,-0.1658423041075468,0.08492167822122573
1780626358014973700,10.7729736328125,0.5531191818155348,-0.24235797303318976,-0.37902160199470813
1780626358024968700,10.78296875,0.6089760935939849,-0.4262584964007139,-0.646024990658462
1780626358034964500,10.792964599609375,0.4346631905220449,-0.5552198073565959,-0.6189931913480162
1780626358044959500,10.80295947265625,0.25706205955967304,-0.5007546421974897,-0.3884994052402675
1780626358054954500,10.81295458984375,0.14427490768283605,-0.4214607407301664,-0.0830589165566489
1780626358064950800,10.82295068359375,-0.019414163913577795,-0.36715690361261366,0.13783910248167813
1780626358074945800,10.83294580078125,0.17156185079813002,-0.2734960386186838,0.26180191103052347
1780626358084940500,10.8429404296875,0.7227095864102244,-0.14757482601106167,0.1547379225734621
1780626358094936600,10.8529365234375,0.9278346841141581,-0.012312369084358215,-0.0357648486033082
1780626358104931600,10.862931640625,0.905855784279108,0.0058054714083671565,-0.21090072196330875
1780626358114926600,10.872926513671874,0.8343351471617817,-0.034192192459106444,-0.35102322267442937
1780626358124922600,10.882922607421875,0.6733375066064298,-0.11884791322052478,-0.43754367786180226
1780626358134917400,10.89291748046875,0.7608977166377008,-0.18126783677637576,-0.40696496319212017
1780626358144912400,10.902912353515624,0.5913046816945076,-0.2749614349961281,-0.3831343345431611
1780626358154908700,10.91290869140625,0.21119594205021858,-0.3649807286173105,-0.31690281680990007
1780626358164903700,10.922903564453126,-0.0319675021469593,-0.41155134113430974,-0.20399733578301965
1780626358174898700,10.932898681640625,-0.41277284575328227,-0.46143327015638347,-0.12947616514284163
1780626358184894500,10.94289453125,-0.4255960869692266,-0.4044610906124115,0.06296356544587761
1780626358194889500,10.952889404296876,-0.49152445703744885,-0.32596564604640005,0.2734068624978885
1780626358204884500,10.962884521484375,-0.4544891501069069,-0.24786942993104458,0.27972791874557734
1780626358214880800,10.972880859375,-0.018259294790029523,-0.29178865115642544,0.09522647034283727
1780626358224875800,10.982875732421874,0.3641816871941089,-0.3214075443506241,-0.12295754049643873
1780626358234870800,10.992870849609375,0.27579510934129353,-0.28516134197115894,-0.25215258714295924
1780626358244865500,11.002865478515625,0.19780206133946776,-0.193130708527565,-0.23896738074682652
1780626358254861600,11.012861572265624,0.43486543509587644,-0.10350012196302413,-0.12783153974097222
1780626358264856600,11.022856689453125,0.1730171641729772,-0.05815057567358017,0.004511157281510532
1780626358274851600,11.0328515625,-0.18652005821615456,-0.06104921972453594,0.17862349628005175
1780626358284847600,11.04284765625,-0.07915259330049157,-0.15509119299054144,0.28945604349039494
1780626358294842400,11.05284228515625,-0.13933613610640166,-0.31083062075674533,0.1906626744462177
1780626358304837600,11.062837646484375,0.0553822800040245,-0.31908991505801676,0.037021972524933514
1780626358314833700,11.072833740234374,0.3327295872233808,-0.15618775605559349,-0.0642313934246078
1780626358324828700,11.08282861328125,0.16335998577252028,-0.03494096499979496,-0.2492043683292344
1780626358334823700,11.09282373046875,-0.256227508431673,0.03166471980810165,-0.24643070236481723
1780626358344819700,11.10281982421875,-0.5431611207723617,0.21000877809226512,0.2939087851155549
1780626358354814700,11.112814697265625,-0.2514052028417587,0.2542477327913046,0.9427326127123087
1780626358364809700,11.122809814453126,-0.11617372557520866,-0.014326046994328498,1.1002949450567363
1780626358374806000,11.132805908203125,-0.09724339965581894,-0.323841493499279,0.7249694941662251
1780626358384801000,11.142801025390625,0.0264810335598886,-0.37908231920599933,0.20385759851876645
1780626358394795800,11.152795654296876,0.15959654158577322,-0.2291016010969877,-0.26488369309604165
1780626358404791800,11.162791748046875,0.11853621692284941,-0.002681201907992363,-0.663642261217907
1780626358414786800,11.172786865234375,-0.110372930341959,0.09399345794916153,-0.866606235365197
1780626358424781800,11.18278173828125,0.326349969188869,0.15200316384732723,-0.7734921905990689
1780626358434777900,11.19277783203125,0.11094809988141059,0.13933306736648082,-0.53610294588916
1780626358444772600,11.202772705078125,-0.3853812732197344,0.04265782298743725,-0.10819324821531771
1780626358454767600,11.212767578125,-0.37225992584004997,-0.12764146052896977,0.30647553081978113
1780626358464764000,11.222763916015625,0.09174407158717512,-0.22179040130078792,0.5040188316252082
1780626358474759000,11.232759033203125,0.3172444333218038,-0.2386398292928934,0.5382489449419081
1780626358484754000,11.24275390625,0.08655483238101006,-0.13489303909242154,0.4348801212083548
1780626358494749700,11.252749755859375,-0.37194647597670555,-0.02095335617959499,0.3260639553217217
1780626358504744700,11.26274462890625,-0.37546427483931183,0.07793956424891949,0.42573308428712187
1780626358514739700,11.27273974609375,-0.6245240835987032,0.2666559634655714,0.5758852865055203
1780626358524735700,11.28273583984375,-1.031576944269985,0.2613461666196585,0.5851813034433871
1780626358534731000,11.29273095703125,-0.5895781501628458,0.09361644133031367,0.45486981998756526
1780626358544726000,11.30272607421875,0.1456990952670574,0.015185878694057464,0.27660909260530026
1780626358554721800,11.3127216796875,0.5073556478977203,-0.025306875213980673,0.02140186713207513
1780626358564716800,11.322716796875,0.5058920050859451,-0.0917944866001606,-0.2677635045823641
1780626358574711800,11.3327119140625,0.3311620456457138,-0.08727963952422141,-0.43631015401147305
1780626358584706800,11.342706787109375,0.4348679193139076,-0.006936521264910698,-0.5340413737168536
1780626358594702800,11.352702880859376,0.27530615678057074,0.13982757288515568,-0.5405290917683393
1780626358604697600,11.362697509765624,-0.1387011992037296,0.27812954363822934,-0.3546187264157459
1780626358614692900,11.37269287109375,-0.5051591607667505,0.3998801925629377,0.22249292354695496
1780626358624689000,11.38268896484375,0.052287821120023725,0.3682996439069509,0.9385330421306193
1780626358634684000,11.392683837890624,1.0296401309885084,0.10748889933824539,1.38186191579774
1780626358644679000,11.402678955078125,0.6763561237752437,-0.4087339456260204,0.9459957792267203
1780626358654674700,11.4126748046875,-0.5899791321791709,-0.8063327492535114,-0.12708316905908285
1780626358664669700,11.422669677734374,-1.5614040978252888,-0.8017553583353757,-1.0380246591046451
1780626358674664700,11.432664794921875,-1.5732079328656197,-0.5022241302281618,-1.5195631441786885
1780626358684661000,11.442660888671876,-1.2667147567912935,0.007522212198376655,-1.509713804206997
1780626358694656000,11.452656005859374,-1.2768750624082983,0.4179156154692173,-1.1459756229966878
1780626358704650800,11.462650634765625,-1.1866774896107612,0.5837409684419632,-0.4595259386977181
1780626358714646800,11.472646728515626,-0.52512496721372,0.564632363346219,0.5310010196402669
1780626358724641800,11.482641845703125,0.07019406468868256,0.3388502620607614,1.231052345649153
1780626358734636800,11.49263671875,0.22368147574439642,-0.10431319191157817,1.214458499853313
1780626358744632800,11.5026328125,0.3483621867716312,-0.43614685320854185,0.7228345279641449
1780626358754627600,11.512627685546875,0.35351781596913934,-0.538074611288309,0.2513553723506629
1780626358764622800,11.522622802734375,0.42328371837362644,-0.39752632291316986,-0.08907108951825649
1780626358774619000,11.532618896484376,0.7496785496175289,-0.17590192582905292,-0.19873609078656881
1780626358784614000,11.54261376953125,1.3553601317107677,0.08308920209705829,-0.1486167728120461
1780626358794609000,11.55260888671875,1.536455534529686,0.31076281621754165,-0.057145892143063245
1780626358804604700,11.562604736328124,1.4562217218637465,0.3677110303640365,0.07404653886575252
1780626358814599700,11.572599609375,1.48209719074592,0.1362058752566576,0.18472952153757213
1780626358824594700,11.5825947265625,1.3742062864780424,-0.17716332406699656,0.22444215791858732
1780626358834591000,11.592591064453124,1.0349601569674909,-0.41845571369528767,0.19066022676080463
1780626358844586000,11.6025859375,0.7497744112074375,-0.4628489821732044,0.019384864753857253
1780626358854581000,11.6125810546875,0.654843526277691,-0.3820610427558422,-0.07225391982793808
1780626358864576800,11.62257666015625,0.43289793441519137,-0.39153848067522046,-0.00026997604779899117
1780626358874571800,11.63257177734375,0.20035072290897368,-0.5517477473318576,0.09729534903876483
1780626358884566800,11.64256689453125,0.16180968759059905,-0.7044973456323146,0.14105455739684403
1780626358894561800,11.652561767578124,0.09335150678381324,-0.7435217805534601,0.16453575155362485
1780626358904557800,11.662557861328125,-0.20355989421382545,-0.5548685097008943,0.33023682055957615
1780626358914552800,11.672552734375,-0.6767465843975543,-0.2430833646982908,0.521333831302449
1780626358924547800,11.6825478515625,-0.6483575252592563,-0.12402619264125823,0.5445466568466275
1780626358934544000,11.6925439453125,-0.4419629921413958,-0.04306698831021785,0.3825385240744799
1780626358944539000,11.702538818359375,-0.2204291959501803,0.1374088213056326,0.2895920178949833
1780626358954534000,11.712533935546874,-0.03248918793350458,0.28127251783907414,0.4012939318183809
1780626358964529700,11.72252978515625,-0.34597733746170994,0.30210721607506275,0.414404757804051
1780626358974524700,11.732524658203126,-0.4129799126327038,0.18025486034154892,0.2932997133065015
1780626358984519700,11.742519775390624,-0.25049817099943755,0.0905219824463129,0.3292576002638787
1780626358994516000,11.752515869140625,-0.2562391988694668,0.09883680632710456,0.4851058221668005
1780626359004511000,11.762510986328126,-0.31388343245610595,0.24072014269828795,0.593375569684431
1780626359014506000,11.772506103515624,-0.13167042378410695,0.3590688742250204,0.536273114824295
1780626359024501800,11.782501708984375,-0.2979064033843577,0.40245851861834525,0.506879700949043
1780626359034496800,11.792496826171876,-0.30839637934714553,0.3536082707315683,0.5803094596233218
1780626359044491800,11.80249169921875,-2.2992472482204436,0.49830374191403387,-0.047737537404522294
1780626359054487800,11.81248779296875,-5.229917253512144,1.2966554292857646,-1.4258973107486963
1780626359064482800,11.82248291015625,-1.3303414257884025,1.4846236404836177,-2.011528330720961
1780626359074477800,11.832477783203124,3.8540766438305374,1.396533269098401,-0.8839051606904714
1780626359084473900,11.842473876953125,3.2496213886618612,1.305754097020626,0.907118351560831
1780626359094468900,11.85246875,1.5502093345940111,0.12522855416834353,2.2387847423426805
1780626359104464000,11.8624638671875,0.5570176505587995,-1.5327748001903294,2.4799352392822502
1780626359114459600,11.872459716796875,-0.7853193334497511,-2.8382863206267355,1.8579452042058109
1780626359124454700,11.88245458984375,-1.8765058200299738,-2.9930928514569994,1.543316652470827
1780626359134449700,11.89244970703125,-2.189063702970743,-1.2910901963740586,1.947903707550466
1780626359144444700,11.902444580078125,-2.0241233161389824,0.14136603449881077,1.68511669447273
1780626359154441000,11.91244091796875,-1.7848200545012949,0.8573702780514955,0.8835756364751607
1780626359164436000,11.92243603515625,-1.142715890548378,1.0026093545913695,-0.2092518953103572
1780626359174430700,11.9324306640625,-0.476828480752185,0.7519745516002178,-1.1818010426808148
1780626359184426800,11.9424267578125,-0.0832208656527102,0.4617909975528717,-1.8377618094854056
1780626359194421800,11.952421875,0.07025836209654808,0.23004677299261092,-2.1567343817740676
1780626359204416800,11.962416748046875,0.15353629169873892,0.10117021771073341,-2.0545114401400086
1780626359214412800,11.972412841796874,0.09261530146375298,-0.024957915645837783,-1.4002555044919252
1780626359224407800,11.98240771484375,0.041607583282142875,-0.1745043339908123,-0.5785586704332382
1780626359234402800,11.99240283203125,0.09944003291726111,-0.278432325977087,0.2431589141525328
1780626359244398800,12.00239892578125,0.2700713248670101,-0.3062836249768734,0.9418921433001756
1780626359254393900,12.012393798828125,0.04881006200686097,-0.31555297310352326,1.3340432029157876
1780626359264388900,12.022388916015625,-0.2434006139539182,-0.2376420504271984,1.427443663407862
1780626359274384600,12.032384521484374,-0.17396423576474188,0.07572305724322795,1.3549056659415364
1780626359284379600,12.042379638671875,-0.20915486467666922,0.4381751441657543,1.2185979377456009
1780626359294374700,12.052374755859375,-0.23117358506545424,0.35087855350673197,0.9628739949218929
1780626359304371000,12.062370849609374,-0.21813421688079832,0.08926818299293518,0.6057543550685047
1780626359314366000,12.072365966796875,-0.13998948544859885,-0.08295943823754787,0.2853227430779487
1780626359324361000,12.08236083984375,-0.18790508283376692,-0.13659049066007137,0.07947583390548825
1780626359334356700,12.092356689453124,-0.36392800469398495,-0.19279694652855395,-0.1177463086541742
1780626359344351700,12.102351806640625,-0.4223030367732048,-0.2235211706161499,-0.43493733128830786
1780626359354346200,12.11234619140625,-0.2321872921526432,-0.07630582556724548,-0.5900794507484882
1780626359364342500,12.122342529296875,-0.07346154205203057,0.07805003888607025,-0.5596706492856145
1780626359374337500,12.132337646484375,-0.20383432724103331,0.06743336780369281,-0.49808966077193617
1780626359384332500,12.14233251953125,-0.4030290119826793,-0.007563128730654716,-0.3661520374190062
1780626359394327300,12.152327392578124,-0.6373451328575611,0.07115560319721698,-0.16014964542388915
1780626359404323300,12.1623232421875,-0.6841454624772071,0.200262460103631,0.17341456599272786
1780626359414318300,12.172318359375,-0.46571299330219623,0.22490298036336898,0.44717707352787256
1780626359424313300,12.182313232421874,-0.3874655321478844,0.053290860682725906,0.5132775122273713
1780626359434309000,12.19230908203125,-0.4629132795810699,-0.11437164458930492,0.4204293518558144
1780626359444304400,12.202304443359376,-0.44925183397531504,-0.1653846234679222,0.34507600470781324
1780626359454299400,12.21229931640625,-0.18685630443319678,-0.14552607678771018,0.3266705794453621
1780626359464295400,12.22229541015625,0.01671162695661187,-0.12551263180673122,0.29128567007035017
1780626359474290400,12.23229052734375,0.023970073652267453,-0.15647709439098834,0.10437938901558518
1780626359484285400,12.242285400390625,0.0070388125956058496,-0.21087445501089094,-0.11386807898133992
1780626359494281200,12.25228125,-0.08003273713588714,-0.30567513768970966,-0.23516294696256518
1780626359504276200,12.262276123046876,-0.37445509779676794,-0.44085576155185696,-0.3211575151123106
1780626359514271200,12.272271240234375,-0.3117769616961479,-0.5088070157498121,-0.32841829989552496
1780626359524267500,12.282267578125,-0.0516497424121946,-0.4246083911061287,-0.1985660314492881
1780626359534262500,12.292262451171876,0.0494961445748806,-0.26913258271217344,-0.08747998440191149
1780626359544257300,12.30225732421875,0.12095642980709671,-0.18692308605909347,0.026479718385636807
1780626359554253300,12.31225341796875,0.2593731860462576,-0.06335048240423202,0.15163623023107647
1780626359564248300,12.322248291015624,0.5092003989815712,0.1395037477582693,0.2116964389182627
1780626359574243300,12.332243408203125,0.3885141644179821,0.39367490818202494,0.10134177488535642
1780626359584239400,12.3422392578125,0.02822539300918579,0.5952572187125682,-0.09582096563726664
1780626359594234400,12.352234375,-0.11631525293774903,0.5856798275500535,-0.18690993431657552
1780626359604229400,12.3622294921875,-0.3433234619520604,0.497270307213068,-0.054957624851167196
1780626359614224400,12.372224365234375,-0.43025954873561856,0.4044681048750877,0.1660023169748485
1780626359624220400,12.382220458984374,-0.3039607349872589,0.31791268797218797,0.38326720367521044
1780626359634215400,12.39221533203125,-0.24512159252762794,0.22977321674823759,0.43868850051537156
1780626359644210400,12.40221044921875,-0.2340506018064916,0.15038812986612318,0.22659414832070468
1780626359654206200,12.412206298828124,-0.25599019254446026,0.058713470253348346,-0.16739260228946803
1780626359664201200,12.422201171875,-0.18503858748674393,-0.06181085174679756,-0.5364011251181364
1780626359674196200,12.4321962890625,0.23414544048309324,-0.21036533644497393,-0.7924379332832991
1780626359684192500,12.442192626953124,0.5766401234608143,-0.34147593438923357,-0.9943125047586858
1780626359694187500,12.4521875,0.6849791368223727,-0.46606911326348777,-1.0296407155103982
