time,seconds_elapsed,z,y,x
1780626347293722400,0.051722412109375,-1.05804443359375,-0.2540435791015625,0.05694580078125
1780626347303717400,0.06171728515625,-1.0109405517578125,-0.3121490478515625,0.027496337890625
1780626347313713700,0.071713623046875,-0.9569244384765625,-0.3661041259765625,-0.004974365234375
1780626347323708400,0.08170849609375,-0.9097900390625,-0.41796875,-0.042144775390625
1780626347333703400,0.091703369140625,-0.8985137939453125,-0.4341583251953125,-0.0861053466796875
1780626347343698700,0.10169873046875,-0.9452362060546875,-0.4054718017578125,-0.11224365234375
1780626347353693700,0.111693603515625,-1.037506103515625,-0.3401336669921875,-0.105987548828125
1780626347363688700,0.121688720703125,-1.098480224609375,-0.1695404052734375,-0.007049560546875
1780626347373685000,0.13168505859375,-1.15057373046875,0.010894775390625,0.177764892578125
1780626347383679700,0.1416796875,-1.1136016845703125,0.0662689208984375,0.30126953125
1780626347393674800,0.1516748046875,-1.0724639892578125,-0.012603759765625,0.297271728515625
1780626347403670800,0.1616708984375,-0.9515380859375,-0.131072998046875,0.2228851318359375
1780626347413665800,0.171665771484375,-0.804656982421875,-0.2030487060546875,0.147796630859375
1780626347423661800,0.181661865234375,-0.80157470703125,-0.2712860107421875,0.113189697265625
1780626347433656600,0.191656494140625,-0.8127593994140625,-0.3438568115234375,0.098358154296875
1780626347443651800,0.20165185546875,-0.7931365966796875,-0.35638427734375,0.0656585693359375
1780626347453648000,0.21164794921875,-0.7988739013671875,-0.3455047607421875,0.0781402587890625
1780626347463643000,0.221642822265625,-0.8318023681640625,-0.2937469482421875,0.130706787109375
1780626347473638000,0.231637939453125,-0.9364013671875,-0.215179443359375,0.169158935546875
1780626347483633700,0.241633544921875,-1.042694091796875,-0.166748046875,0.18426513671875
1780626347493628700,0.251628662109375,-1.09326171875,-0.14166259765625,0.1777496337890625
1780626347503623700,0.261623779296875,-1.0721588134765625,-0.15032958984375,0.1640167236328125
1780626347513620000,0.271619873046875,-1.0061492919921875,-0.1834259033203125,0.152130126953125
1780626347523615000,0.281614990234375,-0.9378204345703125,-0.2336578369140625,0.1358489990234375
1780626347533610000,0.29160986328125,-0.8824615478515625,-0.2784271240234375,0.11419677734375
1780626347543605800,0.301605712890625,-0.870880126953125,-0.281158447265625,0.0987396240234375
1780626347553600800,0.311600830078125,-0.8857879638671875,-0.17364501953125,0.138458251953125
1780626347563596800,0.3215966796875,-1.18218994140625,-0.0916900634765625,0.19830322265625
1780626347573591800,0.331591796875,-1.214324951171875,-0.11053466796875,0.1952667236328125
1780626347583586800,0.3415869140625,-1.1037750244140625,-0.109222412109375,0.187103271484375
1780626347593582800,0.351582763671875,-1.02178955078125,-0.1506195068359375,0.224578857421875
1780626347603577900,0.361577880859375,-0.899566650390625,-0.2220916748046875,0.2374420166015625
1780626347613572900,0.37157275390625,-0.8433685302734375,-0.3074493408203125,0.213470458984375
1780626347623569000,0.38156884765625,-0.9115753173828125,-0.3339996337890625,0.0610198974609375
1780626347633563600,0.391563720703125,-1.0217132568359375,-0.286529541015625,-0.0352783203125
1780626347643558700,0.40155859375,-1.0888519287109375,-0.3075408935546875,0.017608642578125
1780626347653555000,0.411554931640625,-1.08526611328125,-0.2864990234375,0.0989990234375
1780626347663550000,0.421550048828125,-1.0363311767578125,-0.317413330078125,0.1327667236328125
1780626347673545000,0.431544921875,-0.9626007080078125,-0.41046142578125,0.131317138671875
1780626347683540700,0.441540771484375,-0.8897705078125,-0.411712646484375,0.144805908203125
1780626347693535700,0.45153564453125,-0.85076904296875,-0.380126953125,0.17315673828125
1780626347703530800,0.46153076171875,-0.818572998046875,-0.3611907958984375,0.1851348876953125
1780626347713526800,0.47152685546875,-0.730010986328125,-0.3670501708984375,0.22314453125
1780626347723521800,0.481521728515625,-0.737152099609375,-0.33489990234375,0.2413330078125
1780626347733517800,0.491517822265625,-0.8741455078125,-0.2811737060546875,0.4452056884765625
1780626347743512800,0.501512939453125,-0.9859161376953125,-0.34765625,0.5784759521484375
1780626347753507800,0.5115078125,-0.893218994140625,-0.3403778076171875,0.369140625
1780626347763503900,0.52150390625,-0.8586883544921875,-0.3350067138671875,0.1644134521484375
1780626347773499000,0.531498779296875,-0.83709716796875,-0.4251708984375,0.17303466796875
1780626347783493600,0.54149365234375,-0.791900634765625,-0.4205474853515625,0.2226409912109375
1780626347793489700,0.55148974609375,-0.833221435546875,-0.3736572265625,0.2003173828125
1780626347803485000,0.56148486328125,-0.8928985595703125,-0.3673095703125,0.142547607421875
1780626347813480000,0.57147998046875,-0.96075439453125,-0.404205322265625,0.091644287109375
1780626347823475700,0.581475830078125,-0.9842681884765625,-0.36053466796875,0.0773773193359375
1780626347833470700,0.591470703125,-0.9790496826171875,-0.3502197265625,0.0834503173828125
1780626347843465700,0.6014658203125,-0.9383087158203125,-0.31622314453125,0.0978240966796875
1780626347853461800,0.611461669921875,-0.8795318603515625,-0.337249755859375,0.0901336669921875
1780626347863456800,0.621456787109375,-0.8117218017578125,-0.379547119140625,0.1085662841796875
1780626347873451800,0.63145166015625,-0.83135986328125,-0.3769683837890625,0.1488037109375
1780626347883447800,0.64144775390625,-0.9965057373046875,-0.25469970703125,0.2650909423828125
1780626347893442800,0.65144287109375,-0.7472076416015625,-0.296478271484375,0.2120819091796875
1780626347903437800,0.661437744140625,-0.5652008056640625,-0.5298309326171875,0.112548828125
1780626347913433900,0.671433837890625,-0.599578857421875,-0.594635009765625,0.1180877685546875
1780626347923428900,0.681428955078125,-0.753265380859375,-0.596099853515625,0.1702423095703125
1780626347933424600,0.691424560546875,-0.919097900390625,-0.585662841796875,0.2234039306640625
1780626347943419600,0.701419677734375,-0.9488983154296875,-0.600830078125,0.2295074462890625
1780626347953415000,0.711414794921875,-0.861724853515625,-0.6065521240234375,0.2010498046875
1780626347963411000,0.721410888671875,-0.8084716796875,-0.5887603759765625,0.1485443115234375
1780626347973406000,0.731406005859375,-0.8285980224609375,-0.530914306640625,0.1020965576171875
1780626347983400700,0.741400634765625,-0.8011322021484375,-0.4450225830078125,0.095794677734375
1780626347993396700,0.751396728515625,-0.7504119873046875,-0.4223785400390625,0.0457916259765625
1780626348003391700,0.761391845703125,-0.67620849609375,-0.4154510498046875,-0.05352783203125
1780626348013386800,0.77138671875,-0.8482208251953125,-0.4868316650390625,0.0308380126953125
1780626348023382800,0.7813828125,-0.8563690185546875,-0.5140380859375,0.0543975830078125
1780626348033377800,0.791377685546875,-0.9466094970703125,-0.4946136474609375,0.0210418701171875
1780626348043372800,0.801372802734375,-1.0193328857421875,-0.461639404296875,-0.0420989990234375
1780626348053368800,0.811368896484375,-0.966400146484375,-0.389739990234375,-0.072418212890625
1780626348063363800,0.82136376953125,-0.954559326171875,-0.3629302978515625,-0.0360107421875
1780626348073358800,0.83135888671875,-0.8514862060546875,-0.3494873046875,-0.011688232421875
1780626348083354600,0.841354736328125,-0.7701568603515625,-0.3433990478515625,0.006439208984375
1780626348093349600,0.851349609375,-0.7525482177734375,-0.3412322998046875,0.0377197265625
1780626348103345000,0.861344970703125,-0.8076019287109375,-0.455047607421875,0.0131072998046875
1780626348113341000,0.8713408203125,-0.92376708984375,-0.638214111328125,0.020904541015625
1780626348123336000,0.8813359375,-0.9492645263671875,-0.675262451171875,-0.0390167236328125
1780626348133331700,0.891331787109375,-0.8995208740234375,-0.561676025390625,-0.2122650146484375
1780626348143326700,0.90132666015625,-0.9347686767578125,-0.537841796875,-0.2805938720703125
1780626348153321700,0.91132177734375,-0.9577789306640625,-0.5378875732421875,-0.23358154296875
1780626348163318000,0.921318115234375,-0.928955078125,-0.50018310546875,-0.1402130126953125
1780626348173313000,0.93131298828125,-0.8800201416015625,-0.462066650390625,-0.06768798828125
1780626348183307800,0.941307861328125,-0.9003143310546875,-0.457122802734375,-0.059234619140625
1780626348193303800,0.9513037109375,-0.928863525390625,-0.4867706298828125,-0.0605010986328125
1780626348203298800,0.961298828125,-0.9276123046875,-0.4453277587890625,-0.01025390625
1780626348213293800,0.9712939453125,-0.889678955078125,-0.33392333984375,-0.12890625
1780626348223289900,0.981289794921875,-0.8904876708984375,-0.3406829833984375,-0.1601715087890625
1780626348233284600,0.99128466796875,-0.89068603515625,-0.457733154296875,0.0966949462890625
1780626348243279600,1.001279541015625,-0.8818359375,-0.37823486328125,0.2131195068359375
1780626348253276000,1.01127587890625,-0.8591766357421875,-0.3009796142578125,0.0585174560546875
1780626348263271000,1.02127099609375,-0.8419036865234375,-0.365203857421875,-0.0359954833984375
1780626348273266000,1.031265869140625,-0.8336181640625,-0.46929931640625,-0.03704833984375
1780626348283261700,1.04126171875,-0.848541259765625,-0.5084228515625,-0.0143280029296875
1780626348293256700,1.051256591796875,-0.8868408203125,-0.508819580078125,-0.0279083251953125
1780626348303251700,1.061251708984375,-0.92169189453125,-0.5295562744140625,-0.0436553955078125
1780626348313248000,1.071248046875,-0.952789306640625,-0.564971923828125,-0.037445068359375
1780626348323243000,1.081242919921875,-0.98724365234375,-0.5734710693359375,-0.028411865234375
1780626348333237800,1.09123779296875,-0.9730072021484375,-0.4783477783203125,0.00384521484375
1780626348343234600,1.101234619140625,-0.9174957275390625,-0.3961944580078125,-0.01318359375
1780626348353229600,1.1112294921875,-0.8631439208984375,-0.395172119140625,-0.012481689453125
1780626348363225300,1.121225341796875,-0.7788543701171875,-0.4442291259765625,-0.015533447265625
1780626348373220400,1.131220458984375,-0.714385986328125,-0.516265869140625,-0.0752716064453125
1780626348383215400,1.14121533203125,-0.7830047607421875,-0.554351806640625,-0.16766357421875
1780626348393211400,1.15121142578125,-0.833892822265625,-0.47607421875,-0.1495208740234375
1780626348403206400,1.161206298828125,-0.8208770751953125,-0.3714141845703125,-0.10113525390625
1780626348413201400,1.171201416015625,-0.7595367431640625,-0.3538055419921875,-0.0345001220703125
1780626348423197400,1.181197509765625,-0.6810150146484375,-0.3965301513671875,0.02655029296875
1780626348433192400,1.1911923828125,-0.633453369140625,-0.4564208984375,0.033447265625
1780626348443187500,1.2011875,-0.592529296875,-0.497589111328125,-0.002227783203125
1780626348453183500,1.21118359375,-0.5469512939453125,-0.4993743896484375,-0.0430755615234375
1780626348463178500,1.221178466796875,-0.515625,-0.534393310546875,-0.09478759765625
1780626348473173500,1.231173583984375,-0.5118255615234375,-0.50457763671875,-0.2127532958984375
1780626348483169300,1.241169189453125,-0.4750823974609375,-0.2285003662109375,-0.8696441650390625
1780626348493164500,1.25116455078125,-0.4928131103515625,-0.255096435546875,-0.3594512939453125
1780626348503159600,1.26115966796875,-0.711669921875,-0.41259765625,0.1836395263671875
1780626348513155600,1.271155517578125,-0.6591033935546875,-0.2555389404296875,-0.1929473876953125
1780626348523150300,1.281150390625,-0.7262420654296875,-0.16888427734375,-0.2291412353515625
1780626348533145300,1.291145263671875,-0.64227294921875,-0.2376708984375,-0.134552001953125
1780626348543141400,1.301141357421875,-0.537689208984375,-0.2331390380859375,-0.1504974365234375
1780626348553136400,1.311136474609375,-0.4950714111328125,-0.16021728515625,-0.2804412841796875
1780626348563131400,1.32113134765625,-0.469573974609375,-0.0959625244140625,-0.4361419677734375
1780626348573127400,1.33112744140625,-0.4905242919921875,-0.0414886474609375,-0.5327301025390625
1780626348583122400,1.341122314453125,-0.4955291748046875,0.0095672607421875,-0.553924560546875
1780626348593117400,1.351117431640625,-0.4503173828125,0.053009033203125,-0.6110076904296875
1780626348603113500,1.361113525390625,-0.42108154296875,0.0590972900390625,-0.65142822265625
1780626348613108500,1.3711083984375,-0.449615478515625,0.0243988037109375,-0.621826171875
1780626348623104300,1.381104248046875,-0.508209228515625,0.007476806640625,-0.6454010009765625
1780626348633099300,1.391099365234375,-0.5436248779296875,0.0572357177734375,-0.687652587890625
1780626348643094500,1.401094482421875,-0.4516448974609375,0.1702423095703125,-0.64764404296875
1780626348653090600,1.411090576171875,-0.3101959228515625,0.252044677734375,-0.5321807861328125
1780626348663085600,1.42108544921875,-0.242645263671875,0.28363037109375,-0.5197296142578125
1780626348673080300,1.431080322265625,-0.3845062255859375,0.2535247802734375,-0.7500762939453125
1780626348683076400,1.441076416015625,-0.650787353515625,0.1932525634765625,-1.01373291015625
1780626348693071400,1.4510712890625,-0.613037109375,0.232086181640625,-0.98516845703125
1780626348703066400,1.46106640625,-0.4060211181640625,0.2529449462890625,-0.9226226806640625
1780626348713062400,1.4710625,-0.1837005615234375,0.2916259765625,-0.7833404541015625
1780626348723057400,1.481057373046875,-0.072265625,0.3259735107421875,-0.734710693359375
1780626348733052400,1.491052490234375,-0.166839599609375,0.3787841796875,-0.8274078369140625
1780626348743048400,1.50104833984375,-0.3052215576171875,0.42340087890625,-0.9911041259765625
1780626348753043500,1.51104345703125,-0.455352783203125,0.5037689208984375,-1.12298583984375
1780626348763038500,1.52103857421875,-0.572723388671875,0.5791015625,-1.2035675048828125
1780626348773034200,1.5310341796875,-0.5680084228515625,0.64239501953125,-1.2518157958984375
1780626348783029200,1.541029296875,-0.444427490234375,0.6956939697265625,-1.2653350830078125
1780626348793024500,1.5510244140625,-0.3485107421875,0.6683197021484375,-1.239013671875
1780626348803020500,1.5610205078125,-0.2181243896484375,0.5970916748046875,-1.2566375732421875
1780626348813015600,1.571015625,-0.01123046875,0.6405181884765625,-1.2934112548828125
1780626348823010600,1.581010498046875,0.0821990966796875,0.619964599609375,-1.533721923828125
1780626348833006300,1.59100634765625,0.0096282958984375,0.466522216796875,-1.8856201171875
1780626348843001300,1.60100146484375,-0.1263580322265625,0.2825469970703125,-2.083526611328125
1780626348852996400,1.610996337890625,-0.209381103515625,0.2021636962890625,-2.0972137451171875
1780626348862992600,1.62099267578125,-0.2046051025390625,0.31915283203125,-2.0500640869140625
1780626348872987400,1.6309873046875,-0.11834716796875,0.4552764892578125,-1.99969482421875
1780626348882982400,1.640982421875,-0.100616455078125,0.442718505859375,-2.0193634033203125
1780626348892978400,1.650978515625,-0.1090240478515625,0.367645263671875,-2.0940399169921875
1780626348902973400,1.660973388671875,-0.046539306640625,0.2921295166015625,-2.0984344482421875
1780626348912968400,1.670968505859375,0.0551910400390625,0.2784271240234375,-1.9895477294921875
1780626348922964200,1.680964111328125,0.1130218505859375,0.3055419921875,-1.846038818359375
1780626348932959200,1.690959228515625,0.061187744140625,0.2747039794921875,-1.7496795654296875
1780626348942954500,1.70095458984375,0.058868408203125,0.2183837890625,-1.7056427001953125
1780626348952950500,1.710950439453125,0.108551025390625,0.1800384521484375,-1.6015777587890625
1780626348962945500,1.720945556640625,0.1060333251953125,0.2152252197265625,-1.4820098876953125
1780626348972940500,1.7309404296875,0.1770172119140625,0.365264892578125,-1.2904510498046875
1780626348982936300,1.740936279296875,0.2175750732421875,0.469970703125,-1.1280670166015625
1780626348992931300,1.750931396484375,0.14453125,0.469329833984375,-1.0532684326171875
1780626349002926300,1.76092626953125,0.0867919921875,0.471405029296875,-1.0214691162109375
1780626349012922600,1.770922607421875,0.0860748291015625,0.493621826171875,-0.9549102783203125
1780626349022917600,1.780917724609375,0.06878662109375,0.48260498046875,-0.9121856689453125
1780626349032913400,1.790913330078125,0.060455322265625,0.436981201171875,-0.9078216552734375
1780626349042908400,1.800908447265625,0.011444091796875,0.370635986328125,-0.9342498779296875
1780626349052903400,1.8109033203125,-0.081695556640625,0.3097991943359375,-0.962249755859375
1780626349062899500,1.8208994140625,-0.195526123046875,0.3167572021484375,-0.960205078125
1780626349072894200,1.830894287109375,-0.236602783203125,0.421722412109375,-0.8972320556640625
1780626349082889200,1.84088916015625,-0.166229248046875,0.5632476806640625,-0.7486114501953125
1780626349092885500,1.850885498046875,-0.13153076171875,0.618316650390625,-0.6204681396484375
1780626349102880500,1.860880615234375,-0.116851806640625,0.6243438720703125,-0.5531005859375
1780626349112875500,1.87087548828125,-0.0894622802734375,0.58489990234375,-0.5421142578125
1780626349122871300,1.880871337890625,-0.1065673828125,0.5047607421875,-0.59576416015625
1780626349132866300,1.8908662109375,-0.1718292236328125,0.409454345703125,-0.6866912841796875
1780626349142861300,1.900861328125,-0.2910308837890625,0.33038330078125,-0.7765045166015625
1780626349152857600,1.910857666015625,-0.4349365234375,0.294189453125,-0.877288818359375
1780626349162852600,1.9208525390625,-0.4860992431640625,0.295196533203125,-0.9447784423828125
1780626349172847600,1.93084765625,-0.4466094970703125,0.338104248046875,-0.9512481689453125
1780626349182843400,1.940843505859375,-0.2266998291015625,0.373626708984375,-0.8831329345703125
1780626349192838400,1.95083837890625,0.030609130859375,0.395477294921875,-0.777069091796875
1780626349202833400,1.96083349609375,0.0832366943359375,0.36566162109375,-0.794921875
1780626349212829400,1.970829345703125,-0.0225067138671875,0.3019866943359375,-0.829010009765625
1780626349222824400,1.980824462890625,-0.2651824951171875,0.2245025634765625,-0.8428955078125
1780626349232819200,1.990819091796875,-0.38519287109375,0.165618896484375,-0.8444061279296875
1780626349242815500,2.0008154296875,-0.418121337890625,0.15032958984375,-0.8331146240234375
1780626349252810500,2.010810546875,-0.37506103515625,0.12054443359375,-0.871795654296875
1780626349262805500,2.020805419921875,-0.2110137939453125,0.0563812255859375,-0.8690032958984375
1780626349272801300,2.03080126953125,-0.0076141357421875,-0.0396575927734375,-0.8528594970703125
1780626349282796300,2.04079638671875,0.0110015869140625,-0.1245269775390625,-0.87750244140625
1780626349292791300,2.050791259765625,-0.0469207763671875,-0.129425048828125,-0.8738250732421875
1780626349302787600,2.06078759765625,-0.1474456787109375,-0.1114501953125,-0.8649749755859375
1780626349312782600,2.070782470703125,-0.2877655029296875,-0.0842742919921875,-0.896575927734375
1780626349322777600,2.080777587890625,-0.41754150390625,-0.0510406494140625,-0.9625701904296875
1780626349332773400,2.0907734375,-0.400146484375,-0.0411834716796875,-0.958770751953125
1780626349342768600,2.1007685546875,-0.3281097412109375,-0.0269317626953125,-0.86053466796875
1780626349352763600,2.110763671875,-0.159454345703125,-0.0628509521484375,-0.862884521484375
1780626349362759700,2.120759765625,-0.1512451171875,-0.0791473388671875,-0.856170654296875
1780626349372754700,2.130754638671875,-0.311248779296875,0.0123291015625,-0.814697265625
1780626349382749400,2.14074951171875,-0.4672088623046875,0.1188507080078125,-0.8502349853515625
1780626349392745500,2.150745361328125,-0.4441375732421875,0.0954132080078125,-0.8899688720703125
1780626349402740500,2.160740478515625,-0.283782958984375,0.01361083984375,-0.8268280029296875
1780626349412735500,2.170735595703125,-0.197265625,-0.07196044921875,-0.7787933349609375
1780626349422731500,2.1807314453125,-0.1402587890625,-0.0848846435546875,-0.752593994140625
1780626349432726500,2.1907265625,-0.1351318359375,-0.0146942138671875,-0.699432373046875
1780626349442722600,2.20072265625,-0.241973876953125,0.0560455322265625,-0.6625518798828125
1780626349452717600,2.210717529296875,-0.3211517333984375,0.11505126953125,-0.687652587890625
1780626349462712600,2.220712646484375,-0.3322906494140625,0.0853271484375,-0.8232574462890625
1780626349472708400,2.230708251953125,-0.28485107421875,0.0474853515625,-0.9510040283203125
1780626349482703400,2.240703369140625,-0.266632080078125,-0.0126190185546875,-1.033233642578125
1780626349492698600,2.25069873046875,-0.191864013671875,-0.029693603515625,-1.0452728271484375
1780626349502694700,2.260694580078125,-0.089324951171875,0.04779052734375,-0.9587249755859375
1780626349512689700,2.270689697265625,0.031585693359375,0.14080810546875,-0.8184814453125
1780626349522684700,2.2806845703125,0.0476837158203125,0.2318572998046875,-0.6591339111328125
1780626349532680400,2.290680419921875,-0.1308746337890625,0.315887451171875,-0.61383056640625
1780626349542675500,2.300675537109375,-0.2516632080078125,0.419403076171875,-0.7032928466796875
1780626349552670500,2.31067041015625,-0.2194976806640625,0.4195709228515625,-0.75860595703125
1780626349562666800,2.320666748046875,-0.261566162109375,0.3928680419921875,-0.7966156005859375
1780626349572661800,2.330661865234375,-0.386932373046875,0.2899322509765625,-1.0381317138671875
1780626349582656500,2.340656494140625,-0.354705810546875,0.2603759765625,-1.2145843505859375
1780626349592652500,2.350652587890625,-0.2236175537109375,0.2451171875,-1.0816192626953125
1780626349602647600,2.3606474609375,-0.1183929443359375,0.242919921875,-0.9433441162109375
1780626349612642600,2.370642578125,-0.0800018310546875,0.3177032470703125,-0.7979583740234375
1780626349622638300,2.380638427734375,-0.1459808349609375,0.381134033203125,-0.7894287109375
1780626349632633300,2.39063330078125,-0.1965484619140625,0.418212890625,-0.724639892578125
1780626349642628600,2.400628662109375,-0.2697601318359375,0.4458465576171875,-0.6526641845703125
1780626349652624600,2.410624755859375,-0.465789794921875,0.41986083984375,-0.9406585693359375
1780626349662619600,2.42061962890625,-0.5753631591796875,0.2174835205078125,-1.4176177978515625
1780626349672614700,2.43061474609375,-0.438201904296875,0.0261688232421875,-1.568328857421875
1780626349682610400,2.4406103515625,-0.31121826171875,-0.10723876953125,-1.642791748046875
1780626349692605400,2.45060546875,-0.15777587890625,-0.040618896484375,-1.4811248779296875
1780626349702600400,2.460600341796875,-0.2135162353515625,-0.069000244140625,-1.5789947509765625
1780626349712596700,2.4705966796875,-0.3091278076171875,-0.1219635009765625,-1.5542755126953125
1780626349722591700,2.480591796875,-0.34783935546875,-0.0596771240234375,-1.4101715087890625
1780626349732586500,2.49058642578125,-0.2884368896484375,0.0703582763671875,-1.2152252197265625
1780626349742582500,2.50058251953125,-0.1910400390625,0.107818603515625,-1.0714874267578125
1780626349752577500,2.51057763671875,-0.1984405517578125,0.224945068359375,-1.1384429931640625
1780626349762572500,2.520572509765625,-0.3153839111328125,0.2545928955078125,-1.095916748046875
1780626349772568600,2.530568603515625,-0.2056884765625,0.2062530517578125,-0.928924560546875
1780626349782563300,2.540563232421875,-0.030303955078125,0.307861328125,-0.8278045654296875
1780626349792558600,2.55055859375,0.084320068359375,0.4034423828125,-0.724365234375
1780626349802554600,2.5605546875,0.1252593994140625,0.4520721435546875,-0.646636962890625
1780626349812549600,2.570549560546875,0.115020751953125,0.4589996337890625,-0.6340484619140625
1780626349822544600,2.580544677734375,0.084869384765625,0.4459228515625,-0.637542724609375
1780626349832540400,2.59054052734375,0.0062255859375,0.373016357421875,-0.73516845703125
1780626349842535400,2.600535400390625,-0.0602874755859375,0.3311614990234375,-0.8469085693359375
1780626349852530400,2.610530517578125,-0.054656982421875,0.24810791015625,-0.97015380859375
1780626349862526700,2.620526611328125,0.036773681640625,0.11968994140625,-1.0551300048828125
1780626349872521700,2.630521728515625,0.1455230712890625,0.09564208984375,-1.0451507568359375
1780626349882516700,2.640516845703125,0.1567535400390625,0.09783935546875,-1.100921630859375
1780626349892512500,2.650512451171875,0.065093994140625,0.052398681640625,-1.1936187744140625
1780626349902507500,2.660507568359375,-0.009124755859375,-0.0076904296875,-1.2857666015625
1780626349912502500,2.67050244140625,-0.075103759765625,-0.05908203125,-1.2932891845703125
1780626349922498600,2.68049853515625,-0.0513763427734375,-0.059173583984375,-1.280364990234375
1780626349932493600,2.69049365234375,-0.007598876953125,-0.0710296630859375,-1.2644500732421875
1780626349942489600,2.700489501953125,0.0077667236328125,0.053680419921875,-1.09722900390625
1780626349952484600,2.710484619140625,-0.2098541259765625,0.601470947265625,-0.565399169921875
1780626349962479600,2.720479736328125,-0.39208984375,0.9394378662109375,-0.5132598876953125
1780626349972475600,2.7304755859375,-0.286834716796875,0.9837493896484375,-0.351348876953125
1780626349982470400,2.740470458984375,0.1719970703125,0.628082275390625,-0.593658447265625
1780626349992465400,2.75046533203125,0.052001953125,0.3636932373046875,-0.8147430419921875
1780626350002461700,2.760461669921875,0.1012725830078125,0.2612152099609375,-0.9843292236328125
1780626350012456700,2.770456787109375,0.0743560791015625,0.32220458984375,-1.0098724365234375
1780626350022451700,2.78045166015625,0.1144256591796875,0.4557037353515625,-0.911346435546875
1780626350032447500,2.790447509765625,0.1415863037109375,0.46490478515625,-0.821380615234375
1780626350042442500,2.8004423828125,0.11175537109375,0.4709930419921875,-0.7549591064453125
1780626350052437500,2.8104375,0.035797119140625,0.44024658203125,-0.7725982666015625
1780626350062433500,2.82043359375,-0.0102386474609375,0.376922607421875,-0.8393096923828125
1780626350072428500,2.830428466796875,0.0750579833984375,0.2539215087890625,-0.951904296875
1780626350082423600,2.840423583984375,0.0320587158203125,0.14044189453125,-1.0151519775390625
1780626350092419600,2.850419677734375,-0.038543701171875,0.15557861328125,-1.0303802490234375
1780626350102414600,2.86041455078125,-0.043792724609375,0.2540740966796875,-1.011016845703125
1780626350112409600,2.87040966796875,-0.0184783935546875,0.32318115234375,-1.006561279296875
1780626350122405600,2.880405517578125,0.0024871826171875,0.32806396484375,-1.0029754638671875
1780626350132400600,2.890400634765625,0.02508544921875,0.2785491943359375,-1.0027313232421875
1780626350142395400,2.9003955078125,0.1207733154296875,0.23565673828125,-0.968048095703125
1780626350152391700,2.9103916015625,0.11126708984375,0.249420166015625,-0.9646148681640625
1780626350162386700,2.92038671875,0.020599365234375,0.255340576171875,-1.01568603515625
1780626350172381700,2.930381591796875,-0.0353851318359375,0.2146148681640625,-1.0269012451171875
1780626350182377500,2.94037744140625,-0.0590972900390625,0.197174072265625,-1.032989501953125
1780626350192372500,2.95037255859375,-0.0666656494140625,0.2273406982421875,-1.0305633544921875
1780626350202367500,2.960367431640625,-0.055389404296875,0.2503662109375,-1.02178955078125
1780626350212363500,2.970363525390625,-0.0627593994140625,0.2841033935546875,-0.989837646484375
1780626350222358500,2.980358642578125,-0.0989227294921875,0.3285369873046875,-0.966766357421875
1780626350232353500,2.990353515625,-0.0772705078125,0.3408966064453125,-0.89306640625
1780626350242349600,3.000349609375,-0.027618408203125,0.3224029541015625,-0.7734527587890625
1780626350252344600,3.010344482421875,0.063995361328125,0.271240234375,-0.7135009765625
1780626350262339600,3.020339599609375,0.073822021484375,0.2231292724609375,-0.6687774658203125
1780626350272335600,3.030335693359375,0.0069122314453125,0.2199554443359375,-0.660308837890625
1780626350282330600,3.04033056640625,-0.08642578125,0.212982177734375,-0.6811065673828125
1780626350292325400,3.050325439453125,-0.0954742431640625,0.184112548828125,-0.7182159423828125
1780626350302321700,3.06032177734375,-0.0515594482421875,0.16217041015625,-0.8255157470703125
1780626350312316700,3.070316650390625,-0.0092315673828125,0.220306396484375,-0.9591827392578125
1780626350322311700,3.080311767578125,-0.0064849853515625,0.367645263671875,-0.9656829833984375
1780626350332307500,3.090307373046875,-0.008544921875,0.5251922607421875,-0.910736083984375
1780626350342302500,3.100302490234375,0.0231781005859375,0.6503753662109375,-0.8592376708984375
1780626350352297500,3.11029736328125,0.0335845947265625,0.7243194580078125,-0.866058349609375
1780626350362293500,3.12029345703125,0.0036163330078125,0.782470703125,-0.942047119140625
1780626350372288500,3.13028857421875,-0.0482635498046875,0.78363037109375,-1.0283966064453125
1780626350382283500,3.140283447265625,-0.1049041748046875,0.7213134765625,-1.0553131103515625
1780626350392279600,3.150279541015625,-0.1327362060546875,0.67010498046875,-1.0264129638671875
1780626350402274600,3.160274658203125,-0.1195068359375,0.6603851318359375,-1.018157958984375
1780626350412269600,3.17026953125,-0.135955810546875,0.6633453369140625,-0.9635009765625
1780626350422265600,3.180265625,-0.0413360595703125,0.5872650146484375,-0.86724853515625
1780626350432260600,3.190260498046875,-0.0623321533203125,0.5446929931640625,-0.84271240234375
1780626350442255600,3.200255615234375,-0.1074371337890625,0.6119537353515625,-0.760162353515625
1780626350452251600,3.210251708984375,-0.0890960693359375,0.6147613525390625,-0.68963623046875
1780626350462246700,3.22024658203125,-0.07696533203125,0.524200439453125,-0.7329254150390625
1780626350472241700,3.23024169921875,-0.0514678955078125,0.4627532958984375,-0.8271331787109375
1780626350482237700,3.24023779296875,-0.0681304931640625,0.4657745361328125,-0.8571624755859375
1780626350492232400,3.250232421875,-0.1120452880859375,0.501068115234375,-0.855224609375
1780626350502228500,3.260228515625,-0.1341552734375,0.515899658203125,-0.8510589599609375
1780626350512223500,3.270223388671875,-0.1376495361328125,0.56280517578125,-0.8019256591796875
1780626350522218500,3.280218505859375,-0.138885498046875,0.63641357421875,-0.7798614501953125
1780626350532214500,3.290214599609375,-0.1617889404296875,0.63372802734375,-0.8259735107421875
1780626350542209500,3.30020947265625,-0.1624603271484375,0.5599212646484375,-0.8653717041015625
1780626350552204500,3.31020458984375,-0.1497802734375,0.50396728515625,-0.870574951171875
1780626350562200600,3.32020068359375,-0.12176513671875,0.4793243408203125,-0.8531646728515625
1780626350572195600,3.330195556640625,-0.0953216552734375,0.48394775390625,-0.8217010498046875
1780626350582190600,3.340190673828125,-0.080841064453125,0.497161865234375,-0.8229522705078125
1780626350592186400,3.350186279296875,-0.0623016357421875,0.49639892578125,-0.8369140625
1780626350602181600,3.360181640625,-0.1148529052734375,0.4280853271484375,-0.8676910400390625
1780626350612176600,3.3701767578125,-0.1205291748046875,0.314697265625,-0.9155426025390625
1780626350622172700,3.380172607421875,-0.0922088623046875,0.2612762451171875,-0.903045654296875
1780626350632167700,3.390167724609375,-0.106170654296875,0.3217010498046875,-0.8838653564453125
1780626350642162700,3.40016259765625,-0.1666412353515625,0.433837890625,-0.8676300048828125
1780626350652158500,3.410158447265625,-0.23651123046875,0.49432373046875,-0.849334716796875
1780626350662153500,3.420153564453125,-0.22039794921875,0.4942779541015625,-0.8547515869140625
1780626350672148500,3.4301484375,-0.0955657958984375,0.464813232421875,-0.8748321533203125
1780626350682144800,3.440144775390625,0.0088958740234375,0.440155029296875,-0.9056243896484375
1780626350692139500,3.450139404296875,0.039947509765625,0.4296417236328125,-0.9667816162109375
1780626350702134500,3.460134521484375,-0.0478363037109375,0.4057464599609375,-0.996673583984375
1780626350712130600,3.470130615234375,-0.1132965087890625,0.3882293701171875,-0.9944000244140625
1780626350722125600,3.48012548828125,-0.145660400390625,0.3760223388671875,-0.9755096435546875
1780626350732120600,3.49012060546875,-0.1202392578125,0.330963134765625,-0.9528961181640625
1780626350742116400,3.500116455078125,-0.1101531982421875,0.291778564453125,-0.9217071533203125
1780626350752111600,3.510111572265625,-0.079864501953125,0.2696990966796875,-0.8742523193359375
1780626350762106600,3.520106689453125,-0.0756683349609375,0.2624053955078125,-0.8587493896484375
1780626350772102700,3.5301025390625,-0.0490875244140625,0.272613525390625,-0.88861083984375
1780626350782097700,3.54009765625,-0.054656982421875,0.296600341796875,-0.9074249267578125
1780626350792092700,3.5500927734375,-0.08563232421875,0.3502960205078125,-0.8885955810546875
1780626350802088400,3.56008837890625,-0.1028594970703125,0.42193603515625,-0.879730224609375
1780626350812083500,3.57008349609375,-0.0876922607421875,0.46466064453125,-0.8839569091796875
1780626350822078500,3.580078369140625,-0.0736083984375,0.4754638671875,-0.9088897705078125
1780626350832074800,3.59007470703125,-0.068267822265625,0.4726409912109375,-0.9303741455078125
1780626350842069500,3.600069580078125,-0.076690673828125,0.4853668212890625,-0.902923583984375
1780626350852064500,3.610064453125,-0.152252197265625,0.535736083984375,-0.87298583984375
1780626350862060500,3.620060546875,-0.244049072265625,0.6898651123046875,-0.821807861328125
1780626350872055600,3.6300556640625,-0.2657318115234375,0.847381591796875,-0.7975311279296875
1780626350882050600,3.640050537109375,-0.12481689453125,0.8288116455078125,-0.7291717529296875
1780626350892046300,3.65004638671875,0.08392333984375,0.76654052734375,-0.61602783203125
1780626350902041600,3.66004150390625,-0.1927642822265625,0.550018310546875,-0.716522216796875
1780626350912036600,3.67003662109375,-0.2351531982421875,0.514404296875,-0.8889312744140625
1780626350922032600,3.68003271484375,0.0548095703125,0.546478271484375,-0.918060302734375
1780626350932027600,3.690027587890625,0.2351226806640625,0.6414337158203125,-0.7980499267578125
1780626350942022700,3.700022705078125,0.3457489013671875,0.80462646484375,-0.66949462890625
1780626350952018400,3.710018310546875,0.3103485107421875,0.90155029296875,-0.5890350341796875
1780626350962013400,3.720013427734375,0.191802978515625,0.896820068359375,-0.56781005859375
1780626350972008400,3.730008544921875,0.146331787109375,0.907684326171875,-0.6384735107421875
1780626350982004700,3.740004638671875,0.098236083984375,0.8700408935546875,-0.6748046875
1780626350991999700,3.749999755859375,0.131591796875,0.793243408203125,-0.6641387939453125
1780626351001994500,3.759994384765625,0.0546722412109375,0.7258148193359375,-0.672271728515625
1780626351011990500,3.769990478515625,-0.0639190673828125,0.726776123046875,-0.6745452880859375
1780626351021985500,3.779985595703125,-0.06597900390625,0.7951812744140625,-0.6712493896484375
1780626351031980500,3.78998046875,0.0137786865234375,0.779205322265625,-0.6744384765625
1780626351041976600,3.7999765625,0.084136962890625,0.7984771728515625,-0.64825439453125
1780626351051971600,3.8099716796875,0.1021575927734375,0.7227935791015625,-0.6627349853515625
1780626351061966600,3.819966552734375,0.1395416259765625,0.681671142578125,-0.6515655517578125
1780626351071962600,3.829962646484375,0.1597442626953125,0.65484619140625,-0.63671875
1780626351081957600,3.83995751953125,0.1561126708984375,0.6710662841796875,-0.636932373046875
1780626351091952600,3.84995263671875,0.157745361328125,0.6751251220703125,-0.66693115234375
1780626351101948400,3.859948486328125,0.1020660400390625,0.6169281005859375,-0.6969146728515625
1780626351111943400,3.869943359375,-0.0048828125,0.668548583984375,-0.6508636474609375
1780626351121938400,3.8799384765625,-0.0606231689453125,0.710235595703125,-0.58502197265625
1780626351131934700,3.889934814453125,-0.0463409423828125,0.7517242431640625,-0.5052490234375
1780626351141929700,3.8999296875,-0.011871337890625,0.7632904052734375,-0.4596405029296875
1780626351151925500,3.909925537109375,0.049468994140625,0.7866668701171875,-0.4609832763671875
1780626351161920500,3.91992041015625,0.2505645751953125,0.8271636962890625,-0.4859161376953125
1780626351171915500,3.92991552734375,0.4485015869140625,0.8235626220703125,-0.535369873046875
1780626351181911600,3.93991162109375,0.4718170166015625,0.8280487060546875,-0.5507354736328125
1780626351191906600,3.949906494140625,0.3694610595703125,0.80462646484375,-0.53314208984375
1780626351201901600,3.959901611328125,0.2798614501953125,0.7696533203125,-0.493621826171875
1780626351211897600,3.969897705078125,0.3034210205078125,0.7749786376953125,-0.434173583984375
1780626351221892600,3.979892578125,0.3392486572265625,0.807220458984375,-0.340576171875
1780626351231887600,3.9898876953125,0.34661865234375,0.7793731689453125,-0.323272705078125
1780626351241883400,3.99988330078125,0.30938720703125,0.5655364990234375,-0.445465087890625
1780626351251878400,4.00987841796875,0.176666259765625,0.5013885498046875,-0.3950042724609375
1780626351261873400,4.019873291015625,0.242950439453125,0.6553192138671875,-0.21142578125
1780626351271869700,4.02986962890625,0.248626708984375,0.741302490234375,-0.1148529052734375
1780626351281864700,4.03986474609375,0.1390533447265625,0.84124755859375,-0.02996826171875
1780626351291859700,4.049859619140625,0.025634765625,0.963134765625,0.01275634765625
1780626351301855500,4.05985546875,0.01690673828125,1.0606231689453125,0.0336761474609375
1780626351311850500,4.0698505859375,0.041046142578125,1.1266632080078125,0.0291290283203125
1780626351321845500,4.079845458984375,0.1094207763671875,1.12615966796875,-0.01123046875
1780626351331841500,4.089841552734375,0.1634674072265625,1.084320068359375,-0.066009521484375
1780626351341836800,4.0998369140625,0.20208740234375,1.03955078125,-0.107147216796875
1780626351351831800,4.109831787109375,0.247314453125,1.019927978515625,-0.11761474609375
1780626351361827800,4.119827880859375,0.259002685546875,1.0200653076171875,-0.067779541015625
1780626351371822800,4.12982275390625,0.273162841796875,1.0202178955078125,0.0023651123046875
1780626351381817900,4.13981787109375,0.2569122314453125,0.98040771484375,0.0647125244140625
1780626351391813600,4.149813720703125,0.23388671875,0.897491455078125,0.0892181396484375
1780626351401808600,4.15980859375,0.2216033935546875,0.7491302490234375,0.0525360107421875
1780626351411803600,4.1698037109375,0.187408447265625,0.589019775390625,0.0361480712890625
1780626351421800000,4.179800048828125,0.1896514892578125,0.3975830078125,-0.001617431640625
1780626351431795000,4.189794921875,0.1494598388671875,0.208984375,-0.049652099609375
1780626351441790000,4.1997900390625,0.074554443359375,0.1114654541015625,-0.0738983154296875
1780626351451785700,4.20978564453125,0.1911163330078125,0.071685791015625,-0.077545166015625
1780626351461780700,4.21978076171875,0.526214599609375,0.2645721435546875,0.0067138671875
1780626351471775700,4.229775634765625,0.578887939453125,0.59747314453125,0.1461029052734375
1780626351481771800,4.239771728515625,0.3977508544921875,1.1975860595703125,0.3988494873046875
1780626351491766800,4.249766845703125,0.1837921142578125,1.9215087890625,0.6661224365234375
1780626351501761800,4.25976171875,0.0255889892578125,2.554840087890625,0.970916748046875
1780626351511757800,4.2697578125,0.040557861328125,2.9596099853515625,1.204925537109375
1780626351521752800,4.2797529296875,0.1502685546875,2.815704345703125,1.0306396484375
1780626351531747800,4.289747802734375,0.35662841796875,1.915618896484375,0.2842254638671875
1780626351541743900,4.299743896484375,0.233795166015625,1.1321563720703125,-0.1651153564453125
1780626351551738600,4.309738525390625,0.1277313232421875,0.981536865234375,-0.1954345703125
1780626351561733600,4.319733642578125,0.266998291015625,0.8380126953125,-0.203033447265625
1780626351571730000,4.32972998046875,0.3482208251953125,0.77008056640625,-0.1197967529296875
1780626351581725000,4.339724853515625,0.3184661865234375,0.794677734375,0.0564422607421875
1780626351591720700,4.349720703125,0.2358551025390625,0.8651275634765625,0.24151611328125
1780626351601715700,4.3597158203125,0.1555938720703125,0.9083709716796875,0.34466552734375
1780626351611710700,4.369710693359375,0.1421661376953125,0.9031219482421875,0.3815460205078125
1780626351621706800,4.379706787109375,0.197906494140625,0.8607177734375,0.368072509765625
1780626351631701800,4.38970166015625,0.1644744873046875,0.8405303955078125,0.344024658203125
1780626351641696800,4.39969677734375,0.1728515625,0.8352203369140625,0.3133392333984375
1780626351651692800,4.40969287109375,0.23284912109375,0.8417510986328125,0.288909912109375
1780626351661687800,4.419687744140625,0.285980224609375,0.8688201904296875,0.2815093994140625
1780626351671682800,4.429682861328125,0.30169677734375,0.891510009765625,0.2761077880859375
1780626351681678800,4.439678955078125,0.2877197265625,0.8919219970703125,0.25958251953125
1780626351691673900,4.449673828125,0.2735748291015625,0.883392333984375,0.236236572265625
1780626351701668900,4.4596689453125,0.2559814453125,0.8699188232421875,0.2138824462890625
1780626351711665000,4.469664794921875,0.23309326171875,0.8475494384765625,0.1990203857421875
1780626351721660000,4.479659912109375,0.2240447998046875,0.8298797607421875,0.1965179443359375
1780626351731655000,4.489655029296875,0.2559356689453125,0.819061279296875,0.198760986328125
1780626351741651000,4.49965087890625,0.3065338134765625,0.8278045654296875,0.20709228515625
1780626351751645700,4.509645751953125,0.328826904296875,0.84490966796875,0.2138519287109375
1780626351761640700,4.519640625,0.3151092529296875,0.854705810546875,0.2066497802734375
1780626351771636700,4.52963671875,0.2979736328125,0.86639404296875,0.19122314453125
1780626351781631700,4.5396318359375,0.292449951171875,0.879150390625,0.1790618896484375
1780626351791626800,4.549626708984375,0.284393310546875,0.880462646484375,0.177520751953125
1780626351801622800,4.559622802734375,0.2768096923828125,0.8765716552734375,0.19512939453125
1780626351811617800,4.56961767578125,0.3039398193359375,0.8600616455078125,0.2086181640625
1780626351821612800,4.57961279296875,0.3421630859375,0.8446044921875,0.2003173828125
1780626351831608800,4.58960888671875,0.3348388671875,0.84716796875,0.2067413330078125
1780626351841603800,4.599603759765625,0.3250732421875,0.8325653076171875,0.2221832275390625
1780626351851598800,4.609598876953125,0.3098907470703125,0.8224334716796875,0.2599945068359375
1780626351861595000,4.619594970703125,0.3313446044921875,0.814117431640625,0.2779083251953125
1780626351871590000,4.62958984375,0.3630523681640625,0.8305511474609375,0.3038177490234375
1780626351881585000,4.6395849609375,0.3644561767578125,0.857574462890625,0.33258056640625
1780626351891581000,4.649580810546875,0.3652496337890625,0.880950927734375,0.35137939453125
1780626351901575700,4.65957568359375,0.376007080078125,0.8975067138671875,0.3599395751953125
1780626351911570700,4.66957080078125,0.393035888671875,0.9068756103515625,0.34808349609375
1780626351921566700,4.679566650390625,0.406097412109375,0.9082794189453125,0.310089111328125
1780626351931561700,4.689561767578125,0.3971710205078125,0.9012451171875,0.249237060546875
1780626351941556700,4.699556640625,0.3668975830078125,0.9136810302734375,0.1976165771484375
1780626351951552800,4.709552734375,0.3450164794921875,0.9433746337890625,0.1500244140625
1780626351961547800,4.7195478515625,0.3217620849609375,0.9882659912109375,0.110931396484375
1780626351971542800,4.729542724609375,0.3012542724609375,1.05340576171875,0.108612060546875
1780626351981538800,4.739538818359375,0.2858734130859375,1.1319122314453125,0.1358642578125
1780626351991533800,4.749533935546875,0.294403076171875,1.1934967041015625,0.1795501708984375
1780626352001529600,4.759529541015625,0.3086090087890625,1.2036590576171875,0.240814208984375
1780626352011524900,4.76952490234375,0.3072662353515625,1.1564788818359375,0.2896575927734375
1780626352021520000,4.779519775390625,0.2942047119140625,1.0933074951171875,0.3145904541015625
1780626352031516000,4.789515869140625,0.2775115966796875,1.018035888671875,0.3053741455078125
1780626352041511000,4.799510986328125,0.2550048828125,0.9327239990234375,0.270538330078125
1780626352051506000,4.809505859375,0.22100830078125,0.8724517822265625,0.2384796142578125
1780626352061501700,4.819501708984375,0.16424560546875,0.8394012451171875,0.2274627685546875
1780626352071496700,4.82949658203125,0.101593017578125,0.8262939453125,0.237457275390625
1780626352081491700,4.83949169921875,0.057342529296875,0.8290863037109375,0.2444305419921875
1780626352091488000,4.849488037109375,0.069580078125,0.846710205078125,0.236663818359375
1780626352101482800,4.859482666015625,0.1131744384765625,0.8842926025390625,0.23321533203125
1780626352111477800,4.869477783203125,0.1429901123046875,0.934173583984375,0.2433319091796875
1780626352121473800,4.879473876953125,0.144775390625,0.9796295166015625,0.2515869140625
1780626352131468800,4.88946875,0.1230621337890625,1.011260986328125,0.2437286376953125
1780626352141463800,4.8994638671875,0.1153411865234375,1.0187530517578125,0.2080078125
1780626352151459600,4.90945947265625,0.1350250244140625,1.0093994140625,0.1597137451171875
1780626352161454800,4.919454833984375,0.14691162109375,1.009765625,0.1257171630859375
1780626352171449900,4.929449951171875,0.15216064453125,1.01763916015625,0.1055450439453125
1780626352181446000,4.93944580078125,0.145660400390625,1.024566650390625,0.094879150390625
1780626352191441000,4.94944091796875,0.1156463623046875,1.0187225341796875,0.09307861328125
1780626352201436000,4.959435791015625,0.08782958984375,1.002227783203125,0.0938720703125
1780626352211431700,4.969431640625,0.068603515625,0.9814910888671875,0.10723876953125
1780626352221426700,4.9794267578125,0.051239013671875,0.9643707275390625,0.130035400390625
1780626352231421700,4.989421630859375,0.0495758056640625,0.950836181640625,0.15301513671875
1780626352241418000,4.99941796875,0.0637054443359375,0.93719482421875,0.168243408203125
1780626352251413000,5.0094130859375,0.077606201171875,0.926055908203125,0.17230224609375
1780626352261407700,5.01940771484375,0.0877838134765625,0.926422119140625,0.164947509765625
1780626352271403800,5.02940380859375,0.096405029296875,0.9407958984375,0.15277099609375
1780626352281398800,5.039398681640625,0.0848541259765625,0.9657135009765625,0.135467529296875
1780626352291393800,5.049393798828125,0.0621337890625,0.9898223876953125,0.117706298828125
1780626352301389600,5.0593896484375,0.0361480712890625,1.006866455078125,0.09613037109375
1780626352311384800,5.069384765625,0.0199737548828125,1.014892578125,0.0777130126953125
1780626352321379800,5.0793798828125,0.0145111083984375,1.02020263671875,0.065093994140625
1780626352331375900,5.0893759765625,0.026611328125,1.0176239013671875,0.0520172119140625
1780626352341369900,5.099369873046875,0.031280517578125,1.01141357421875,0.0448150634765625
1780626352351364900,5.10936474609375,0.0305023193359375,1.0127716064453125,0.0455474853515625
1780626352361361200,5.119361083984375,0.027862548828125,1.0171356201171875,0.0503387451171875
1780626352371356000,5.12935595703125,0.0229644775390625,1.024169921875,0.0528717041015625
1780626352381352000,5.13935205078125,0.01312255859375,1.0287933349609375,0.05413818359375
1780626352391347000,5.149346923828125,0.0077362060546875,1.028656005859375,0.062255859375
1780626352401342000,5.159342041015625,0.013763427734375,1.018280029296875,0.073211669921875
1780626352411337700,5.169337646484375,0.0306243896484375,0.99871826171875,0.082122802734375
1780626352421332700,5.179332763671875,0.0524749755859375,0.978668212890625,0.0816802978515625
1780626352431327700,5.18932763671875,0.0619964599609375,0.9655914306640625,0.076568603515625
1780626352441324000,5.199323974609375,0.0654449462890625,0.9591064453125,0.0709686279296875
1780626352451319000,5.209319091796875,0.06976318359375,0.95611572265625,0.06585693359375
1780626352461314000,5.21931396484375,0.065521240234375,0.9589385986328125,0.061767578125
1780626352471309800,5.229309814453125,0.0527801513671875,0.9685211181640625,0.0535430908203125
1780626352481304800,5.239304931640625,0.042877197265625,0.9827117919921875,0.039947509765625
1780626352491299800,5.2492998046875,0.0377960205078125,0.9929656982421875,0.0228424072265625
1780626352501296000,5.259296142578125,0.0317230224609375,1.001220703125,0.0042877197265625
1780626352511291100,5.269291015625,0.031494140625,1.010711669921875,-0.012237548828125
1780626352521286000,5.279285888671875,0.037567138671875,1.015777587890625,-0.0230255126953125
1780626352531282000,5.289281982421875,0.040069580078125,1.0174407958984375,-0.02777099609375
1780626352541277000,5.29927685546875,0.04449462890625,1.0210723876953125,-0.02459716796875
1780626352551272000,5.30927197265625,0.0683135986328125,1.0210723876953125,-0.017303466796875
1780626352561268000,5.31926806640625,0.0985565185546875,1.0170745849609375,-0.0121612548828125
1780626352571262700,5.3292626953125,0.111541748046875,1.013946533203125,-0.003082275390625
1780626352581257700,5.3392578125,0.0960235595703125,1.014862060546875,0.010955810546875
1780626352591254000,5.34925390625,0.0650787353515625,1.0147705078125,0.0290069580078125
1780626352601249000,5.3592490234375,0.0275421142578125,1.008148193359375,0.0544586181640625
1780626352611244000,5.369244140625,-0.011444091796875,0.99517822265625,0.0838470458984375
1780626352621239800,5.37923974609375,-0.0345306396484375,0.9731903076171875,0.1043853759765625
1780626352631234800,5.38923486328125,-0.040252685546875,0.953857421875,0.1183319091796875
1780626352641229800,5.399229736328125,-0.027984619140625,0.94854736328125,0.1336822509765625
1780626352651226000,5.40922607421875,-0.00750732421875,0.954254150390625,0.141143798828125
1780626352661221000,5.41922119140625,0.012115478515625,0.9618988037109375,0.1334228515625
1780626352671216000,5.429216064453125,0.02239990234375,0.9791412353515625,0.0996551513671875
1780626352681212000,5.4392119140625,0.034210205078125,1.005279541015625,0.05255126953125
1780626352691207000,5.44920703125,0.0554046630859375,1.0234222412109375,0.01763916015625
1780626352701202000,5.459201904296875,0.08172607421875,1.0294342041015625,-0.0054931640625
1780626352711198000,5.469197998046875,0.1033477783203125,1.030853271484375,-0.017547607421875
1780626352721193000,5.47919287109375,0.109710693359375,1.025299072265625,-0.0213470458984375
1780626352731187700,5.489187744140625,0.1115570068359375,1.01361083984375,-0.0143890380859375
1780626352741184000,5.49918408203125,0.1099853515625,0.9984893798828125,0.0038299560546875
1780626352751179000,5.509178955078125,0.1030426025390625,0.98760986328125,0.0298614501953125
1780626352761174000,5.519174072265625,0.0877685546875,0.9821319580078125,0.0558929443359375
1780626352771169800,5.529169677734375,0.078826904296875,0.9848480224609375,0.07489013671875
1780626352781164800,5.539164794921875,0.0789031982421875,1.00177001953125,0.0696258544921875
1780626352791160800,5.549160888671875,0.0840301513671875,1.0381622314453125,0.05621337890625
1780626352801156000,5.559156005859375,0.092681884765625,1.0615692138671875,0.0475921630859375
1780626352811151000,5.569151123046875,0.093505859375,1.0477752685546875,0.0455780029296875
1780626352821147000,5.57914697265625,0.078369140625,1.0209197998046875,0.057952880859375
1780626352831142000,5.589141845703125,0.0655517578125,0.9944610595703125,0.082855224609375
1780626352841137000,5.599136962890625,0.049407958984375,0.9787139892578125,0.115264892578125
1780626352851133000,5.6091328125,0.0030670166015625,0.978607177734375,0.14630126953125
1780626352861128000,5.6191279296875,-0.0699005126953125,0.9977569580078125,0.171234130859375
1780626352871123000,5.629123046875,-0.1465911865234375,1.0251312255859375,0.176300048828125
1780626352881119000,5.639118896484375,-0.209716796875,1.0423126220703125,0.1566314697265625
1780626352891114000,5.649114013671875,-0.244049072265625,1.034515380859375,0.1236572265625
1780626352901109000,5.65910888671875,-0.248443603515625,1.01214599609375,0.103057861328125
1780626352911105000,5.66910498046875,-0.228851318359375,0.984161376953125,0.097869873046875
1780626352921099800,5.679099853515625,-0.1966705322265625,0.9557037353515625,0.096923828125
1780626352931094800,5.6890947265625,-0.1580352783203125,0.934417724609375,0.1017913818359375
1780626352941090800,5.6990908203125,-0.119354248046875,0.926666259765625,0.112457275390625
1780626352951086000,5.709086181640625,-0.0801544189453125,0.9287261962890625,0.12188720703125
1780626352961081000,5.7190810546875,-0.03961181640625,0.9348602294921875,0.130950927734375
1780626352971076900,5.729076904296875,-0.0117645263671875,0.948272705078125,0.143829345703125
1780626352981072000,5.73907177734375,-0.007598876953125,0.9691925048828125,0.167236328125
1780626352991067000,5.74906689453125,-0.0203399658203125,0.9877166748046875,0.186187744140625
1780626353001063000,5.75906298828125,-0.058135986328125,1.02191162109375,0.213409423828125
1780626353011058000,5.769057861328125,-0.0724639892578125,1.1139373779296875,0.33197021484375
1780626353021053000,5.779052978515625,-0.0435333251953125,1.0726318359375,0.3227996826171875
1780626353031049000,5.789049072265625,-0.0376739501953125,0.9658050537109375,0.202667236328125
1780626353041044000,5.7990439453125,-0.081085205078125,0.9216766357421875,0.201416015625
1780626353051039000,5.8090390625,-0.1212005615234375,0.8989715576171875,0.204986572265625
1780626353061035000,5.819034912109375,-0.1209259033203125,0.948394775390625,0.2533111572265625
1780626353071030000,5.829030029296875,-0.11029052734375,0.98114013671875,0.268890380859375
1780626353081024800,5.839024658203125,-0.098876953125,0.980926513671875,0.2653961181640625
1780626353091020800,5.849020751953125,-0.09442138671875,0.9681396484375,0.2334747314453125
1780626353101016000,5.85901611328125,-0.082672119140625,0.958160400390625,0.1735076904296875
1780626353111011000,5.869010986328125,-0.07470703125,0.960662841796875,0.0701904296875
1780626353121006800,5.8790068359375,-0.0733489990234375,1.000213623046875,0.0393829345703125
1780626353131001900,5.889001953125,-0.071258544921875,1.037811279296875,0.090240478515625
1780626353140996900,5.898996826171875,-0.04766845703125,1.0241546630859375,0.112762451171875
1780626353150993000,5.908992919921875,-0.03009033203125,0.97747802734375,0.140045166015625
1780626353160988000,5.91898779296875,-0.018798828125,0.9429931640625,0.208160400390625
1780626353170983000,5.92898291015625,-0.0084075927734375,0.916015625,0.2016448974609375
1780626353180979000,5.93897900390625,-0.0052490234375,0.910430908203125,0.1603546142578125
1780626353190974000,5.948973876953125,-0.0239715576171875,0.9406890869140625,0.1611785888671875
1780626353200969000,5.958968994140625,-0.048431396484375,0.9911041259765625,0.2139739990234375
1780626353210965000,5.968965087890625,-0.0464630126953125,1.019012451171875,0.2552032470703125
1780626353220960000,5.9789599609375,-0.0403594970703125,1.0049896240234375,0.3028564453125
1780626353230955800,5.988955810546875,-0.0093994140625,0.9819488525390625,0.3282012939453125
1780626353240950800,5.99895068359375,0.0332183837890625,0.9639892578125,0.311553955078125
1780626353250946000,6.008946044921875,0.056060791015625,0.957366943359375,0.293609619140625
1780626353260942000,6.018942138671875,0.0410003662109375,0.9581451416015625,0.317413330078125
1780626353270937000,6.02893701171875,0.006683349609375,0.960174560546875,0.3563385009765625
1780626353280931800,6.038931884765625,-0.032135009765625,0.953704833984375,0.3891754150390625
1780626353290927900,6.048927978515625,-0.0631103515625,0.943359375,0.376953125
1780626353300923000,6.0589228515625,-0.0909271240234375,0.9454803466796875,0.26556396484375
1780626353310918000,6.06891796875,-0.10614013671875,0.967315673828125,0.17559814453125
1780626353320914000,6.078913818359375,-0.1133575439453125,1.0039215087890625,0.1944122314453125
1780626353330909000,6.088908935546875,-0.0939788818359375,1.0198516845703125,0.2153167724609375
1780626353340904200,6.098904296875,-0.0427703857421875,1.013763427734375,0.161224365234375
1780626353350900500,6.108900390625,0.0391693115234375,1.00616455078125,0.1037750244140625
1780626353360895500,6.1188955078125,0.1314544677734375,0.9980010986328125,0.091949462890625
1780626353370890500,6.128890380859375,0.2033538818359375,0.9792327880859375,0.102203369140625
1780626353380886300,6.13888623046875,0.226715087890625,0.956939697265625,0.11968994140625
1780626353390881300,6.14888134765625,0.2129364013671875,0.941314697265625,0.124267578125
1780626353400876300,6.158876220703125,0.16912841796875,0.927947998046875,0.1505889892578125
1780626353410872600,6.16887255859375,0.107513427734375,0.9084930419921875,0.20623779296875
1780626353420867300,6.178867431640625,0.063232421875,0.9026336669921875,0.195556640625
1780626353430862300,6.1888623046875,0.043914794921875,0.91424560546875,0.1834564208984375
1780626353440858400,6.1988583984375,0.05145263671875,0.9365081787109375,0.172637939453125
1780626353450853400,6.208853271484375,0.0624847412109375,0.9578094482421875,0.16033935546875
1780626353460848400,6.218848388671875,0.0673675537109375,0.96990966796875,0.1339111328125
1780626353470844200,6.22884423828125,0.0595703125,0.9847259521484375,0.1607208251953125
1780626353480839200,6.238839111328125,0.05230712890625,1.0004730224609375,0.2390594482421875
1780626353490834200,6.248834228515625,0.06201171875,1.0061492919921875,0.32171630859375
1780626353500830500,6.25883056640625,0.08575439453125,0.991912841796875,0.343658447265625
1780626353510825500,6.268825439453125,0.1243743896484375,0.9705352783203125,0.31732177734375
1780626353520820500,6.278820556640625,0.1619720458984375,0.958343505859375,0.301177978515625
1780626353530816300,6.288816162109375,0.1936492919921875,0.955841064453125,0.2633819580078125
1780626353540811300,6.298811279296875,0.2068634033203125,0.9486236572265625,0.2159576416015625
1780626353550806300,6.30880615234375,0.2013092041015625,0.9416656494140625,0.1779022216796875
1780626353560802600,6.318802490234375,0.1734161376953125,0.9381866455078125,0.1722412109375
1780626353570797600,6.328797607421875,0.1297149658203125,0.9361724853515625,0.20465087890625
1780626353580792300,6.338792236328125,0.0751800537109375,0.928558349609375,0.237274169921875
1780626353590788400,6.348788330078125,0.0279388427734375,0.91900634765625,0.2362060546875
1780626353600783400,6.358783447265625,0.001739501953125,0.9322052001953125,0.239227294921875
1780626353610778400,6.3687783203125,0.006927490234375,0.9486083984375,0.229736328125
1780626353620774100,6.378774169921875,0.043792724609375,0.9621429443359375,0.1829986572265625
1780626353630769200,6.38876904296875,0.0754547119140625,0.96246337890625,0.1902618408203125
1780626353640764200,6.39876416015625,0.08837890625,0.962493896484375,0.206939697265625
1780626353650760400,6.408760498046875,0.0851898193359375,0.9705352783203125,0.224945068359375
1780626353660755500,6.41875537109375,0.066802978515625,0.9799346923828125,0.2517852783203125
1780626353670750500,6.42875048828125,0.043701171875,0.97802734375,0.2734832763671875
1780626353680746200,6.438746337890625,0.037200927734375,0.96295166015625,0.291778564453125
1780626353690741200,6.4487412109375,0.0449676513671875,0.94781494140625,0.312591552734375
1780626353700736300,6.458736328125,0.05908203125,0.935638427734375,0.337646484375
1780626353710732500,6.468732666015625,0.0718231201171875,0.9326324462890625,0.36138916015625
1780626353720727600,6.4787275390625,0.069732666015625,0.9365234375,0.388153076171875
1780626353730722300,6.488722412109375,0.062164306640625,0.9385223388671875,0.4060516357421875
1780626353740718300,6.49871826171875,0.054931640625,0.9451141357421875,0.410675048828125
1780626353750713300,6.50871337890625,0.0598297119140625,0.9450836181640625,0.394500732421875
1780626353760709400,6.51870947265625,0.0861358642578125,0.930633544921875,0.3521728515625
1780626353770704400,6.528704345703125,0.1153106689453125,0.910400390625,0.295257568359375
1780626353780699100,6.53869921875,0.1254425048828125,0.902313232421875,0.2541351318359375
1780626353790695400,6.5486953125,0.111419677734375,0.9165191650390625,0.243804931640625
1780626353800690400,6.5586904296875,0.08978271484375,0.93817138671875,0.2538299560546875
1780626353810685400,6.568685546875,0.0719451904296875,0.95635986328125,0.2763824462890625
1780626353820681200,6.57868115234375,0.058563232421875,0.9689178466796875,0.300140380859375
1780626353830676200,6.58867626953125,0.052703857421875,0.9769744873046875,0.3173370361328125
1780626353840671200,6.598671142578125,0.05206298828125,0.9798431396484375,0.3253173828125
1780626353850667300,6.608667236328125,0.05865478515625,0.9773712158203125,0.32550048828125
1780626353860662500,6.61866259765625,0.068572998046875,0.974853515625,0.324493408203125
1780626353870657500,6.628657470703125,0.081756591796875,0.9663848876953125,0.32183837890625
1780626353880653300,6.6386533203125,0.08551025390625,0.952392578125,0.3166961669921875
1780626353890648300,6.6486484375,0.0745086669921875,0.937347412109375,0.31610107421875
1780626353900643300,6.658643310546875,0.0582275390625,0.92047119140625,0.3167572021484375
1780626353910639400,6.668639404296875,0.041900634765625,0.9097442626953125,0.31304931640625
1780626353920634400,6.67863427734375,0.037994384765625,0.9128875732421875,0.3092498779296875
1780626353930629400,6.68862939453125,0.0439910888671875,0.927978515625,0.309814453125
1780626353940625400,6.69862548828125,0.0482635498046875,0.949676513671875,0.309051513671875
1780626353950620400,6.708620361328125,0.0483245849609375,0.9672088623046875,0.3011932373046875
1780626353960615400,6.718615478515625,0.05047607421875,0.96484375,0.27899169921875
1780626353970611500,6.728611572265625,0.0576934814453125,0.9446258544921875,0.252349853515625
1780626353980606200,6.738606201171875,0.0580291748046875,0.9239349365234375,0.2387237548828125
1780626353990601200,6.748601318359375,0.0489654541015625,0.909637451171875,0.242584228515625
1780626354000597200,6.75859716796875,0.035675048828125,0.8962554931640625,0.25274658203125
1780626354010592500,6.768592529296875,0.019500732421875,0.898712158203125,0.2698516845703125
1780626354020587500,6.77858740234375,0.0092010498046875,0.911651611328125,0.289794921875
1780626354030583300,6.788583251953125,0.003387451171875,0.9266815185546875,0.304107666015625
1780626354040578300,6.798578369140625,0.00408935546875,0.93499755859375,0.314117431640625
1780626354050573300,6.8085732421875,0.0071258544921875,0.929595947265625,0.3135223388671875
1780626354060569300,6.8185693359375,0.0076751708984375,0.9173583984375,0.3077545166015625
1780626354070564400,6.828564453125,0.0108184814453125,0.911224365234375,0.297760009765625
1780626354080559400,6.838559326171875,0.0173187255859375,0.9160919189453125,0.2848358154296875
1780626354090555400,6.848555419921875,0.0245819091796875,0.9299774169921875,0.273651123046875
1780626354100550400,6.85855029296875,0.037445068359375,0.958099365234375,0.266815185546875
1780626354110545400,6.86854541015625,0.044036865234375,0.9946441650390625,0.271240234375
1780626354120541400,6.87854150390625,0.0385589599609375,1.0231475830078125,0.2880096435546875
1780626354130536200,6.8885361328125,0.0289306640625,1.034912109375,0.314239501953125
1780626354140531200,6.89853125,0.014862060546875,1.0201416015625,0.343780517578125
1780626354150527200,6.90852734375,0.002105712890625,0.9857025146484375,0.3658905029296875
1780626354160522500,6.9185224609375,-0.00347900390625,0.94769287109375,0.3754119873046875
1780626354170517500,6.928517578125,0.005401611328125,0.9144134521484375,0.368804931640625
1780626354180513300,6.93851318359375,0.0202484130859375,0.8914642333984375,0.3463897705078125
1780626354190508300,6.94850830078125,0.030120849609375,0.8881378173828125,0.318817138671875
1780626354200503300,6.95850341796875,0.027374267578125,0.8981781005859375,0.291351318359375
1780626354210499300,6.968499267578125,0.017791748046875,0.9213104248046875,0.2701416015625
1780626354220494300,6.978494384765625,0.0115814208984375,0.9540252685546875,0.2598419189453125
1780626354230489300,6.9884892578125,0.0144500732421875,0.99127197265625,0.2618865966796875
1780626354240485400,6.9984853515625,0.021392822265625,1.0207977294921875,0.2705841064453125
1780626354250480400,7.00848046875,0.0267181396484375,1.0300750732421875,0.2783203125
1780626354260475400,7.018475341796875,0.0325927734375,1.0137481689453125,0.2824249267578125
1780626354270471400,7.028471435546875,0.0397491455078125,0.9824066162109375,0.2805023193359375
1780626354280466400,7.038466552734375,0.05267333984375,0.95404052734375,0.2738494873046875
1780626354290461200,7.048461181640625,0.061309814453125,0.9402923583984375,0.2687225341796875
1780626354300457200,7.058457275390625,0.058868408203125,0.946868896484375,0.2671661376953125
1780626354310452500,7.068452392578125,0.0447845458984375,0.9593505859375,0.268951416015625
1780626354320448500,7.078448486328125,0.03143310546875,0.9658660888671875,0.273773193359375
1780626354330443300,7.088443359375,0.026123046875,0.96337890625,0.279815673828125
1780626354340439000,7.09843896484375,0.0207366943359375,0.956268310546875,0.2867584228515625
1780626354350434000,7.10843408203125,0.0161590576171875,0.9520721435546875,0.292327880859375
1780626354360430000,7.11843017578125,0.0179443359375,0.95367431640625,0.294342041015625
1780626354370425000,7.128425048828125,0.023956298828125,0.952301025390625,0.2936248779296875
1780626354380421000,7.138421142578125,0.0329742431640625,0.9481658935546875,0.29132080078125
1780626354390416100,7.148416015625,0.043548583984375,0.9520111083984375,0.2957611083984375
1780626354400411100,7.1584111328125,0.0554351806640625,0.9618377685546875,0.3028564453125
1780626354410407200,7.1684072265625,0.066162109375,0.9701690673828125,0.306121826171875
1780626354420402200,7.178402099609375,0.0733489990234375,0.9718475341796875,0.2999267578125
1780626354430397000,7.18839697265625,0.072540283203125,0.9705047607421875,0.28753662109375
1780626354440393000,7.19839306640625,0.0597076416015625,0.964813232421875,0.2777862548828125
1780626354450388000,7.208387939453125,0.0387420654296875,0.95501708984375,0.27191162109375
1780626354460383200,7.21838330078125,0.022308349609375,0.94500732421875,0.269287109375
1780626354470379000,7.22837890625,0.0145416259765625,0.9351654052734375,0.2686614990234375
1780626354480374000,7.2383740234375,0.0155792236328125,0.9327850341796875,0.2697906494140625
1780626354490369000,7.248369140625,0.0253143310546875,0.94451904296875,0.275787353515625
1780626354500365000,7.258364990234375,0.0355224609375,0.9600067138671875,0.2798309326171875
1780626354510360000,7.268360107421875,0.028594970703125,0.9740447998046875,0.2866668701171875
1780626354520355000,7.27835498046875,0.018096923828125,0.9766998291015625,0.2928619384765625
1780626354530351000,7.28835107421875,0.012115478515625,0.966583251953125,0.298004150390625
1780626354540346000,7.29834619140625,0.0075225830078125,0.954986572265625,0.3052978515625
1780626354550341000,7.308341064453125,0.0123291015625,0.945831298828125,0.3143157958984375
1780626354560337200,7.318337158203125,0.0171051025390625,0.9349822998046875,0.319244384765625
1780626354570332200,7.328332275390625,0.0186309814453125,0.921844482421875,0.313262939453125
1780626354580327000,7.338326904296875,0.021087646484375,0.9122161865234375,0.3025360107421875
1780626354590323000,7.348322998046875,0.02557373046875,0.9224853515625,0.2930908203125
1780626354600318000,7.35831787109375,0.0308837890625,0.9462738037109375,0.2885894775390625
1780626354610313200,7.368313232421875,0.034912109375,0.9665374755859375,0.2809295654296875
1780626354620309000,7.37830908203125,0.033966064453125,0.9779815673828125,0.2753448486328125
1780626354630304000,7.388303955078125,0.029632568359375,0.985809326171875,0.2759552001953125
1780626354640299000,7.398299072265625,0.0318756103515625,0.98529052734375,0.2802276611328125
1780626354650295000,7.408294921875,0.0391845703125,0.9703216552734375,0.2833099365234375
1780626354660290000,7.4182900390625,0.046112060546875,0.9482574462890625,0.2873077392578125
1780626354670285000,7.42828515625,0.0510406494140625,0.9309539794921875,0.288238525390625
1780626354680281000,7.438281005859375,0.05194091796875,0.924957275390625,0.286956787109375
1780626354690276000,7.448276123046875,0.0535125732421875,0.9375762939453125,0.2830047607421875
1780626354700271000,7.45827099609375,0.0524139404296875,0.967529296875,0.2878265380859375
1780626354710267100,7.46826708984375,0.0481109619140625,0.996337890625,0.2938690185546875
1780626354720262100,7.47826220703125,0.0419921875,1.0113677978515625,0.300079345703125
1780626354730257200,7.488257080078125,0.03961181640625,1.002685546875,0.30078125
1780626354740253000,7.4982529296875,0.041046142578125,0.9761962890625,0.303131103515625
1780626354750248000,7.508248046875,0.0435333251953125,0.9497222900390625,0.3067626953125
1780626354760243200,7.5182431640625,0.044952392578125,0.9236297607421875,0.306396484375
1780626354770239200,7.5282392578125,0.045654296875,0.90533447265625,0.30279541015625
1780626354780234000,7.53823388671875,0.0425567626953125,0.8974456787109375,0.29742431640625
1780626354790229000,7.54822900390625,0.04034423828125,0.9039764404296875,0.28826904296875
1780626354800225000,7.55822509765625,0.0384979248046875,0.92681884765625,0.2823028564453125
1780626354810220000,7.568219970703125,0.034576416015625,0.9588775634765625,0.2850341796875
1780626354820215000,7.578215087890625,0.0343475341796875,0.9822235107421875,0.285369873046875
1780626354830211000,7.588211181640625,0.0369720458984375,0.988189697265625,0.281951904296875
1780626354840206000,7.5982060546875,0.0330963134765625,0.9771270751953125,0.28631591796875
1780626354850201000,7.608201171875,0.0292816162109375,0.9644012451171875,0.2932281494140625
1780626354860197000,7.618197021484375,0.0229034423828125,0.95166015625,0.2986907958984375
1780626354870192000,7.628192138671875,0.02496337890625,0.942840576171875,0.2997283935546875
1780626354880187100,7.638187255859375,0.0328216552734375,0.9404754638671875,0.3001251220703125
1780626354890183000,7.648182861328125,0.0395965576171875,0.9436492919921875,0.3014984130859375
1780626354900178000,7.658177978515625,0.0498046875,0.94842529296875,0.3013763427734375
1780626354910173000,7.6681728515625,0.058319091796875,0.954193115234375,0.2990875244140625
1780626354920169200,7.678169189453125,0.0663909912109375,0.96087646484375,0.296142578125
1780626354930164200,7.688164306640625,0.069091796875,0.967132568359375,0.29217529296875
1780626354940159000,7.698158935546875,0.0680999755859375,0.9665985107421875,0.2861480712890625
1780626354950155000,7.708155029296875,0.060089111328125,0.954254150390625,0.28363037109375
1780626354960150000,7.71814990234375,0.0499114990234375,0.939605712890625,0.283203125
1780626354970145000,7.72814501953125,0.04034423828125,0.9281768798828125,0.28460693359375
1780626354980141000,7.73814111328125,0.0351104736328125,0.9219970703125,0.2844390869140625
1780626354990136000,7.748135986328125,0.027099609375,0.9339599609375,0.288726806640625
1780626355000131000,7.758131103515625,0.021820068359375,0.9466094970703125,0.29052734375
1780626355010127000,7.768127197265625,0.0299530029296875,0.955108642578125,0.2907562255859375
1780626355020122000,7.7781220703125,0.040435791015625,0.9552154541015625,0.2872161865234375
1780626355030117000,7.7881171875,0.05047607421875,0.9503326416015625,0.2799224853515625
1780626355040113000,7.79811279296875,0.0630950927734375,0.9481201171875,0.2770538330078125
1780626355050108000,7.80810791015625,0.0715179443359375,0.94805908203125,0.2746124267578125
1780626355060103000,7.81810302734375,0.0808868408203125,0.95330810546875,0.2714385986328125
1780626355070099200,7.82809912109375,0.086456298828125,0.954620361328125,0.2667083740234375
1780626355080094200,7.83809423828125,0.0859375,0.9603118896484375,0.2597808837890625
1780626355090089000,7.8480888671875,0.0839080810546875,0.9692535400390625,0.2569427490234375
1780626355100085000,7.8580849609375,0.077972412109375,0.971435546875,0.25384521484375
1780626355110080000,7.868080078125,0.0677490234375,0.96527099609375,0.25433349609375
1780626355120075000,7.878074951171875,0.0594940185546875,0.9498443603515625,0.2605743408203125
1780626355130071000,7.888071044921875,0.0575408935546875,0.927459716796875,0.265716552734375
1780626355140066000,7.898066162109375,0.055999755859375,0.906829833984375,0.2711181640625
1780626355150061000,7.90806103515625,0.0547637939453125,0.8959808349609375,0.27850341796875
1780626355160057000,7.91805712890625,0.062347412109375,0.901611328125,0.2832183837890625
1780626355170052000,7.928052001953125,0.07098388671875,0.9150390625,0.2794189453125
1780626355180047000,7.938047119140625,-0.0070953369140625,0.9363250732421875,0.254974365234375
1780626355190043000,7.94804296875,0.00390625,0.9413299560546875,0.2407989501953125
1780626355200038000,7.958037841796875,0.0196533203125,0.9518890380859375,0.241455078125
1780626355210033000,7.968032958984375,0.0942840576171875,0.934173583984375,0.236053466796875
1780626355220029200,7.978029296875,0.1075286865234375,0.9343414306640625,0.2528533935546875
1780626355230024200,7.988024169921875,0.11773681640625,0.94390869140625,0.2414703369140625
1780626355240019200,7.998019287109375,0.268646240234375,0.9541168212890625,0.2430572509765625
1780626355250015000,8.008014892578124,0.3005828857421875,0.983245849609375,0.25421142578125
1780626355260010000,8.018010009765625,0.2533111572265625,1.01580810546875,0.2616119384765625
1780626355270005000,8.0280048828125,0.2143402099609375,1.0220794677734375,0.2544708251953125
1780626355280001300,8.038001220703125,0.1711883544921875,1.011688232421875,0.2360382080078125
1780626355289996000,8.04799609375,0.1381988525390625,0.985595703125,0.198638916015625
1780626355299992000,8.057991943359376,0.1050567626953125,0.9509735107421875,0.15118408203125
1780626355309987000,8.067987060546875,0.0977020263671875,0.9276123046875,0.11590576171875
1780626355319982000,8.077982177734375,0.1175079345703125,0.927032470703125,0.1277923583984375
1780626355329977000,8.08797705078125,0.1431732177734375,0.9281005859375,0.1647186279296875
1780626355339972900,8.097972900390625,0.150299072265625,0.923614501953125,0.1968536376953125
1780626355349967400,8.10796728515625,0.1490325927734375,0.9235992431640625,0.2185211181640625
1780626355359963100,8.117963134765626,0.149261474609375,0.9398345947265625,0.2342681884765625
1780626355369958100,8.127958251953125,0.143402099609375,0.97137451171875,0.2336273193359375
1780626355379953200,8.137953125,0.14141845703125,1.0032196044921875,0.2214202880859375
1780626355389949200,8.14794921875,0.1626739501953125,1.0279998779296875,0.2111968994140625
1780626355399944200,8.157944091796875,0.1845703125,1.0457305908203125,0.2053070068359375
1780626355409939200,8.167939208984375,0.2037811279296875,1.0430755615234375,0.202850341796875
1780626355419935200,8.177935302734374,0.2299041748046875,1.022003173828125,0.1989898681640625
1780626355429930200,8.18793017578125,0.2519073486328125,1.001617431640625,0.2074127197265625
1780626355439925200,8.19792529296875,0.2635650634765625,0.9861602783203125,0.22052001953125
1780626355449921000,8.207921142578124,0.2626190185546875,0.97723388671875,0.2342071533203125
1780626355459916000,8.217916015625,0.252838134765625,0.983917236328125,0.24560546875
1780626355469911000,8.2279111328125,0.2465667724609375,0.9945831298828125,0.256927490234375
1780626355479907300,8.2379072265625,0.2767791748046875,1.004425048828125,0.2761383056640625
1780626355489902300,8.24790234375,0.256500244140625,0.995025634765625,0.2793731689453125
1780626355499897300,8.2578974609375,0.1351470947265625,0.9412994384765625,0.1896514892578125
1780626355509893000,8.26789306640625,0.0703887939453125,0.9188232421875,0.1381072998046875
1780626355519888100,8.27788818359375,0.040618896484375,0.924652099609375,0.1732330322265625
1780626355529883100,8.287883056640625,0.030426025390625,0.9286956787109375,0.21148681640625
1780626355539879200,8.297879150390624,0.01788330078125,0.923126220703125,0.2477874755859375
1780626355549874200,8.307874267578125,0.0384521484375,0.9317626953125,0.297576904296875
1780626355559869200,8.317869140625,0.06890869140625,0.9279327392578125,0.3225555419921875
1780626355569865200,8.327865234375,0.119903564453125,0.926605224609375,0.3258056640625
1780626355579860200,8.337860107421875,0.17718505859375,0.9390411376953125,0.3219146728515625
1780626355589855200,8.347855224609376,0.2039642333984375,0.9347076416015625,0.3015594482421875
1780626355599851000,8.35785107421875,0.20147705078125,0.931640625,0.2756805419921875
1780626355609846000,8.367845947265625,0.2086181640625,0.9434661865234375,0.2690887451171875
1780626355619841000,8.377841064453126,0.226318359375,0.950469970703125,0.2662811279296875
1780626355629837300,8.38783740234375,0.235931396484375,0.9342803955078125,0.2485198974609375
1780626355639832300,8.397832275390625,0.2373504638671875,0.907073974609375,0.235076904296875
1780626355649827300,8.407827392578126,0.22418212890625,0.87152099609375,0.2258758544921875
1780626355659823000,8.417822998046875,0.209228515625,0.8441162109375,0.2276153564453125
1780626355669818000,8.427818115234375,0.2076568603515625,0.83154296875,0.238922119140625
1780626355679813000,8.437813232421876,0.214263916015625,0.8341827392578125,0.249298095703125
1780626355689809200,8.44780908203125,0.2133636474609375,0.84625244140625,0.2434539794921875
1780626355699804200,8.45780419921875,0.21392822265625,0.8603363037109375,0.22662353515625
1780626355709799200,8.467799072265626,0.2360382080078125,0.878143310546875,0.2049407958984375
1780626355719795200,8.477795166015625,0.2777862548828125,0.8876190185546875,0.17779541015625
1780626355729790200,8.487790283203125,0.327789306640625,0.9098358154296875,0.1573333740234375
1780626355739785200,8.49778515625,0.3434906005859375,0.9298858642578125,0.1404571533203125
1780626355749781200,8.50778125,0.335968017578125,0.9427032470703125,0.1306915283203125
1780626355759776000,8.51777587890625,0.3231048583984375,0.9508209228515625,0.1256866455078125
1780626355769771000,8.52777099609375,0.3052978515625,0.951324462890625,0.1232452392578125
1780626355779767300,8.537767333984375,0.2881011962890625,0.95428466796875,0.128692626953125
1780626355789762300,8.54776220703125,0.276397705078125,0.9644775390625,0.1444244384765625
1780626355799757300,8.55775732421875,0.2966766357421875,0.9708251953125,0.161529541015625
1780626355809753000,8.567753173828125,0.33502197265625,0.9757232666015625,0.183624267578125
1780626355819748000,8.577748046875,0.35064697265625,0.967132568359375,0.20037841796875
1780626355829743000,8.5877431640625,0.3316802978515625,0.933929443359375,0.1993408203125
1780626355839739100,8.5977392578125,0.3198089599609375,0.915008544921875,0.1984405517578125
1780626355849734100,8.607734130859376,0.322540283203125,0.915679931640625,0.1996307373046875
1780626355859729400,8.6177294921875,0.3024749755859375,0.902740478515625,0.1861724853515625
1780626355869725200,8.62772509765625,0.2576751708984375,0.8839111328125,0.1642913818359375
1780626355879720200,8.63772021484375,0.196533203125,0.86407470703125,0.14044189453125
1780626355889715200,8.647715087890624,0.1242828369140625,0.8447265625,0.117279052734375
1780626355899711200,8.657711181640625,0.06689453125,0.82989501953125,0.0941619873046875
1780626355909706200,8.667706298828126,0.02349853515625,0.8263397216796875,0.0773162841796875
1780626355919701000,8.677700927734374,0.0009765625,0.8392791748046875,0.07867431640625
1780626355929697300,8.687697265625,-0.001922607421875,0.8665008544921875,0.10101318359375
1780626355939692300,8.6976923828125,-0.016632080078125,0.9048919677734375,0.1375885009765625
1780626355949687300,8.707687255859375,0.0056915283203125,0.9576263427734375,0.1792755126953125
1780626355959683000,8.71768310546875,0.100494384765625,1.03778076171875,0.239044189453125
1780626355969678000,8.727677978515626,0.234283447265625,1.1369781494140625,0.32177734375
1780626355979673000,8.737673095703125,0.3123931884765625,1.229339599609375,0.4052734375
1780626355989669000,8.747669189453125,0.2990875244140625,1.2783050537109375,0.438507080078125
1780626355999664000,8.7576640625,0.2248992919921875,1.267974853515625,0.4366607666015625
1780626356009659400,8.767659423828125,0.1117401123046875,1.19207763671875,0.404266357421875
1780626356019655200,8.7776552734375,0.0279541015625,1.066497802734375,0.3257293701171875
1780626356029650200,8.787650146484374,-0.0207366943359375,0.951019287109375,0.2059326171875
1780626356039645200,8.797645263671875,-0.042388916015625,0.89166259765625,0.1074066162109375
1780626356049641200,8.80764111328125,-0.0372314453125,0.8834686279296875,0.0527496337890625
1780626356059636200,8.81763623046875,-0.018524169921875,0.8977508544921875,0.0145721435546875
1780626356069631000,8.827630859375,0.015655517578125,0.9273223876953125,0.002960205078125
1780626356079627300,8.837627197265626,0.0565948486328125,0.9738311767578125,-0.0009765625
1780626356089622300,8.847622314453124,0.08624267578125,1.0279693603515625,-0.0121002197265625
1780626356099617300,8.8576171875,0.0919952392578125,1.0648193359375,-0.03302001953125
1780626356109613000,8.867613037109376,0.081817626953125,1.067596435546875,-0.063201904296875
1780626356119608000,8.877608154296874,0.0844268798828125,1.034271240234375,-0.0802459716796875
1780626356129603000,8.88760302734375,0.1217041015625,0.9854278564453125,-0.0695648193359375
1780626356139599000,8.89759912109375,0.18658447265625,0.955230712890625,-0.025390625
1780626356149594000,8.907593994140624,0.2411956787109375,0.9443359375,0.02899169921875
1780626356159589400,8.91758935546875,0.2502593994140625,0.950439453125,0.0756683349609375
1780626356169585200,8.927585205078126,0.205047607421875,0.97607421875,0.1051483154296875
1780626356179580200,8.937580078125,0.1550750732421875,1.0100860595703125,0.1170501708984375
1780626356189575200,8.9475751953125,0.10986328125,1.040435791015625,0.12261962890625
1780626356199571200,8.9575712890625,0.068603515625,1.0557403564453125,0.117889404296875
1780626356209566200,8.967566162109375,0.0359954833984375,1.0516510009765625,0.1005401611328125
1780626356219561200,8.977561279296875,0.033447265625,1.0297698974609375,0.0868988037109375
1780626356229557200,8.98755712890625,0.0461883544921875,1.0078277587890625,0.0705413818359375
1780626356239552300,8.99755224609375,0.0485076904296875,0.9967803955078125,0.0644378662109375
1780626356249547300,9.00754736328125,0.03076171875,0.990753173828125,0.058197021484375
1780626356259543300,9.017543212890626,0.0244293212890625,0.9725494384765625,0.0302734375
1780626356269538000,9.0275380859375,0.032562255859375,0.9616546630859375,-0.0109100341796875
1780626356279533000,9.037532958984375,0.0020599365234375,0.96588134765625,-0.05975341796875
1780626356289529000,9.047529052734374,-0.021484375,0.982147216796875,-0.0928955078125
1780626356299524000,9.057524169921875,0.0074462890625,1.00982666015625,-0.0937347412109375
1780626356309519400,9.067519287109375,0.048919677734375,1.0280914306640625,-0.06805419921875
1780626356319515100,9.07751513671875,0.0966796875,1.0329132080078125,-0.0294647216796875
1780626356329510100,9.08751025390625,0.1287384033203125,1.020904541015625,0.0223388671875
1780626356339505200,9.097505126953125,0.1361083984375,1.0047454833984375,0.08087158203125
1780626356349502000,9.107501953125,0.1415252685546875,0.99835205078125,0.1389312744140625
1780626356359496700,9.11749658203125,0.13836669921875,0.9923095703125,0.1944122314453125
1780626356369491700,9.12749169921875,0.1187286376953125,0.9828948974609375,0.2229766845703125
1780626356379487700,9.13748779296875,0.106536865234375,0.9690704345703125,0.209869384765625
1780626356389482800,9.147482666015625,0.087738037109375,0.9607391357421875,0.16143798828125
1780626356399477800,9.157477783203126,0.0614776611328125,0.963226318359375,0.1068572998046875
1780626356409473800,9.167473876953125,0.0399017333984375,0.973052978515625,0.0662994384765625
1780626356419468800,9.17746875,0.0241241455078125,0.983734130859375,0.03594970703125
1780626356429463800,9.1874638671875,0.0243682861328125,0.9891357421875,0.0193939208984375
1780626356439459800,9.1974599609375,0.03607177734375,0.9923858642578125,0.0142059326171875
1780626356449454800,9.207454833984375,0.052764892578125,0.998870849609375,0.0095367431640625
1780626356459449900,9.217449951171876,0.0719451904296875,1.0052337646484375,0.0008392333984375
1780626356469445600,9.227445556640625,0.0694427490234375,0.995697021484375,-0.012420654296875
1780626356479440600,9.237440673828125,0.0626373291015625,0.9783782958984375,-0.019989013671875
1780626356489436000,9.247435791015626,0.0625,0.96307373046875,-0.0039520263671875
1780626356499432000,9.257431884765625,0.068572998046875,0.9684600830078125,0.0299072265625
1780626356509427000,9.267427001953125,0.0759429931640625,0.9856719970703125,0.0633087158203125
1780626356519421700,9.277421630859376,0.0590362548828125,0.9966278076171875,0.0803070068359375
1780626356529417700,9.287417724609375,0.02679443359375,1.001434326171875,0.07244873046875
1780626356539412700,9.297412841796875,0.0386810302734375,0.9989471435546875,0.056854248046875
1780626356549407700,9.30740771484375,0.06622314453125,0.9916534423828125,0.033355712890625
1780626356559403800,9.31740380859375,0.092010498046875,0.9808197021484375,0.0107574462890625
1780626356569398800,9.327398681640625,0.1047821044921875,0.975372314453125,-0.0140838623046875
1780626356579393800,9.337393798828124,0.1087493896484375,0.9718170166015625,-0.03900146484375
1780626356589389800,9.347389892578125,0.10955810546875,0.9783477783203125,-0.052215576171875
1780626356599384800,9.357384765625,0.109771728515625,0.990234375,-0.0533447265625
1780626356609379800,9.3673798828125,0.1122589111328125,0.9922027587890625,-0.042938232421875
1780626356619375600,9.377375732421875,0.1158599853515625,0.990478515625,-0.034027099609375
1780626356629370600,9.38737060546875,0.1114349365234375,0.9979705810546875,-0.0357513427734375
1780626356639366000,9.397365966796874,0.095794677734375,1.00933837890625,-0.0375823974609375
1780626356649362000,9.40736181640625,0.05731201171875,1.00750732421875,-0.02716064453125
1780626356659357000,9.41735693359375,0.0247955322265625,0.9809112548828125,-0.014556884765625
1780626356669352000,9.42735205078125,0.015838623046875,0.939300537109375,-0.00189208984375
1780626356679347700,9.43734765625,0.0330963134765625,0.890289306640625,0.0098876953125
1780626356689342700,9.4473427734375,0.068023681640625,0.8553009033203125,0.01953125
1780626356699337700,9.457337646484374,0.113128662109375,0.8700103759765625,0.0261077880859375
1780626356709334000,9.467333984375,0.160064697265625,0.9359588623046875,0.0294342041015625
1780626356719328800,9.477328857421876,0.190521240234375,1.0353240966796875,0.031585693359375
1780626356729323800,9.48732373046875,0.1850128173828125,1.1173095703125,0.030670166015625
1780626356739319800,9.49731982421875,0.1722869873046875,1.141326904296875,0.0229644775390625
1780626356749314800,9.507314697265626,0.1652679443359375,1.103851318359375,0.00537109375
1780626356759309800,9.517309814453125,0.1700897216796875,1.036895751953125,-0.0093841552734375
1780626356769305600,9.5273056640625,0.1778106689453125,0.9804840087890625,-0.018585205078125
1780626356779300600,9.537300537109376,0.160369873046875,0.9468841552734375,-0.018585205078125
1780626356789295900,9.5472958984375,0.1138763427734375,0.9404144287109375,-0.0123443603515625
1780626356799292000,9.5572919921875,0.05841064453125,0.9607086181640625,-0.0036163330078125
1780626356809287000,9.567286865234376,0.025115966796875,0.9952239990234375,0.002960205078125
1780626356819282000,9.577281982421875,0.0039520263671875,1.0218658447265625,0.007415771484375
1780626356829277700,9.587277587890625,-0.003082275390625,1.0308685302734375,0.0050811767578125
1780626356839272700,9.597272705078124,-0.0068206787109375,1.0264739990234375,0.004486083984375
1780626356849267700,9.607267822265625,-0.0086822509765625,1.011505126953125,0.0044403076171875
1780626356859264000,9.617263916015625,-0.0105743408203125,0.987335205078125,0.00152587890625
1780626356869259000,9.627259033203124,-0.02374267578125,0.96044921875,0.0043487548828125
1780626356879253800,9.637253662109375,-0.0318450927734375,0.94390869140625,0.011566162109375
1780626356889249800,9.647249755859375,-0.016693115234375,0.9464263916015625,0.0269317626953125
1780626356899244800,9.657244873046874,0.020477294921875,0.94989013671875,0.0444488525390625
1780626356909239800,9.66723974609375,0.0516357421875,0.94622802734375,0.064727783203125
1780626356919235600,9.677235595703126,0.0746307373046875,0.944732666015625,0.0826568603515625
1780626356929230600,9.687230712890624,0.1039276123046875,0.9532318115234375,0.0796966552734375
1780626356939225900,9.697225830078125,0.1119537353515625,1.0011749267578125,0.054229736328125
1780626356949222000,9.707221923828126,0.0879364013671875,1.0520782470703125,0.0005950927734375
1780626356959217000,9.717216796875,0.043182373046875,1.070892333984375,-0.0601348876953125
1780626356969212000,9.7272119140625,-0.0046234130859375,1.059844970703125,-0.1138153076171875
1780626356979207000,9.73720703125,-0.0582427978515625,1.0239105224609375,-0.14141845703125
1780626356989202700,9.74720263671875,-0.09295654296875,0.9886322021484375,-0.13140869140625
1780626356999197700,9.75719775390625,-0.0885772705078125,0.9806976318359375,-0.088470458984375
1780626357009192700,9.767192626953126,-0.0680999755859375,0.9973907470703125,-0.0292816162109375
1780626357019189000,9.77718896484375,-0.058135986328125,1.020111083984375,0.022674560546875
1780626357029183700,9.787183837890625,-0.0601654052734375,1.037445068359375,0.0670623779296875
1780626357039178800,9.7971787109375,-0.0552978515625,1.0431365966796875,0.1077117919921875
1780626357049174800,9.8071748046875,-0.040771484375,1.0348968505859375,0.143463134765625
1780626357059169800,9.817169677734375,0.016937255859375,1.00836181640625,0.1666107177734375
1780626357069164800,9.827164794921876,0.1307220458984375,0.979736328125,0.1727294921875
1780626357079160600,9.83716064453125,0.218780517578125,0.9712066650390625,0.1601104736328125
1780626357089155800,9.84715576171875,0.2200775146484375,0.972747802734375,0.11883544921875
1780626357099150800,9.85715087890625,0.121978759765625,0.9767303466796875,0.053436279296875
1780626357109147000,9.86714697265625,0.0037994384765625,0.99041748046875,-0.006866455078125
1780626357119142000,9.877141845703125,-0.0521392822265625,1.011871337890625,-0.055999755859375
1780626357129137000,9.887136962890626,-0.0327606201171875,1.0267333984375,-0.0947265625
1780626357139132700,9.897132568359375,0.0307464599609375,1.0247802734375,-0.117431640625
1780626357149127700,9.907127685546875,0.0765533447265625,1.0133056640625,-0.130126953125
1780626357159122700,9.917122802734376,0.1059112548828125,0.997039794921875,-0.1304931640625
1780626357169119000,9.927118896484375,0.1216278076171875,0.982940673828125,-0.1146697998046875
1780626357179114000,9.937114013671875,0.113677978515625,0.9747314453125,-0.0903778076171875
1780626357189108700,9.947108642578126,0.1007843017578125,0.969085693359375,-0.0645599365234375
1780626357199104800,9.957104736328125,0.114593505859375,0.973114013671875,-0.030609130859375
1780626357209099800,9.967099853515625,0.15142822265625,0.9888458251953125,0.0109710693359375
1780626357219094800,9.9770947265625,0.1777496337890625,1.0034637451171875,0.0452880859375
1780626357229090800,9.9870908203125,0.1684417724609375,1.0158538818359375,0.055938720703125
1780626357239085800,9.9970859375,0.13873291015625,1.0181121826171875,0.044677734375
1780626357249080800,10.007080810546874,0.103118896484375,1.0125732421875,0.02691650390625
1780626357259076900,10.017076904296875,0.0848846435546875,0.9991912841796875,0.014068603515625
1780626357269072000,10.02707177734375,0.0950775146484375,0.9742889404296875,0.008087158203125
1780626357279067000,10.03706689453125,0.13592529296875,0.9535369873046875,0.0084991455078125
1780626357289062700,10.047062744140625,0.185638427734375,0.9494476318359375,0.0132293701171875
1780626357299057700,10.0570576171875,0.182586669921875,0.965362548828125,0.008575439453125
1780626357309052700,10.067052734375,0.1500091552734375,0.994781494140625,-0.0053558349609375
1780626357319049000,10.077049072265625,0.1325225830078125,1.021881103515625,-0.0262603759765625
1780626357329044000,10.0870439453125,0.1182403564453125,1.0442962646484375,-0.055206298828125
1780626357339039000,10.0970390625,0.104248046875,1.0548858642578125,-0.0813140869140625
1780626357349034500,10.107034423828125,0.0942535400390625,1.043121337890625,-0.0935211181640625
1780626357359029500,10.117029541015626,0.081634521484375,1.025054931640625,-0.08209228515625
1780626357369024500,10.1270244140625,0.08184814453125,1.01861572265625,-0.05230712890625
1780626357379020800,10.137020751953125,0.094757080078125,1.014892578125,-0.01190185546875
1780626357389015600,10.147015625,0.106964111328125,1.0070037841796875,0.02667236328125
1780626357399010600,10.157010498046875,0.11761474609375,0.9949188232421875,0.0473785400390625
1780626357409006600,10.167006591796875,0.1136932373046875,0.978790283203125,0.04876708984375
1780626357419001600,10.177001708984376,0.0840911865234375,0.969390869140625,0.040679931640625
1780626357428996600,10.18699658203125,0.0567779541015625,0.9701690673828125,0.03143310546875
1780626357438992400,10.196992431640625,0.06512451171875,0.9668121337890625,0.03192138671875
1780626357448987400,10.2069873046875,0.0839385986328125,0.961029052734375,0.023345947265625
1780626357458982700,10.216982666015625,0.1055145263671875,0.9415130615234375,0.0011138916015625
1780626357468978700,10.226978759765625,0.1217803955078125,0.913665771484375,-0.04315185546875
1780626357478973700,10.2369736328125,0.13177490234375,0.8910675048828125,-0.0937042236328125
1780626357488968700,10.24696875,0.161285400390625,0.902191162109375,-0.126922607421875
1780626357498964500,10.256964599609375,0.227386474609375,0.935760498046875,-0.135223388671875
1780626357508959500,10.26695947265625,0.2498779296875,0.9696044921875,-0.1470184326171875
1780626357518954500,10.27695458984375,0.186767578125,0.9967803955078125,-0.1653594970703125
1780626357528950800,10.28695068359375,0.1122894287109375,0.9844818115234375,-0.187835693359375
1780626357538945800,10.29694580078125,0.0486297607421875,0.95172119140625,-0.181365966796875
1780626357548940500,10.3069404296875,0.0401763916015625,0.917236328125,-0.153656005859375
1780626357558936600,10.3169365234375,0.09979248046875,0.9079437255859375,-0.115478515625
1780626357568931600,10.326931640625,0.1530303955078125,0.917205810546875,-0.0749664306640625
1780626357578926600,10.336926513671875,0.150787353515625,0.938262939453125,-0.0553436279296875
1780626357588922600,10.346922607421876,0.1073760986328125,0.97174072265625,-0.05218505859375
1780626357598917400,10.35691748046875,0.11187744140625,1.001007080078125,-0.044036865234375
1780626357608912600,10.36691259765625,0.1214141845703125,1.012664794921875,-0.0453643798828125
1780626357618908700,10.37690869140625,0.12646484375,0.9944305419921875,-0.0672760009765625
1780626357628903700,10.386903564453124,0.1491851806640625,0.9715576171875,-0.0981292724609375
1780626357638898700,10.396898681640625,0.1332550048828125,0.9464263916015625,-0.13812255859375
1780626357648894500,10.40689453125,0.102142333984375,0.93499755859375,-0.161407470703125
1780626357658889500,10.416889404296874,0.0898590087890625,0.9470062255859375,-0.1527862548828125
1780626357668884500,10.426884521484375,0.0794219970703125,0.9650726318359375,-0.1240386962890625
1780626357678880800,10.436880859375,0.07879638671875,0.992919921875,-0.0963897705078125
1780626357688875800,10.446875732421875,0.0713043212890625,1.019683837890625,-0.092620849609375
1780626357698870800,10.456870849609375,0.0421295166015625,1.0274810791015625,-0.1038970947265625
1780626357708866600,10.466866455078126,0.0130157470703125,0.997894287109375,-0.105621337890625
1780626357718861600,10.476861572265625,0.015899658203125,0.9422607421875,-0.07025146484375
1780626357728856600,10.486856689453125,0.1068572998046875,0.9069061279296875,-0.00860595703125
1780626357738852600,10.4968525390625,0.1525726318359375,0.914276123046875,0.0381011962890625
1780626357748847400,10.506847412109375,0.1593780517578125,0.9531707763671875,0.0488739013671875
1780626357758842600,10.516842529296875,0.1915130615234375,1.0107269287109375,0.0061492919921875
1780626357768838700,10.526838623046874,0.2002105712890625,1.0697784423828125,-0.0594024658203125
1780626357778833700,10.536833740234375,0.1909942626953125,1.1089324951171875,-0.1094818115234375
1780626357788828700,10.54682861328125,0.170440673828125,1.08740234375,-0.16241455078125
1780626357798824400,10.556824462890624,0.1338348388671875,0.9945526123046875,-0.22222900390625
1780626357808819500,10.5668193359375,0.12078857421875,0.8961029052734375,-0.228118896484375
1780626357818814500,10.576814453125,0.1238861083984375,0.8751220703125,-0.1532135009765625
1780626357828809500,10.5868095703125,0.0829315185546875,0.91156005859375,-0.0767974853515625
1780626357838805800,10.5968056640625,0.0109710693359375,0.9677734375,-0.01116943359375
1780626357848800800,10.60680078125,0.021270751953125,1.0108795166015625,0.0481719970703125
1780626357858795500,10.61679541015625,0.0233917236328125,1.034515380859375,0.0538482666015625
1780626357868791600,10.62679150390625,0.0772247314453125,1.03460693359375,0.0226898193359375
1780626357878786600,10.63678662109375,0.1735076904296875,1.017913818359375,-0.015289306640625
1780626357888781600,10.646781494140624,0.1942291259765625,0.9920654296875,-0.06146240234375
1780626357898777600,10.656777587890625,0.17205810546875,0.9816741943359375,-0.10382080078125
1780626357908772600,10.666772705078126,0.1432952880859375,0.9796600341796875,-0.120208740234375
1780626357918767600,10.676767578125,0.11834716796875,0.9892730712890625,-0.1093902587890625
1780626357928763600,10.686763671875,0.12274169921875,1.0117645263671875,-0.087677001953125
1780626357938758700,10.696758544921876,0.1127166748046875,1.03173828125,-0.0640411376953125
1780626357948753700,10.706753662109374,0.099365234375,1.02728271484375,-0.053009033203125
1780626357958749400,10.71674951171875,0.0952911376953125,1.0157623291015625,-0.0475311279296875
1780626357968744400,10.726744384765626,0.08026123046875,0.9964447021484375,-0.0302276611328125
1780626357978739500,10.736739501953124,0.06243896484375,0.9804534912109375,-0.0070953369140625
1780626357988735700,10.74673583984375,0.09002685546875,0.9741363525390625,0
1780626357998730800,10.756730712890626,0.145599365234375,0.9727630615234375,-0.0207672119140625
1780626358008725800,10.766725830078125,0.180023193359375,0.9700775146484375,-0.066436767578125
1780626358018721500,10.776721435546875,0.198944091796875,0.959625244140625,-0.1089935302734375
1780626358028716500,10.786716552734376,0.1956329345703125,0.9407501220703125,-0.1293792724609375
1780626358038711600,10.796711669921875,0.175384521484375,0.931732177734375,-0.120269775390625
1780626358048707600,10.80670751953125,0.157073974609375,0.940704345703125,-0.092620849609375
1780626358058702600,10.81670263671875,0.1441497802734375,0.9467926025390625,-0.0637359619140625
1780626358068697600,10.826697509765625,0.127899169921875,0.953857421875,-0.04296875
1780626358078693600,10.836693603515625,0.1621551513671875,0.9642333984375,-0.03460693359375
1780626358088688600,10.846688720703124,0.2147674560546875,0.97833251953125,-0.049102783203125
1780626358098683600,10.85668359375,0.224945068359375,0.9898681640625,-0.06744384765625
1780626358108679400,10.866679443359375,0.2249755859375,0.9893035888671875,-0.0825958251953125
1780626358118674400,10.87667431640625,0.212493896484375,0.98419189453125,-0.093994140625
1780626358128669400,10.88666943359375,0.2023773193359375,0.97552490234375,-0.0997467041015625
1780626358138665700,10.896665771484376,0.210723876953125,0.968414306640625,-0.0950164794921875
1780626358148660700,10.90666064453125,0.1841583251953125,0.9590606689453125,-0.0918121337890625
1780626358158655700,10.91665576171875,0.1500701904296875,0.9514312744140625,-0.0822601318359375
1780626358168651500,10.926651611328126,0.1213531494140625,0.945709228515625,-0.0707855224609375
1780626358178646500,10.936646484375,0.087799072265625,0.9424896240234375,-0.0628509521484375
1780626358188641500,10.9466416015625,0.094512939453125,0.949554443359375,-0.0391693115234375
1780626358198637600,10.956637451171876,0.0821685791015625,0.958740234375,-0.0209808349609375
1780626358208632800,10.9666328125,0.0993499755859375,0.9630889892578125,-0.0260772705078125
1780626358218627600,10.976627685546875,0.1462860107421875,0.9579010009765625,-0.046173095703125
1780626358228623600,10.98662353515625,0.177490234375,0.9570465087890625,-0.066741943359375
1780626358238618600,10.99661865234375,0.1597442626953125,0.962158203125,-0.075347900390625
1780626358248613600,11.006613525390625,0.1652374267578125,0.971588134765625,-0.0695343017578125
1780626358258608600,11.016608642578126,0.1843719482421875,0.980743408203125,-0.0569610595703125
1780626358268604400,11.0266044921875,0.146240234375,0.983154296875,-0.043121337890625
1780626358278599400,11.036599365234375,0.1239013671875,0.9815521240234375,-0.02471923828125
1780626358288594400,11.046594482421876,0.136016845703125,0.9688262939453125,-0.0170745849609375
1780626358298590700,11.0565908203125,0.1291351318359375,0.95513916015625,-0.0312652587890625
1780626358308585700,11.066585693359375,0.1605072021484375,0.9589080810546875,-0.043792724609375
1780626358318580700,11.076580810546876,0.1782073974609375,0.97601318359375,-0.05517578125
1780626358328576500,11.086576416015625,0.1549224853515625,0.9871826171875,-0.0724029541015625
1780626358338571500,11.096571533203125,0.1085205078125,0.99395751953125,-0.0604705810546875
1780626358348566800,11.10656689453125,0.0986480712890625,1.0142059326171875,0.0058135986328125
1780626358358562800,11.116562744140625,0.1327362060546875,1.00860595703125,0.0650177001953125
1780626358368557600,11.1265576171875,0.138427734375,0.9769134521484375,0.0660858154296875
1780626358378552800,11.136552734375,0.1460723876953125,0.9503326416015625,0.0227203369140625
1780626358388548900,11.146548828125,0.1578216552734375,0.9516754150390625,-0.027862548828125
1780626358398544000,11.1565439453125,0.1741790771484375,0.97015380859375,-0.07208251953125
1780626358408539000,11.166538818359374,0.15557861328125,0.990325927734375,-0.107452392578125
1780626358418534700,11.17653466796875,0.1516265869140625,1.0000457763671875,-0.1191558837890625
1780626358428529700,11.18652978515625,0.193115234375,1.0031585693359375,-0.103851318359375
1780626358438524700,11.196524658203124,0.15264892578125,0.9995269775390625,-0.0745849609375
1780626358448521000,11.20652099609375,0.11431884765625,0.9866943359375,-0.02545166015625
1780626358458516000,11.216515869140625,0.131103515625,0.9706573486328125,0.012786865234375
1780626358468511000,11.226510986328124,0.1800994873046875,0.9635009765625,0.030731201171875
1780626358478506800,11.2365068359375,0.19134521484375,0.9642333984375,0.03125
1780626358488501800,11.246501708984376,0.1600341796875,0.976654052734375,0.0211334228515625
1780626358498496800,11.256496826171874,0.1207122802734375,0.9848175048828125,0.0147247314453125
1780626358508492800,11.266492919921875,0.1299285888671875,0.99908447265625,0.02984619140625
1780626358518487800,11.27648779296875,0.089111328125,1.0160064697265625,0.0442352294921875
1780626358528482800,11.28648291015625,0.0671844482421875,1.0084686279296875,0.0424346923828125
1780626358538478800,11.296478759765625,0.1277618408203125,0.9923553466796875,0.0293731689453125
1780626358548473900,11.306473876953126,0.1964569091796875,0.986328125,0.012969970703125
1780626358558468900,11.31646875,0.223388671875,0.9804534912109375,-0.0118865966796875
1780626358568464600,11.326464599609375,0.2161712646484375,0.975372314453125,-0.0351104736328125
1780626358578459600,11.336459716796876,0.205535888671875,0.9775543212890625,-0.046905517578125
1780626358588454700,11.34645458984375,0.2180633544921875,0.9876861572265625,-0.0517730712890625
1780626358598451000,11.356450927734375,0.1925811767578125,1.00225830078125,-0.04742431640625
1780626358608446000,11.366446044921876,0.152130126953125,1.0156097412109375,-0.0162353515625
1780626358618441000,11.37644091796875,0.1316680908203125,1.02587890625,0.0505523681640625
1780626358628436000,11.38643603515625,0.2164459228515625,1.01654052734375,0.123748779296875
1780626358638431700,11.396431640625,0.300567626953125,0.9817047119140625,0.1551971435546875
1780626358648426800,11.4064267578125,0.227386474609375,0.92681884765625,0.091949462890625
1780626358658421800,11.416421875,0.100006103515625,0.895172119140625,-0.0155487060546875
1780626358668417800,11.426417724609376,0.02056884765625,0.9040679931640625,-0.0941314697265625
1780626358678412800,11.436412841796875,0.03912353515625,0.942779541015625,-0.12799072265625
1780626358688407800,11.44640771484375,0.060577392578125,0.994873046875,-0.1147003173828125
1780626358698403800,11.45640380859375,0.054107666015625,1.032135009765625,-0.0702056884765625
1780626358708398800,11.46639892578125,0.0726318359375,1.0424652099609375,0.0110015869140625
1780626358718393900,11.476393798828125,0.1460113525390625,1.0374908447265625,0.1128082275390625
1780626358728389600,11.4863896484375,0.191162109375,1.0072174072265625,0.1704559326171875
1780626358738384600,11.496384521484375,0.2025909423828125,0.9621124267578125,0.1548004150390625
1780626358748379600,11.506379638671875,0.2124481201171875,0.9342041015625,0.1056060791015625
1780626358758376000,11.5163759765625,0.210296630859375,0.93084716796875,0.0635528564453125
1780626358768371000,11.526370849609375,0.2204132080078125,0.9479522705078125,0.0360260009765625
1780626358778366000,11.536365966796875,0.2627105712890625,0.97210693359375,0.0345001220703125
1780626358788361700,11.54636181640625,0.3177947998046875,0.9988250732421875,0.0424346923828125
1780626358798356700,11.556356689453125,0.3243255615234375,1.0196533203125,0.0570068359375
1780626358808351700,11.566351806640625,0.3182373046875,1.018096923828125,0.0724945068359375
1780626358818347800,11.57634765625,0.3214111328125,0.9892120361328125,0.0847625732421875
1780626358828343000,11.586343017578125,0.304168701171875,0.9576568603515625,0.08935546875
1780626358838337800,11.596337890625,0.2672271728515625,0.9372100830078125,0.0836334228515625
1780626358848333800,11.606333740234374,0.2422637939453125,0.937835693359375,0.0660552978515625
1780626358858328800,11.616328857421875,0.233917236328125,0.945831298828125,0.0630035400390625
1780626358868323800,11.62632373046875,0.2072296142578125,0.94049072265625,0.072052001953125
1780626358878318800,11.63631884765625,0.1894989013671875,0.921783447265625,0.0822906494140625
1780626358888314600,11.646314697265625,0.185821533203125,0.9080963134765625,0.0855255126953125
1780626358898309600,11.6563095703125,0.17706298828125,0.909149169921875,0.0921173095703125
1780626358908304600,11.6663046875,0.136322021484375,0.93499755859375,0.1125946044921875
1780626358918301000,11.676301025390625,0.09765625,0.9631805419921875,0.130859375
1780626358928296000,11.6862958984375,0.1100616455078125,0.97076416015625,0.1295318603515625
1780626358938291000,11.696291015625,0.12725830078125,0.9822235107421875,0.1141815185546875
1780626358948286700,11.70628662109375,0.1512451171875,1.00189208984375,0.1093597412109375
1780626358958281700,11.71628173828125,0.15435791015625,1.0137939453125,0.1229248046875
1780626358968276700,11.72627685546875,0.11846923828125,1.0122528076171875,0.119110107421875
1780626358978273000,11.73627294921875,0.1190032958984375,0.9990386962890625,0.1092681884765625
1780626358988267800,11.746267822265626,0.13397216796875,0.9922027587890625,0.118133544921875
1780626358998262800,11.7562626953125,0.1231689453125,0.9975738525390625,0.13470458984375
1780626359008258800,11.7662587890625,0.12469482421875,1.0137176513671875,0.1434173583984375
1780626359018253800,11.77625390625,0.137115478515625,1.0235595703125,0.13629150390625
1780626359028248800,11.786248779296875,0.116546630859375,1.025909423828125,0.1387939453125
1780626359038244600,11.79624462890625,0.10235595703125,1.018829345703125,0.1389007568359375
1780626359048239600,11.806239501953126,-0.1835174560546875,1.0533447265625,0.0473175048828125
1780626359058234600,11.816234619140625,-0.36749267578125,1.1321258544921875,-0.0926055908203125
1780626359068231000,11.82623095703125,0.17608642578125,1.1342010498046875,-0.11138916015625
1780626359078226000,11.836225830078124,0.5650634765625,1.1320648193359375,0.0312652587890625
1780626359088221000,11.846220947265625,0.417633056640625,1.1019744873046875,0.213775634765625
1780626359098216700,11.856216796875,0.2744903564453125,0.95611572265625,0.3313446044921875
1780626359108211700,11.866211669921874,0.167633056640625,0.7926788330078125,0.334625244140625
1780626359118206700,11.876206787109375,0.0289459228515625,0.673309326171875,0.2714691162109375
1780626359128203000,11.886203125,-0.0677947998046875,0.7114410400390625,0.2676239013671875
1780626359138198000,11.896197998046874,-0.0842132568359375,0.898529052734375,0.3026885986328125
1780626359148192800,11.90619287109375,-0.0711669921875,1.02410888671875,0.258331298828125
1780626359158187800,11.916187744140625,-0.041259765625,1.083282470703125,0.1695709228515625
1780626359168183800,11.926183837890624,0.026885986328125,1.08331298828125,0.058746337890625
1780626359178178800,11.9361787109375,0.0883026123046875,1.055633544921875,-0.029937744140625
1780626359188173800,11.946173828125,0.1203460693359375,1.0262298583984375,-0.0868377685546875
1780626359198169600,11.956169677734374,0.1328277587890625,1.0058441162109375,-0.1092071533203125
1780626359208164600,11.96616455078125,0.1364288330078125,0.993560791015625,-0.085723876953125
1780626359218159900,11.976159912109376,0.1260833740234375,0.9802093505859375,-0.010528564453125
1780626359228156000,11.986156005859375,0.120574951171875,0.966217041015625,0.0714111328125
1780626359238151000,11.99615087890625,0.1263275146484375,0.9577178955078125,0.15167236328125
1780626359248146000,12.00614599609375,0.137115478515625,0.957000732421875,0.214508056640625
1780626359258141700,12.0161416015625,0.1014251708984375,0.9565887451171875,0.243743896484375
1780626359268136700,12.02613671875,0.0809478759765625,0.970062255859375,0.2465362548828125
1780626359278131700,12.036131591796876,0.087677001953125,1.00811767578125,0.236236572265625
1780626359288128000,12.0461279296875,0.0811767578125,1.0359954833984375,0.2195587158203125
1780626359298123000,12.056123046875,0.0797119140625,1.019287109375,0.1928863525390625
1780626359308117800,12.06611767578125,0.0831298828125,0.99188232421875,0.156494140625
1780626359318113800,12.07611376953125,0.0890045166015625,0.9782867431640625,0.131744384765625
1780626359328108800,12.08610888671875,0.081268310546875,0.972564697265625,0.11297607421875
1780626359338103800,12.096103759765626,0.0649261474609375,0.966705322265625,0.0925140380859375
1780626359348099300,12.106099365234375,0.0655975341796875,0.9676513671875,0.0626983642578125
1780626359358094300,12.11609423828125,0.089263916015625,0.9841156005859375,0.0549468994140625
1780626359368089300,12.12608935546875,0.0970611572265625,0.996307373046875,0.05938720703125
1780626359378085400,12.13608544921875,0.0792236328125,0.991851806640625,0.069305419921875
1780626359388080400,12.146080322265625,0.0564727783203125,0.9864959716796875,0.08404541015625
1780626359398075400,12.156075439453126,0.033416748046875,0.9988861083984375,0.109405517578125
1780626359408070400,12.1660703125,0.0380096435546875,1.0104217529296875,0.144378662109375
1780626359418066200,12.176066162109375,0.060302734375,1.0075531005859375,0.1689300537109375
1780626359428061200,12.186061279296876,0.0630645751953125,0.987579345703125,0.1711578369140625
1780626359438056400,12.196056396484375,0.0558013916015625,0.9726715087890625,0.1621856689453125
1780626359448052500,12.206052490234375,0.06378173828125,0.969146728515625,0.15704345703125
1780626359458047500,12.216047607421874,0.09442138671875,0.9728851318359375,0.1572265625
1780626359468042500,12.22604248046875,0.1103057861328125,0.9725494384765625,0.1518402099609375
1780626359478038300,12.236038330078125,0.110382080078125,0.96844482421875,0.13177490234375
1780626359488033300,12.246033203125,0.1103057861328125,0.9617156982421875,0.112640380859375
1780626359498028300,12.2560283203125,0.0936279296875,0.9510650634765625,0.1034698486328125
1780626359508024600,12.266024658203126,0.067718505859375,0.9366455078125,0.0972747802734375
1780626359518019300,12.276019287109374,0.0827789306640625,0.933685302734375,0.1005859375
1780626359528014300,12.286014404296875,0.1054229736328125,0.9465179443359375,0.116424560546875
1780626359538010400,12.29601025390625,0.1135406494140625,0.9609375,0.1282196044921875
1780626359548005400,12.30600537109375,0.1219024658203125,0.9686431884765625,0.141845703125
1780626359558000400,12.31600048828125,0.14117431640625,0.9824371337890625,0.15679931640625
1780626359567996200,12.32599609375,0.1632232666015625,1.0047607421875,0.1601104736328125
1780626359577991200,12.3359912109375,0.13824462890625,1.0298309326171875,0.14892578125
1780626359587986200,12.345986083984375,0.1068878173828125,1.045806884765625,0.130859375
1780626359597981400,12.3559814453125,0.0930023193359375,1.04034423828125,0.1307525634765625
1780626359607977500,12.3659775390625,0.0689849853515625,1.030670166015625,0.149078369140625
1780626359617972500,12.375972412109375,0.0704803466796875,1.0211639404296875,0.1731719970703125
1780626359627967200,12.38596728515625,0.0842437744140625,1.0128173828125,0.1950531005859375
1780626359637963300,12.39596337890625,0.0902862548828125,1.0021514892578125,0.1941986083984375
1780626359647958300,12.405958251953125,0.0923004150390625,0.99432373046875,0.167449951171875
1780626359657953300,12.415953369140626,0.0903472900390625,0.984649658203125,0.12603759765625
1780626359667949300,12.42594921875,0.106048583984375,0.971649169921875,0.0931243896484375
1780626359677944300,12.4359443359375,0.15411376953125,0.9554595947265625,0.0692901611328125
1780626359687939300,12.445939208984376,0.1810760498046875,0.9423980712890625,0.0531768798828125
1780626359697935400,12.455935302734375,0.192474365234375,0.930938720703125,0.0561065673828125
1780626359707930400,12.465930419921875,0.210784912109375,0.9337921142578125,0.0836334228515625
1780626359717925400,12.47592529296875,0.2306671142578125,0.9505767822265625,0.1215972900390625
1780626359727921200,12.485921142578125,0.2237091064453125,0.9678955078125,0.15692138671875
1780626359737916200,12.495916259765625,0.1862640380859375,0.9862213134765625,0.193084716796875
1780626359747911400,12.505911376953126,0.1396484375,0.996124267578125,0.2336578369140625
1780626359757907500,12.515907470703125,0.083984375,0.995452880859375,0.289398193359375
1780626359767902500,12.52590234375,0.0610809326171875,0.995147705078125,0.3361663818359375
1780626359777897500,12.5358974609375,0.0634613037109375,0.9900054931640625,0.3428497314453125
1780626359787892200,12.545892333984375,0.0782470703125,0.9738311767578125,0.30194091796875
1780626359797888300,12.55588818359375,0.08544921875,0.9537353515625,0.217010498046875
1780626359807883300,12.56588330078125,0.0923614501953125,0.947418212890625,0.1213226318359375
1780626359817878300,12.575878173828125,0.1359100341796875,0.952972412109375,0.0556793212890625
1780626359827874300,12.585874267578125,0.13446044921875,0.9671173095703125,0.0322418212890625
1780626359837869300,12.595869384765624,0.1157379150390625,0.9702606201171875,0.040924072265625
1780626359847864300,12.6058642578125,0.1688385009765625,0.9629669189453125,0.090789794921875
1780626359857860400,12.6158603515625,0.2153778076171875,0.964263916015625,0.17535400390625
1780626359867855400,12.62585546875,0.21295166015625,0.96624755859375,0.2424163818359375
1780626359877850400,12.635850341796875,0.1699066162109375,0.9747314453125,0.2575836181640625
1780626359887846100,12.64584619140625,0.1193084716796875,0.982086181640625,0.2387237548828125
1780626359897841400,12.65584130859375,0.0907440185546875,0.982208251953125,0.211456298828125
1780626359907836400,12.66583642578125,0.0758514404296875,0.9639129638671875,0.194122314453125
1780626359917832400,12.67583251953125,0.081512451171875,0.946136474609375,0.1887969970703125
1780626359927827500,12.685827392578124,0.1013031005859375,0.9479827880859375,0.1942901611328125
1780626359937822500,12.695822509765625,0.1142578125,0.9631805419921875,0.1983795166015625
1780626359947818200,12.705818359375,0.112548828125,0.9758758544921875,0.2006072998046875
1780626359957813200,12.715813232421874,0.1046905517578125,0.9784698486328125,0.197906494140625
1780626359967808300,12.725808349609375,0.0946502685546875,0.97381591796875,0.197601318359375
1780626359977803500,12.735803466796876,0.0948638916015625,0.973541259765625,0.204315185546875
1780626359987799300,12.74579931640625,0.0896148681640625,0.9793548583984375,0.2052764892578125
1780626359997794300,12.755794189453125,0.088897705078125,0.985107421875,0.1969146728515625
1780626360007789300,12.765789306640626,0.091705322265625,0.9910888671875,0.1896209716796875
1780626360017785300,12.775785400390625,0.097930908203125,0.9951629638671875,0.181610107421875
1780626360027780400,12.7857802734375,0.10894775390625,0.9891510009765625,0.177947998046875
1780626360037775400,12.795775390625,0.1092376708984375,0.9752044677734375,0.176727294921875
1780626360047771400,12.805771484375,0.105804443359375,0.9573974609375,0.1710662841796875
1780626360057766400,12.815766357421875,0.1080474853515625,0.944183349609375,0.170379638671875
1780626360067761400,12.825761474609376,0.1131591796875,0.9407806396484375,0.1772308349609375
1780626360077757400,12.83575732421875,0.1072235107421875,0.94580078125,0.1911773681640625
1780626360087752400,12.84575244140625,0.1016998291015625,0.95672607421875,0.2120361328125
1780626360097747200,12.855747314453126,0.0938568115234375,0.9756927490234375,0.2335205078125
1780626360107743200,12.8657431640625,0.0677032470703125,1.0005340576171875,0.250091552734375
1780626360117738200,12.87573828125,0.0373382568359375,1.0077972412109375,0.2474517822265625
1780626360127733500,12.8857333984375,0.027008056640625,0.995208740234375,0.238067626953125
1780626360137729300,12.895729248046875,0.056549072265625,0.977142333984375,0.22198486328125
1780626360147724300,12.905724365234375,0.089630126953125,0.9542388916015625,0.18792724609375
1780626360157719300,12.91571923828125,0.1039276123046875,0.9405364990234375,0.1432037353515625
1780626360167714300,12.92571435546875,0.10650634765625,0.9465789794921875,0.109710693359375
1780626360177710300,12.93571044921875,0.1013336181640625,0.9673004150390625,0.1011505126953125
1780626360187705300,12.945705322265624,0.1051177978515625,0.9793701171875,0.127899169921875
1780626360197700400,12.955700439453125,0.1159515380859375,0.9709320068359375,0.173309326171875
1780626360207696400,12.9656962890625,0.1149749755859375,0.957794189453125,0.2075347900390625
1780626360217691400,12.97569140625,0.1097564697265625,0.951324462890625,0.2240753173828125
1780626360227686400,12.985686279296875,0.0966796875,0.9473876953125,0.2226409912109375
1780626360237682400,12.995682373046876,0.0899658203125,0.952117919921875,0.2048187255859375
1780626360247677400,13.005677490234374,0.0779876708984375,0.9594879150390625,0.1824188232421875
1780626360257672200,13.015672119140625,0.07177734375,0.965118408203125,0.1634368896484375
1780626360267668200,13.025668212890626,0.067901611328125,0.9718170166015625,0.15576171875
1780626360277663200,13.035663330078124,0.0598602294921875,0.9746551513671875,0.1614990234375
1780626360287658500,13.045658447265625,0.0661468505859375,0.9835662841796875,0.1729888916015625
1780626360297653500,13.055653564453126,0.082244873046875,0.9950408935546875,0.18035888671875
1780626360307649300,13.065649169921874,0.08587646484375,1.0056915283203125,0.1763916015625
