time,seconds_elapsed,z,y,x
1780626347293722400,0.051722412109375,-0.4553219676017761,0.07813315093517303,0.1783156841993332
1780626347303717400,0.06171728515625,-0.7444195747375488,-0.08014676719903946,0.2943946123123169
1780626347313713700,0.071713623046875,-1.137445092201233,-0.36733806133270264,0.4411686062812805
1780626347323708400,0.08170849609375,-1.6522024869918823,-0.788110613822937,0.6520321369171143
1780626347333703400,0.091703369140625,-2.251040458679199,-1.3033827543258667,0.8991953134536743
1780626347343698700,0.10169873046875,-2.8158600330352783,-1.7201812267303467,1.1722211837768555
1780626347353693700,0.111693603515625,-3.1879241466522217,-1.8737658262252808,1.4785130023956299
1780626347363688700,0.121688720703125,-2.820996046066284,-1.7353661060333252,1.729028582572937
1780626347373685000,0.13168505859375,-1.9642152786254883,-1.176487922668457,1.650591254234314
1780626347383679700,0.1416796875,-0.9875928163528442,-0.4115135073661804,1.1860888004302979
1780626347393674800,0.1516748046875,-0.26224759221076965,0.5819403529167175,0.4641090929508209
1780626347403670800,0.1616708984375,0.06330414116382599,1.0349773168563843,-0.326816201210022
1780626347413665800,0.171665771484375,0.19138593971729279,1.2523730993270874,-0.871498167514801
1780626347423661800,0.181661865234375,0.1752394586801529,1.4888862371444702,-1.2265976667404175
1780626347433656600,0.191656494140625,0.05600361526012421,1.448696255683899,-1.453038215637207
1780626347443651800,0.20165185546875,-0.122555211186409,1.2337934970855713,-1.4900985956192017
1780626347453648000,0.21164794921875,-0.3312367796897888,0.8822525143623352,-1.3629456758499146
1780626347463643000,0.221642822265625,-0.4959045648574829,0.5574613809585571,-1.0733556747436523
1780626347473638000,0.231637939453125,-0.5635131597518921,0.3674302101135254,-0.6718462705612183
1780626347483633700,0.241633544921875,-0.5602303147315979,0.2710147202014923,-0.2247321754693985
1780626347493628700,0.251628662109375,-0.5396400690078735,0.1706407070159912,0.2208985537290573
1780626347503623700,0.261623779296875,-0.5478377938270569,-0.06678808480501175,0.6168136596679688
1780626347513620000,0.271619873046875,-0.593626081943512,-0.3229716718196869,0.9231749176979065
1780626347523615000,0.281614990234375,-0.7013993859291077,-0.5471126437187195,1.0939671993255615
1780626347533610000,0.29160986328125,-0.8330661058425903,-0.7271971702575684,1.1474194526672363
1780626347543605800,0.301605712890625,-0.9055056571960449,-0.8067013025283813,1.1717674732208252
1780626347553600800,0.311600830078125,-0.6984230279922485,-0.8905062079429626,1.3149027824401855
1780626347563596800,0.3215966796875,-0.4372801184654236,-0.15408331155776978,1.3385180234909058
1780626347573591800,0.331591796875,-0.18231548368930817,0.15891800820827484,1.3385359048843384
1780626347583586800,0.3415869140625,0.07536133378744125,0.4294496476650238,1.2762688398361206
1780626347593582800,0.351582763671875,0.3049873411655426,0.43620288372039795,1.1738271713256836
1780626347603577900,0.361577880859375,0.4060436487197876,0.213392436504364,1.0234477519989014
1780626347613572900,0.37157275390625,0.20597900450229645,0.10676825791597366,0.7248005867004395
1780626347623569000,0.38156884765625,-0.02544650435447693,0.3421107232570648,0.5092041492462158
1780626347633563600,0.391563720703125,-0.19715142250061035,0.5776601433753967,0.42399173974990845
1780626347643558700,0.40155859375,-0.2040519267320633,0.6293278932571411,0.46682363748550415
1780626347653555000,0.411554931640625,-0.13723668456077576,0.5489400625228882,0.5782934427261353
1780626347663550000,0.421550048828125,-0.1972997486591339,0.4660175144672394,0.6593278646469116
1780626347673545000,0.431544921875,-0.3876393437385559,0.49912992119789124,0.6395953893661499
1780626347683540700,0.441540771484375,-0.5240432620048523,0.5268275737762451,0.5943850874900818
1780626347693535700,0.45153564453125,-0.5738422274589539,0.5719926953315735,0.5638846755027771
1780626347703530800,0.46153076171875,-0.5926100611686707,0.4981139302253723,0.5349377393722534
1780626347713526800,0.47152685546875,-0.592797040939331,0.26534005999565125,0.474116712808609
1780626347723521800,0.481521728515625,-0.5657704472541809,-0.0290572177618742,0.4438251256942749
1780626347733517800,0.491517822265625,-0.2049800455570221,-0.10039318352937698,0.5616856813430786
1780626347743512800,0.501512939453125,0.28238189220428467,0.04990231245756149,0.6320917010307312
1780626347753507800,0.5115078125,0.44392818212509155,0.03315635398030281,0.5860405564308167
1780626347763503900,0.52150390625,0.3682169020175934,-0.06828691065311432,0.5938169956207275
1780626347773499000,0.531498779296875,0.27117931842803955,-0.3612375557422638,0.6266785264015198
1780626347783493600,0.54149365234375,0.1879184991121292,-0.8507081866264343,0.7490084767341614
1780626347793489700,0.55148974609375,0.08854638040065765,-1.4115523099899292,1.0132251977920532
1780626347803485000,0.56148486328125,-0.06429243832826614,-1.7340291738510132,1.2322741746902466
1780626347813480000,0.57147998046875,-0.19902415573596954,-1.6562331914901733,1.388025164604187
1780626347823475700,0.581475830078125,-0.23284070193767548,-1.3108230829238892,1.428611159324646
1780626347833470700,0.591470703125,-0.16534236073493958,-0.8239516615867615,1.3434706926345825
1780626347843465700,0.6014658203125,-0.09256055951118469,-0.3980480432510376,1.1846001148223877
1780626347853461800,0.611461669921875,-0.025006815791130066,-0.15880243480205536,1.0412025451660156
1780626347863456800,0.621456787109375,0.08157874643802643,-0.09976866841316223,0.933228075504303
1780626347873451800,0.63145166015625,0.31376805901527405,0.32299110293388367,0.8249474167823792
1780626347883447800,0.64144775390625,0.8222648501396179,0.8941142559051514,0.5942521691322327
1780626347893442800,0.65144287109375,1.1873503923416138,0.815910279750824,0.18821784853935242
1780626347903437800,0.661437744140625,1.2502737045288086,0.4407683312892914,-0.19567815959453583
1780626347913433900,0.671433837890625,1.1530587673187256,0.17481201887130737,-0.4603279232978821
1780626347923428900,0.681428955078125,1.1386369466781616,0.1306522786617279,-0.4865824282169342
1780626347933424600,0.691424560546875,1.2088521718978882,0.2102818638086319,-0.285722017288208
1780626347943419600,0.701419677734375,1.1820390224456787,0.0965861976146698,-0.03293265029788017
1780626347953415000,0.711414794921875,1.0859146118164062,-0.2635866403579712,0.10877947509288788
1780626347963411000,0.721410888671875,1.02579665184021,-0.4561384916305542,0.1088697612285614
1780626347973406000,0.731406005859375,1.0899412631988525,-0.4278631806373596,0.0015664712991565466
1780626347983400700,0.741400634765625,1.1827598810195923,-0.28676146268844604,-0.1944027692079544
1780626347993396700,0.751396728515625,1.0634499788284302,-0.1536654531955719,-0.5258861780166626
1780626348003391700,0.761391845703125,0.868434727191925,-0.2501789629459381,-0.8744047284126282
1780626348013386800,0.77138671875,0.8376147747039795,-0.2807139456272125,-1.019882082939148
1780626348023382800,0.7813828125,0.853195309638977,-0.2986122667789459,-1.0098315477371216
1780626348033377800,0.791377685546875,0.8361340165138245,-0.028781579807400703,-0.9064124822616577
1780626348043372800,0.801372802734375,0.8140298128128052,0.09196481108665466,-0.8346394896507263
1780626348053368800,0.811368896484375,0.8561439514160156,0.18965621292591095,-0.76488196849823
1780626348063363800,0.82136376953125,0.9806461930274963,0.2813059687614441,-0.690547525882721
1780626348073358800,0.83135888671875,1.1176725625991821,0.12597870826721191,-0.6530646085739136
1780626348083354600,0.841354736328125,1.2324984073638916,-0.06282316893339157,-0.6373658180236816
1780626348093349600,0.851349609375,1.3638900518417358,-0.11231482028961182,-0.5558621883392334
1780626348103345000,0.861344970703125,1.417078971862793,-0.004276504274457693,-0.410166472196579
1780626348113341000,0.8713408203125,1.3861585855484009,0.0973217561841011,-0.2017482966184616
1780626348123336000,0.8813359375,1.1905109882354736,-0.0743221640586853,0.02310878038406372
1780626348133331700,0.891331787109375,0.784011960029602,-0.3230723440647125,0.2706301510334015
1780626348143326700,0.90132666015625,0.2396855652332306,-0.43166112899780273,0.5219180583953857
1780626348153321700,0.91132177734375,-0.3078307807445526,-0.47849148511886597,0.7355424761772156
1780626348163318000,0.921318115234375,-0.6319332122802734,-0.5431761741638184,0.8479949831962585
1780626348173313000,0.93131298828125,-0.7245388031005859,-0.6289874911308289,0.8705599308013916
1780626348183307800,0.941307861328125,-0.7966769337654114,-0.6155300140380859,0.8774295449256897
1780626348193303800,0.9513037109375,-0.9600663781166077,-0.6365639567375183,0.9513676762580872
1780626348203298800,0.961298828125,-1.0404256582260132,-0.85551518201828,1.1255877017974854
1780626348213293800,0.9712939453125,-1.2694727182388306,-0.9801537990570068,1.1672594547271729
1780626348223289900,0.981289794921875,-1.317405343055725,-0.9016104936599731,0.8739429116249084
1780626348233284600,0.99128466796875,-1.0238264799118042,-0.6511008143424988,0.48598402738571167
1780626348243279600,1.001279541015625,-0.6332863569259644,-0.3795076310634613,0.13663586974143982
1780626348253276000,1.01127587890625,-0.4381435215473175,-0.17639394104480743,-0.10687558352947235
1780626348263271000,1.02127099609375,-0.31505516171455383,-0.3031090199947357,-0.2337283343076706
1780626348273266000,1.031265869140625,-0.21626652777194977,-0.5507686138153076,-0.2677624821662903
1780626348283261700,1.04126171875,-0.18439434468746185,-0.7199640274047852,-0.21816135942935944
1780626348293256700,1.051256591796875,-0.28116029500961304,-0.7705038785934448,-0.11871839314699173
1780626348303251700,1.061251708984375,-0.38844600319862366,-0.7250013947486877,-0.0075942701660096645
1780626348313248000,1.071248046875,-0.44725367426872253,-0.5268774032592773,0.11375746130943298
1780626348323243000,1.081242919921875,-0.3671383261680603,-0.2181919813156128,0.2251625508069992
1780626348333237800,1.09123779296875,-0.14331720769405365,0.008438492193818092,0.2513693869113922
1780626348343234600,1.101234619140625,0.08837833255529404,0.054421428591012955,0.18507371842861176
1780626348353229600,1.1112294921875,0.25355929136276245,0.021560685709118843,0.09327082335948944
1780626348363225300,1.121225341796875,0.3049074411392212,-0.128196582198143,-0.0007483482477255166
1780626348373220400,1.131220458984375,0.23994575440883636,-0.28520697355270386,-0.04434376209974289
1780626348383215400,1.14121533203125,0.20462265610694885,-0.1945095658302307,-0.06119517982006073
1780626348393211400,1.15121142578125,0.38933682441711426,0.06617528945207596,-0.08297690749168396
1780626348403206400,1.161206298828125,0.770633339881897,0.29602473974227905,-0.17960065603256226
1780626348413201400,1.171201416015625,1.1585792303085327,0.39507248997688293,-0.38079822063446045
1780626348423197400,1.181197509765625,1.4242340326309204,0.35412025451660156,-0.5521750450134277
1780626348433192400,1.1911923828125,1.572190523147583,0.12507322430610657,-0.5584946870803833
1780626348443187500,1.2011875,1.6526459455490112,-0.33793196082115173,-0.41682517528533936
1780626348453183500,1.21118359375,1.6843888759613037,-1.0407252311706543,-0.21381694078445435
1780626348463178500,1.221178466796875,1.5724849700927734,-1.7832614183425903,-0.044442031532526016
1780626348473173500,1.231173583984375,1.0454460382461548,-2.0022809505462646,-0.020533503964543343
1780626348483169300,1.241169189453125,-0.10598742216825485,-1.3483885526657104,-0.379485547542572
1780626348493164500,1.25116455078125,-0.04356079176068306,-2.030134439468384,-0.5255852341651917
1780626348503159600,1.26115966796875,0.5297903418540955,-3.194990396499634,-0.42910635471343994
1780626348513155600,1.271155517578125,0.9338395595550537,-3.240074634552002,-0.40111014246940613
1780626348523150300,1.281150390625,1.3277690410614014,-2.9119608402252197,-0.46018385887145996
1780626348533145300,1.291145263671875,1.8090850114822388,-3.118898391723633,-0.5380767583847046
1780626348543141400,1.301141357421875,2.242899179458618,-3.422830581665039,-0.6397099494934082
1780626348553136400,1.311136474609375,2.5218777656555176,-3.6247289180755615,-0.7633320093154907
1780626348563131400,1.32113134765625,2.6406779289245605,-3.856920003890991,-0.8392680287361145
1780626348573127400,1.33112744140625,2.672610282897949,-4.1268720626831055,-0.8143864274024963
1780626348583122400,1.341122314453125,2.690016269683838,-4.377328395843506,-0.6900010704994202
1780626348593117400,1.351117431640625,2.6270875930786133,-4.638727188110352,-0.560826301574707
1780626348603113500,1.361113525390625,2.54994535446167,-4.672130107879639,-0.5238328576087952
1780626348613108500,1.3711083984375,2.488762855529785,-4.5546979904174805,-0.5544605255126953
1780626348623104300,1.381104248046875,2.4949073791503906,-4.365257263183594,-0.5644439458847046
1780626348633099300,1.391099365234375,2.5947771072387695,-4.116015434265137,-0.5756731629371643
1780626348643094500,1.401094482421875,2.8212296962738037,-4.080309867858887,-0.6441243886947632
1780626348653090600,1.411090576171875,3.0835013389587402,-4.36115026473999,-0.7409468293190002
1780626348663085600,1.42108544921875,3.2167696952819824,-4.79508638381958,-0.747856080532074
1780626348673080300,1.431080322265625,3.0417511463165283,-4.9210710525512695,-0.4344180226325989
1780626348683076400,1.441076416015625,2.7296078205108643,-4.573121547698975,0.19699402153491974
1780626348693071400,1.4510712890625,2.515796422958374,-4.406993389129639,0.7988090515136719
1780626348703066400,1.46106640625,2.5174431800842285,-4.554450035095215,1.1191082000732422
1780626348713062400,1.4710625,2.7370047569274902,-4.804699897766113,1.0893266201019287
1780626348723057400,1.481057373046875,3.0327186584472656,-5.121455669403076,0.9407637715339661
1780626348733052400,1.491052490234375,3.253324031829834,-5.2709126472473145,0.9141585230827332
1780626348743048400,1.50104833984375,3.4275801181793213,-5.238386631011963,1.0602738857269287
1780626348753043500,1.51104345703125,3.628262519836426,-5.003756523132324,1.4016717672348022
1780626348763038500,1.52103857421875,3.89180326461792,-4.524163246154785,1.7931252717971802
1780626348773034200,1.5310341796875,4.2260260581970215,-3.9768171310424805,2.0648036003112793
1780626348783029200,1.541029296875,4.620742321014404,-3.4615638256073,2.0922811031341553
1780626348793024500,1.5510244140625,5.037721157073975,-2.924945831298828,1.8900507688522339
1780626348803020500,1.5610205078125,5.476387977600098,-2.5868265628814697,1.4297672510147095
1780626348813015600,1.571015625,5.859692096710205,-2.4860281944274902,0.8595709204673767
1780626348823010600,1.581010498046875,5.8710432052612305,-2.516634941101074,0.563742995262146
1780626348833006300,1.59100634765625,5.361466407775879,-2.7155134677886963,0.7366638779640198
1780626348843001300,1.60100146484375,4.607965469360352,-3.017315626144409,1.2560412883758545
1780626348852996400,1.610996337890625,3.837958812713623,-2.9986050128936768,1.7800313234329224
1780626348862992600,1.62099267578125,3.2089531421661377,-2.5139803886413574,2.038745641708374
1780626348872987400,1.6309873046875,2.7801496982574463,-1.8259167671203613,2.0378854274749756
1780626348882982400,1.640982421875,2.468132495880127,-1.0504639148712158,1.9311670064926147
1780626348892978400,1.650978515625,2.132781982421875,-0.18071332573890686,1.7419233322143555
1780626348902973400,1.660973388671875,1.7601954936981201,0.6609292030334473,1.4728121757507324
1780626348912968400,1.670968505859375,1.3957326412200928,1.3146899938583374,1.1433770656585693
1780626348922964200,1.680964111328125,1.080046534538269,1.8155999183654785,0.8695529699325562
1780626348932959200,1.690959228515625,0.7125391364097595,2.2607762813568115,0.7108059525489807
1780626348942954500,1.70095458984375,0.24569684267044067,2.6841588020324707,0.5981691479682922
1780626348952950500,1.710950439453125,-0.2795698642730713,2.9544904232025146,0.5601328015327454
1780626348962945500,1.720945556640625,-0.7116397619247437,2.99295711517334,0.6276620626449585
1780626348972940500,1.7309404296875,-0.8589900732040405,2.851208209991455,0.713772714138031
1780626348982936300,1.740936279296875,-0.8149116039276123,2.5667083263397217,0.8090677857398987
1780626348992931300,1.750931396484375,-0.8022671341896057,2.3234827518463135,0.9232420325279236
1780626349002926300,1.76092626953125,-0.8381151556968689,2.1558001041412354,1.0051758289337158
1780626349012922600,1.770922607421875,-0.8323086500167847,2.0070877075195312,1.0203111171722412
1780626349022917600,1.780917724609375,-0.8407471776008606,1.8521324396133423,0.9889760613441467
1780626349032913400,1.790913330078125,-0.9611252546310425,1.6615781784057617,0.973574161529541
1780626349042908400,1.800908447265625,-1.2467271089553833,1.37845778465271,1.0803738832473755
1780626349052903400,1.8109033203125,-1.6357356309890747,0.9705312848091125,1.3756680488586426
1780626349062899500,1.8208994140625,-1.9473576545715332,0.5708885192871094,1.7591552734375
1780626349072894200,1.830894287109375,-2.043882131576538,0.4013277292251587,2.019848108291626
1780626349082889200,1.84088916015625,-1.8987609148025513,0.28168734908103943,2.061901092529297
1780626349092885500,1.850885498046875,-1.5905768871307373,0.18445026874542236,1.9734729528427124
1780626349102880500,1.860880615234375,-1.2737648487091064,0.19973574578762054,1.7828576564788818
1780626349112875500,1.87087548828125,-1.07876455783844,0.2080751657485962,1.5560245513916016
1780626349122871300,1.880871337890625,-1.0375185012817383,0.18729053437709808,1.4105829000473022
1780626349132866300,1.8908662109375,-1.1492546796798706,0.10643403232097626,1.4348419904708862
1780626349142861300,1.900861328125,-1.3903846740722656,-0.009181514382362366,1.6572123765945435
1780626349152857600,1.910857666015625,-1.6927165985107422,-0.07933157682418823,1.9924551248550415
1780626349162852600,1.9208525390625,-1.9303747415542603,-0.05307040736079216,2.2777390480041504
1780626349172847600,1.93084765625,-1.9755834341049194,0.07247845828533173,2.3411571979522705
1780626349182843400,1.940843505859375,-1.7283079624176025,0.04218074306845665,1.9330905675888062
1780626349192838400,1.95083837890625,-1.2865664958953857,0.17431721091270447,1.1651068925857544
1780626349202833400,1.96083349609375,-0.8963379859924316,0.574942409992218,0.43845778703689575
1780626349212829400,1.970829345703125,-0.682101309299469,0.7955203056335449,0.12105931341648102
1780626349222824400,1.980824462890625,-0.7054628729820251,0.5354756712913513,0.30516737699508667
1780626349232819200,1.990819091796875,-0.8532595038414001,0.032831184566020966,0.784673273563385
1780626349242815500,2.0008154296875,-1.0359547138214111,-0.49363234639167786,1.2498183250427246
1780626349252810500,2.010810546875,-1.1626325845718384,-0.9082018136978149,1.5329948663711548
1780626349262805500,2.020805419921875,-1.199817180633545,-1.0898417234420776,1.4686691761016846
1780626349272801300,2.03080126953125,-1.2156070470809937,-1.1231269836425781,1.1662917137145996
1780626349282796300,2.04079638671875,-1.2467130422592163,-1.1189316511154175,0.9054385423660278
1780626349292791300,2.050791259765625,-1.2577545642852783,-1.093416690826416,0.7663256525993347
1780626349302787600,2.06078759765625,-1.2885448932647705,-0.9560590982437134,0.6845027208328247
1780626349312782600,2.070782470703125,-1.330495834350586,-0.6492562890052795,0.6086806654930115
1780626349322777600,2.080777587890625,-1.3691707849502563,-0.4704868197441101,0.5541390776634216
1780626349332773400,2.0907734375,-1.3256051540374756,-0.4782573878765106,0.5186058878898621
1780626349342768600,2.1007685546875,-1.217524528503418,-0.6391794085502625,0.48536217212677
1780626349352763600,2.110763671875,-1.0994561910629272,-0.9529415965080261,0.36178404092788696
1780626349362759700,2.120759765625,-0.929482638835907,-1.1394670009613037,0.384945273399353
1780626349372754700,2.130754638671875,-0.7271665334701538,-1.0746397972106934,0.5609434843063354
1780626349382749400,2.14074951171875,-0.6053783297538757,-0.8173542022705078,0.7112666964530945
1780626349392745500,2.150745361328125,-0.5010346174240112,-0.5329344868659973,0.6872811913490295
1780626349402740500,2.160740478515625,-0.3960549235343933,-0.33490315079689026,0.5484045147895813
1780626349412735500,2.170735595703125,-0.3223775029182434,-0.1914711594581604,0.46108320355415344
1780626349422731500,2.1807314453125,-0.29207074642181396,-0.17952901124954224,0.40230563282966614
1780626349432726500,2.1907265625,-0.21570566296577454,-0.2300363928079605,0.3671385943889618
1780626349442722600,2.20072265625,-0.07148031145334244,-0.2611735463142395,0.36504533886909485
1780626349452717600,2.210717529296875,0.08767552673816681,-0.22209911048412323,0.3510456383228302
1780626349462712600,2.220712646484375,0.15255571901798248,-0.06947201490402222,0.2668631076812744
1780626349472708400,2.230708251953125,0.13378575444221497,0.09824667870998383,0.2224474549293518
1780626349482703400,2.240703369140625,0.02736957184970379,0.3074859082698822,0.24602974951267242
1780626349492698600,2.25069873046875,-0.05772588029503822,0.46591389179229736,0.2820018529891968
1780626349502694700,2.260694580078125,-0.0762614831328392,0.4663674533367157,0.3004501163959503
1780626349512689700,2.270689697265625,0.02935948595404625,0.32242250442504883,0.26819735765457153
1780626349522684700,2.2806845703125,0.2715199291706085,-0.3707287907600403,0.27137982845306396
1780626349532680400,2.290680419921875,0.5178937315940857,-0.8537667989730835,0.40222734212875366
1780626349542675500,2.300675537109375,0.6922831535339355,-1.0927778482437134,0.5234988927841187
1780626349552670500,2.31067041015625,0.8712624907493591,-1.3635286092758179,0.560150146484375
1780626349562666800,2.320666748046875,0.9634802937507629,-1.6068060398101807,0.7162928581237793
1780626349572661800,2.330661865234375,0.794101357460022,-1.4816381931304932,1.0290446281433105
1780626349582656500,2.340656494140625,0.6402662396430969,-1.212200403213501,1.2786060571670532
1780626349592652500,2.350652587890625,0.5693907737731934,-1.1139228343963623,1.3573673963546753
1780626349602647600,2.3606474609375,0.7467106580734253,-1.1174333095550537,1.1971122026443481
1780626349612642600,2.370642578125,1.0761431455612183,-1.1187846660614014,0.8803137540817261
1780626349622638300,2.380638427734375,1.4288396835327148,-1.0959045886993408,0.5397151708602905
1780626349632633300,2.39063330078125,1.846563696861267,-1.0937058925628662,0.27433541417121887
1780626349642628600,2.400628662109375,2.180072784423828,-1.0884075164794922,0.14899666607379913
1780626349652624600,2.410624755859375,2.0665841102600098,-1.035570502281189,0.32782235741615295
1780626349662619600,2.42061962890625,1.681069016456604,-0.8994970321655273,0.5572144985198975
1780626349672614700,2.43061474609375,1.2972196340560913,-0.6749781966209412,0.6984363794326782
1780626349682610400,2.4406103515625,1.1558492183685303,-0.3761451244354248,0.6668787002563477
1780626349692605400,2.45060546875,1.1452686786651611,-0.13769075274467468,0.4353943467140198
1780626349702600400,2.460600341796875,0.9927558898925781,-0.1538366973400116,0.3304322361946106
1780626349712596700,2.4705966796875,0.7682146430015564,-0.029391178861260414,0.31443437933921814
1780626349722591700,2.480591796875,0.7509214282035828,0.06097280606627464,0.2391718327999115
1780626349732586500,2.49058642578125,0.9910746216773987,-0.02936348132789135,0.09414886683225632
1780626349742582500,2.50058251953125,1.312698245048523,0.10283023864030838,-0.20265723764896393
1780626349752577500,2.51057763671875,1.2612531185150146,0.2029499113559723,-0.26120418310165405
1780626349762572500,2.520572509765625,0.9850300550460815,-0.23829884827136993,0.08063092827796936
1780626349772568600,2.530568603515625,0.6984978914260864,-0.701448917388916,0.47399792075157166
1780626349782563300,2.540563232421875,0.5918244123458862,-1.0863749980926514,0.7217696309089661
1780626349792558600,2.55055859375,0.6881000995635986,-1.330788254737854,0.8682402968406677
1780626349802554600,2.5605546875,0.8549428582191467,-1.4019173383712769,0.8948364853858948
1780626349812549600,2.570549560546875,1.002346396446228,-1.4911643266677856,0.8355742692947388
1780626349822544600,2.580544677734375,1.1618947982788086,-1.5509182214736938,0.7267841100692749
1780626349832540400,2.59054052734375,1.202343225479126,-1.4989279508590698,0.6607667207717896
1780626349842535400,2.600535400390625,1.1102186441421509,-1.3464974164962769,0.6523146629333496
1780626349852530400,2.610530517578125,0.8997681140899658,-1.1984409093856812,0.6900926828384399
1780626349862526700,2.620526611328125,0.6722977161407471,-1.009727120399475,0.7220095992088318
1780626349872521700,2.630521728515625,0.5300326943397522,-0.9027820229530334,0.6541131138801575
1780626349882516700,2.640516845703125,0.33903878927230835,-0.7252626419067383,0.5381433367729187
1780626349892512500,2.650512451171875,0.03277898579835892,-0.37046539783477783,0.3743288516998291
1780626349902507500,2.660507568359375,-0.2938760817050934,0.012826316058635712,0.19972030818462372
1780626349912502500,2.67050244140625,-0.5401191711425781,0.304810494184494,0.03255714476108551
1780626349922498600,2.68049853515625,-0.8637068271636963,0.6424724459648132,-0.19973495602607727
1780626349932493600,2.69049365234375,-1.2452101707458496,0.9940145015716553,-0.46464625000953674
1780626349942489600,2.700489501953125,-1.4712066650390625,1.2663224935531616,-0.6000706553459167
1780626349952484600,2.710484619140625,-1.4684268236160278,0.325504332780838,-0.12452355027198792
1780626349962479600,2.720479736328125,-1.0761513710021973,-0.6106239557266235,0.3437078297138214
1780626349972475600,2.7304755859375,-0.5322138071060181,-1.570417046546936,0.5047395825386047
1780626349982470400,2.740470458984375,-0.12457016110420227,-2.774944305419922,0.3755999803543091
1780626349992465400,2.75046533203125,-0.04790547490119934,-3.0102760791778564,0.02840287983417511
1780626350002461700,2.760461669921875,-0.15607349574565887,-2.947521448135376,-0.33680200576782227
1780626350012456700,2.770456787109375,-0.048600826412439346,-2.4988620281219482,-0.5908030867576599
1780626350022451700,2.78045166015625,0.21081769466400146,-1.3850314617156982,-0.9601502418518066
1780626350032447500,2.790447509765625,0.540877640247345,0.047257792204618454,-1.2298035621643066
1780626350042442500,2.8004423828125,0.7415292263031006,1.107922911643982,-1.1928317546844482
1780626350052437500,2.8104375,0.8215447068214417,1.4669830799102783,-0.8677747845649719
1780626350062433500,2.82043359375,0.664164662361145,1.1200677156448364,-0.4467993378639221
1780626350072428500,2.830428466796875,0.25359898805618286,0.4163154661655426,-0.03627731278538704
1780626350082423600,2.840423583984375,-0.2266155630350113,0.044553618878126144,0.32737573981285095
1780626350092419600,2.850419677734375,-0.5680069923400879,-0.11211854964494705,0.6064214706420898
1780626350102414600,2.86041455078125,-0.7133839130401611,-0.1858907788991928,0.7665461897850037
1780626350112409600,2.87040966796875,-0.7165383696556091,-0.3037087619304657,0.8208075761795044
1780626350122405600,2.880405517578125,-0.6003486514091492,-0.3120676279067993,0.7889625430107117
1780626350132400600,2.890400634765625,-0.3950389325618744,-0.036125779151916504,0.5940606594085693
1780626350142395400,2.9003955078125,-0.12093627452850342,0.2283860296010971,0.285717248916626
1780626350152391700,2.9103916015625,0.011907791718840599,0.16092151403427124,0.051184091717004776
1780626350162386700,2.92038671875,-0.00788295641541481,-0.07670942693948746,-0.044925663620233536
1780626350172381700,2.930381591796875,-0.03308871015906334,-0.09020712226629257,-0.06987761706113815
1780626350182377500,2.94037744140625,0.034395523369312286,0.0526467002928257,-0.030169619247317314
1780626350192372500,2.95037255859375,0.15784741938114166,0.2885303199291229,0.03663257881999016
1780626350202367500,2.960367431640625,0.3488623797893524,0.5384240746498108,0.11903557926416397
1780626350212363500,2.970363525390625,0.607008159160614,0.8450812101364136,0.2341078370809555
1780626350222358500,2.980358642578125,0.9635862708091736,1.108049750328064,0.3947291970252991
1780626350232353500,2.990353515625,1.3788952827453613,1.1677247285842896,0.5724440813064575
1780626350242349600,3.000349609375,1.7547932863235474,1.005082607269287,0.7130365967750549
1780626350252344600,3.010344482421875,2.046738386154175,0.8046943545341492,0.765340268611908
1780626350262339600,3.020339599609375,2.287261724472046,0.5196138620376587,0.8238443732261658
1780626350272335600,3.030335693359375,2.4710707664489746,0.2495483160018921,0.9363687634468079
1780626350282330600,3.04033056640625,2.610105276107788,0.06934978067874908,1.0286853313446045
1780626350292325400,3.050325439453125,2.7204928398132324,-0.050505250692367554,0.9834161400794983
1780626350302321700,3.06032177734375,2.760463237762451,0.011404454708099365,0.6918727159500122
1780626350312316700,3.070316650390625,2.7226123809814453,0.1575203835964203,0.21064884960651398
1780626350322311700,3.080311767578125,2.6403298377990723,0.2946614623069763,-0.3069136142730713
1780626350332307500,3.090307373046875,2.5059704780578613,0.46410349011421204,-0.7623711228370667
1780626350342302500,3.100302490234375,2.2915992736816406,0.6719943881034851,-1.0646865367889404
1780626350352297500,3.11029736328125,1.9447067975997925,0.9520087242126465,-1.1369529962539673
1780626350362293500,3.12029345703125,1.4338312149047852,1.2199501991271973,-0.9585496783256531
1780626350372288500,3.13028857421875,0.8996749520301819,1.2593830823898315,-0.6528992652893066
1780626350382283500,3.140283447265625,0.4717443585395813,0.977237343788147,-0.3758452534675598
1780626350392279600,3.150279541015625,0.17491935193538666,0.6776162981987,-0.21930599212646484
1780626350402274600,3.160274658203125,-0.039694417268037796,0.6063394546508789,-0.16655702888965607
1780626350412269600,3.17026953125,-0.1713845282793045,0.6155462861061096,-0.1656281054019928
1780626350422265600,3.180265625,-0.2665952146053314,0.5428425073623657,-0.20432011783123016
1780626350432260600,3.190260498046875,-0.3259597420692444,0.6394113898277283,-0.2103939801454544
1780626350442255600,3.200255615234375,-0.2553263008594513,0.7852173447608948,-0.2118763029575348
1780626350452251600,3.210251708984375,-0.1576700508594513,0.8795129656791687,-0.20065400004386902
1780626350462246700,3.22024658203125,-0.1860678791999817,0.926573634147644,-0.18617253005504608
1780626350472241700,3.23024169921875,-0.2568381726741791,0.9957125186920166,-0.16913150250911713
1780626350482237700,3.24023779296875,-0.2767043113708496,0.998749315738678,-0.0983622595667839
1780626350492232400,3.250232421875,-0.2882360517978668,0.9394409656524658,0.014403440058231354
1780626350502228500,3.260228515625,-0.2863369584083557,0.8105453252792358,0.14626240730285645
1780626350512223500,3.270223388671875,-0.17782938480377197,0.6798496246337891,0.2715076804161072
1780626350522218500,3.280218505859375,-0.018508169800043106,0.5934316515922546,0.3764455318450928
1780626350532214500,3.290214599609375,0.05933389812707901,0.5275290608406067,0.44816288352012634
1780626350542209500,3.30020947265625,0.03724004700779915,0.40865540504455566,0.4599345624446869
1780626350552204500,3.31020458984375,-0.04472299665212631,0.26646336913108826,0.419758141040802
1780626350562200600,3.32020068359375,-0.12719523906707764,0.11659318953752518,0.35005441308021545
1780626350572195600,3.330195556640625,-0.22333268821239471,-0.06997375935316086,0.28535717725753784
1780626350582190600,3.340190673828125,-0.3646666407585144,-0.3871370553970337,0.2355552613735199
1780626350592186400,3.350186279296875,-0.5528525114059448,-0.6255506873130798,0.20991301536560059
1780626350602181600,3.360181640625,-0.7558719515800476,-0.6276761889457703,0.23249661922454834
1780626350612176600,3.3701767578125,-0.8606034517288208,-0.5436789989471436,0.3063521981239319
1780626350622172700,3.380172607421875,-0.7510127425193787,-0.5600910186767578,0.4530937075614929
1780626350632167700,3.390167724609375,-0.39701926708221436,-0.6321020722389221,0.6902886629104614
1780626350642162700,3.40016259765625,0.08196650445461273,-0.6030011773109436,0.9658645987510681
1780626350652158500,3.410158447265625,0.4723454415798187,-0.3426588177680969,1.1426681280136108
1780626350662153500,3.420153564453125,0.6171787977218628,-0.06780168414115906,1.0639429092407227
1780626350672148500,3.4301484375,0.533399760723114,0.07267526537179947,0.7045571208000183
1780626350682144800,3.440144775390625,0.3276175558567047,0.015445002354681492,0.1528681069612503
1780626350692139500,3.450139404296875,0.10873127728700638,-0.0307571142911911,-0.40397515892982483
1780626350702134500,3.460134521484375,-0.02430533990263939,-0.019750535488128662,-0.8417937755584717
1780626350712130600,3.470130615234375,-0.0031699605751782656,-0.03194621577858925,-1.1087522506713867
1780626350722125600,3.48012548828125,0.11127112805843353,-0.11544110625982285,-1.231188178062439
1780626350732120600,3.49012060546875,0.2309967279434204,-0.18748228251934052,-1.2372827529907227
1780626350742116400,3.500116455078125,0.3671756088733673,-0.26953640580177307,-1.138258695602417
1780626350752111600,3.510111572265625,0.5644601583480835,-0.40049389004707336,-0.9226542711257935
1780626350762106600,3.520106689453125,0.7835909128189087,-0.6130125522613525,-0.6031261086463928
1780626350772102700,3.5301025390625,1.0210343599319458,-0.9240204691886902,-0.22035394608974457
1780626350782097700,3.54009765625,1.2871710062026978,-1.134964942932129,0.17555557191371918
1780626350792092700,3.5500927734375,1.5396548509597778,-1.1678680181503296,0.5415061116218567
1780626350802088400,3.56008837890625,1.7256425619125366,-1.0753288269042969,0.8506802320480347
1780626350812083500,3.57008349609375,1.785205602645874,-0.9610421657562256,1.1014772653579712
1780626350822078500,3.580078369140625,1.6754662990570068,-0.8878443837165833,1.3405239582061768
1780626350832074800,3.59007470703125,1.3235896825790405,-0.9756027460098267,1.577605962753296
1780626350842069500,3.600069580078125,0.7767791152000427,-1.293366551399231,1.790521264076233
1780626350852064500,3.610064453125,0.27394554018974304,-1.4974919557571411,1.979191541671753
1780626350862060500,3.620060546875,-0.20584531128406525,-1.920383095741272,1.9478541612625122
1780626350872055600,3.6300556640625,-0.668429434299469,-2.2264671325683594,1.0672615766525269
1780626350882050600,3.640050537109375,-0.569346010684967,-2.122039556503296,-0.7073875069618225
1780626350892046300,3.65004638671875,-0.3185071349143982,-2.3591623306274414,-1.5499600172042847
1780626350902041600,3.66004150390625,-0.3288612365722656,-2.142293691635132,-1.4584178924560547
1780626350912036600,3.67003662109375,-0.43944793939590454,-1.9203779697418213,-1.0459219217300415
1780626350922032600,3.68003271484375,-0.5698989033699036,-1.682347059249878,-0.7655323147773743
1780626350932027600,3.690027587890625,-0.48055168986320496,-1.0082749128341675,-0.9966233372688293
1780626350942022700,3.700022705078125,-0.1529541313648224,-0.18457570672035217,-1.4125827550888062
1780626350952018400,3.710018310546875,0.1357698142528534,0.4547014534473419,-1.4984632730484009
1780626350962013400,3.720013427734375,0.31745946407318115,0.5262182354927063,-1.3943432569503784
1780626350972008400,3.730008544921875,0.368277370929718,0.2218748778104782,-1.1804234981536865
1780626350982004700,3.740004638671875,0.4089861810207367,-0.39622482657432556,-1.0149857997894287
1780626350991999700,3.749999755859375,0.48548653721809387,-1.1244635581970215,-1.001122236251831
1780626351001994500,3.759994384765625,0.5400927662849426,-1.3006374835968018,-0.8854962587356567
1780626351011990500,3.769990478515625,0.6752098798751831,-0.9480933547019958,-0.6424385905265808
1780626351021985500,3.779985595703125,0.9001601338386536,-0.5991145968437195,-0.4294661581516266
1780626351031980500,3.78998046875,1.1132551431655884,-0.6823005080223083,-0.26151043176651
1780626351041976600,3.7999765625,1.208990454673767,-0.9225477576255798,-0.13843616843223572
1780626351051971600,3.8099716796875,1.2234183549880981,-1.188077688217163,-0.07877550274133682
1780626351061966600,3.819966552734375,1.2646539211273193,-1.3773930072784424,-0.05434020236134529
1780626351071962600,3.829962646484375,1.3835755586624146,-1.3816075325012207,-0.015198926441371441
1780626351081957600,3.83995751953125,1.5201795101165771,-1.2116400003433228,0.05367761105298996
1780626351091952600,3.84995263671875,1.6342452764511108,-1.1424263715744019,0.20368868112564087
1780626351101948400,3.859948486328125,1.7140141725540161,-1.1040318012237549,0.4365195333957672
1780626351111943400,3.869943359375,1.8285362720489502,-1.075415849685669,0.719828188419342
1780626351121938400,3.8799384765625,2.054145097732544,-1.0428640842437744,1.0378029346466064
1780626351131934700,3.889934814453125,2.3709585666656494,-1.1198527812957764,1.271999716758728
1780626351141929700,3.8999296875,2.676272392272949,-1.0438435077667236,1.3672080039978027
1780626351151925500,3.909925537109375,2.954420328140259,-0.9939044713973999,1.3686400651931763
1780626351161920500,3.91992041015625,3.0653128623962402,-1.2549630403518677,1.292088270187378
1780626351171915500,3.92991552734375,2.9649085998535156,-1.632744312286377,1.1804893016815186
1780626351181911600,3.93991162109375,2.7013323307037354,-1.7574971914291382,1.080201268196106
1780626351191906600,3.949906494140625,2.3744394779205322,-1.543060064315796,0.9336182475090027
1780626351201901600,3.959901611328125,2.1903157234191895,-1.0741328001022339,0.6103091835975647
1780626351211897600,3.969897705078125,2.1663477420806885,-0.6440244913101196,0.06791220605373383
1780626351221892600,3.979892578125,2.182302474975586,-0.2594754993915558,-0.508974015712738
1780626351231887600,3.9898876953125,2.0026955604553223,-0.09855480492115021,-0.8890928626060486
1780626351241883400,3.99988330078125,1.4103405475616455,0.16023626923561096,-0.863355278968811
1780626351251878400,4.00987841796875,0.9360643625259399,0.26347771286964417,-0.6312575936317444
1780626351261873400,4.019873291015625,0.743883490562439,0.006578540429472923,-0.42031392455101013
1780626351271869700,4.02986962890625,0.8282726407051086,-0.413036048412323,-0.2765972316265106
1780626351281864700,4.03986474609375,1.115903615951538,-0.5599061846733093,-0.1852143257856369
1780626351291859700,4.049859619140625,1.5405044555664062,-0.47949761152267456,-0.14225035905838013
1780626351301855500,4.05985546875,2.0369317531585693,-0.2463945895433426,-0.11633113771677017
1780626351311850500,4.0698505859375,2.5241634845733643,-0.008519452065229416,-0.06192408874630928
1780626351321845500,4.079845458984375,2.944333076477051,0.13734561204910278,0.030117155984044075
1780626351331841500,4.089841552734375,3.281996965408325,0.2020638883113861,0.1447633057832718
1780626351341836800,4.0998369140625,3.600672960281372,0.11361977458000183,0.23501305282115936
1780626351351831800,4.109831787109375,3.952234983444214,-0.13218200206756592,0.2592605948448181
1780626351361827800,4.119827880859375,4.358424663543701,-0.4724644720554352,0.23847702145576477
1780626351371822800,4.12982275390625,4.784205913543701,-0.8828163146972656,0.2153645157814026
1780626351381817900,4.13981787109375,5.203016757965088,-1.2971274852752686,0.241057887673378
1780626351391813600,4.149813720703125,5.5347771644592285,-1.7416995763778687,0.34763598442077637
1780626351401808600,4.15980859375,5.711675643920898,-2.235490083694458,0.5649539232254028
1780626351411803600,4.1698037109375,5.722555637359619,-2.7318239212036133,0.8863018751144409
1780626351421800000,4.179800048828125,5.324728488922119,-3.2982280254364014,1.2047280073165894
1780626351431795000,4.189794921875,4.569316864013672,-3.645297050476074,1.4864572286605835
1780626351441790000,4.1997900390625,3.517026901245117,-3.761615753173828,1.6241750717163086
1780626351451785700,4.20978564453125,2.2443227767944336,-3.8643980026245117,1.3196061849594116
1780626351461780700,4.21978076171875,0.6845074892044067,-4.001425743103027,0.5148507952690125
1780626351471775700,4.229775634765625,-1.1603134870529175,-3.9529666900634766,-0.5402792096138
1780626351481771800,4.239771728515625,-2.863752603530884,-3.236398935317993,-1.668520212173462
1780626351491766800,4.249766845703125,-3.828958034515381,-1.9344083070755005,-2.5452680587768555
1780626351501761800,4.25976171875,-3.6189777851104736,-0.3186083436012268,-2.8852081298828125
1780626351511757800,4.2697578125,-2.4211411476135254,1.0722869634628296,-2.5542070865631104
1780626351521752800,4.2797529296875,-0.5831209421157837,1.373525619506836,-1.492484211921692
1780626351531747800,4.289747802734375,0.9352592825889587,0.5916414856910706,-0.16449441015720367
1780626351541743900,4.299743896484375,1.1493321657180786,0.9347754120826721,0.36797669529914856
1780626351551738600,4.309738525390625,0.6353631019592285,1.835506558418274,0.28471723198890686
1780626351561733600,4.319733642578125,-0.0565040223300457,2.4067068099975586,0.002514024032279849
1780626351571730000,4.32972998046875,-0.5827491879463196,2.4963645935058594,-0.23030990362167358
1780626351581725000,4.339724853515625,-0.7770054936408997,2.1775455474853516,-0.3473566174507141
1780626351591720700,4.349720703125,-0.6823034882545471,1.6451318264007568,-0.36565786600112915
1780626351601715700,4.3597158203125,-0.4408397078514099,1.064064621925354,-0.3507321774959564
1780626351611710700,4.369710693359375,-0.1700870394706726,0.3331308364868164,-0.2933722138404846
1780626351621706800,4.379706787109375,0.02003815583884716,-0.4238058626651764,-0.21010209619998932
1780626351631701800,4.38970166015625,0.10536716878414154,-0.8153802752494812,-0.23998969793319702
1780626351641696800,4.39969677734375,0.10541138052940369,-0.9738865494728088,-0.3761533796787262
1780626351651692800,4.40969287109375,0.08272524178028107,-1.00711989402771,-0.5765083432197571
1780626351661687800,4.419687744140625,0.08314681798219681,-0.9882482290267944,-0.7427170276641846
1780626351671682800,4.429682861328125,0.10893314331769943,-0.9467926621437073,-0.807319164276123
1780626351681678800,4.439678955078125,0.13521134853363037,-0.8770942687988281,-0.7555214762687683
1780626351691673900,4.449673828125,0.14829519391059875,-0.7452440857887268,-0.6403656005859375
1780626351701668900,4.4596689453125,0.1253531277179718,-0.5231119394302368,-0.5024130344390869
1780626351711665000,4.469664794921875,0.06255445629358292,-0.23435445129871368,-0.359353631734848
1780626351721660000,4.479659912109375,-0.027112044394016266,0.028192488476634026,-0.23552356660366058
1780626351731655000,4.489655029296875,-0.11568345874547958,0.17453531920909882,-0.15639039874076843
1780626351741651000,4.49965087890625,-0.16320782899856567,0.21345369517803192,-0.12113068252801895
1780626351751645700,4.509645751953125,-0.16737088561058044,0.19969873130321503,-0.11644645035266876
1780626351761640700,4.519640625,-0.13267335295677185,0.1784704029560089,-0.12332087010145187
1780626351771636700,4.52963671875,-0.09829088300466537,0.1298767775297165,-0.13861726224422455
1780626351781631700,4.5396318359375,-0.1093568503856659,0.02671683207154274,-0.1525716930627823
1780626351791626800,4.549626708984375,-0.14126284420490265,-0.09323274344205856,-0.1414167881011963
1780626351801622800,4.559622802734375,-0.13436447083950043,-0.18094688653945923,-0.10902795195579529
1780626351811617800,4.56961767578125,-0.11006871610879898,-0.3062560558319092,-0.08930458128452301
1780626351821612800,4.57961279296875,-0.08111828565597534,-0.3573131263256073,-0.08839191496372223
1780626351831608800,4.58960888671875,-0.07906019687652588,-0.3288247585296631,-0.10193302482366562
1780626351841603800,4.599603759765625,-0.10366247594356537,-0.18307767808437347,-0.12757925689220428
1780626351851598800,4.609598876953125,-0.11426079273223877,-0.018082331866025925,-0.14420245587825775
1780626351861595000,4.619594970703125,-0.10023126006126404,0.029586387798190117,-0.13841433823108673
1780626351871590000,4.62958984375,-0.07065606117248535,0.030126210302114487,-0.12503966689109802
1780626351881585000,4.6395849609375,-0.04192321375012398,0.03443387523293495,-0.10343504697084427
1780626351891581000,4.649580810546875,-0.022124743089079857,0.05579029396176338,-0.08213455229997635
1780626351901575700,4.65957568359375,-0.015083878301084042,0.07992279529571533,-0.0869908258318901
1780626351911570700,4.66957080078125,-0.02942313626408577,0.08193987607955933,-0.10691020637750626
1780626351921566700,4.679566650390625,-0.0750151202082634,0.026126675307750702,-0.10510324686765671
1780626351931561700,4.689561767578125,-0.14788027107715607,-0.036801956593990326,-0.05529601126909256
1780626351941556700,4.699556640625,-0.22111347317695618,-0.04216955602169037,0.01938168704509735
1780626351951552800,4.709552734375,-0.2797461748123169,0.0012538161827251315,0.10560818761587143
1780626351961547800,4.7195478515625,-0.30789390206336975,0.06486129015684128,0.18594856560230255
1780626351971542800,4.729542724609375,-0.2870272397994995,0.10104405879974365,0.2687832713127136
1780626351981538800,4.739538818359375,-0.2170678675174713,0.06067506596446037,0.36217018961906433
1780626351991533800,4.749533935546875,-0.12943069636821747,-0.037452831864356995,0.4220210015773773
1780626352001529600,4.759529541015625,-0.07739971578121185,-0.11645710468292236,0.394400030374527
1780626352011524900,4.76952490234375,-0.06450203061103821,-0.1746186763048172,0.281422883272171
1780626352021520000,4.779519775390625,-0.08891922235488892,-0.24353143572807312,0.11822783946990967
1780626352031516000,4.789515869140625,-0.14383360743522644,-0.33476707339286804,-0.04294506832957268
1780626352041511000,4.799510986328125,-0.21082009375095367,-0.45218077301979065,-0.13601616024971008
1780626352051506000,4.809505859375,-0.2640566825866699,-0.5353989601135254,-0.11894290149211884
1780626352061501700,4.819501708984375,-0.2791038155555725,-0.5155237913131714,0.02322516217827797
1780626352071496700,4.82949658203125,-0.2601868510246277,-0.3569887578487396,0.26137274503707886
1780626352081491700,4.83949169921875,-0.24180543422698975,-0.09047263860702515,0.5083993077278137
1780626352091488000,4.849488037109375,-0.24899357557296753,0.185877725481987,0.6700507998466492
1780626352101482800,4.859482666015625,-0.25981587171554565,0.4085614085197449,0.7230657935142517
1780626352111477800,4.869477783203125,-0.2643837034702301,0.566582977771759,0.690762996673584
1780626352121473800,4.879473876953125,-0.25396597385406494,0.6730042099952698,0.6225173473358154
1780626352131468800,4.88946875,-0.24747371673583984,0.7226260900497437,0.5552152991294861
1780626352141463800,4.8994638671875,-0.27047038078308105,0.6845788955688477,0.49967214465141296
1780626352151459600,4.90945947265625,-0.308810293674469,0.5618601441383362,0.4714396893978119
1780626352161454800,4.919454833984375,-0.3495497405529022,0.3935994803905487,0.48850762844085693
1780626352171449900,4.929449951171875,-0.3839915990829468,0.23548682034015656,0.5461291074752808
1780626352181446000,4.93944580078125,-0.4054068922996521,0.14107456803321838,0.621268630027771
1780626352191441000,4.94944091796875,-0.41970592737197876,0.15667802095413208,0.6893592476844788
1780626352201436000,4.959435791015625,-0.43206459283828735,0.26360899209976196,0.732909619808197
1780626352211431700,4.969431640625,-0.43581750988960266,0.4204380214214325,0.7453274130821228
1780626352221426700,4.9794267578125,-0.4246133267879486,0.5805850625038147,0.7405643463134766
1780626352231421700,4.989421630859375,-0.3981436491012573,0.6876752972602844,0.7281444668769836
1780626352241418000,4.99941796875,-0.3562055230140686,0.7150126695632935,0.7055289149284363
1780626352251413000,5.0094130859375,-0.3075317144393921,0.6599345207214355,0.6834270358085632
1780626352261407700,5.01940771484375,-0.25563737750053406,0.5335429906845093,0.6685157418251038
1780626352271403800,5.02940380859375,-0.20406019687652588,0.36293691396713257,0.6626458764076233
1780626352281398800,5.039398681640625,-0.15659093856811523,0.1892050802707672,0.6635412573814392
1780626352291393800,5.049393798828125,-0.11969684064388275,0.050455451011657715,0.6542838215827942
1780626352301389600,5.0593896484375,-0.09287507832050323,-0.04791213199496269,0.6333593726158142
1780626352311384800,5.069384765625,-0.07736776024103165,-0.12062282115221024,0.6025623083114624
1780626352321379800,5.0793798828125,-0.06751193106174469,-0.1837085783481598,0.5655829906463623
1780626352331375900,5.0893759765625,-0.06766106933355331,-0.24200144410133362,0.5296372175216675
1780626352341369900,5.099369873046875,-0.072289377450943,-0.2720552086830139,0.5065478682518005
1780626352351364900,5.10936474609375,-0.08072840422391891,-0.24775946140289307,0.4883720874786377
1780626352361361200,5.119361083984375,-0.09526713192462921,-0.17044790089130402,0.4794488847255707
1780626352371356000,5.12935595703125,-0.12213363498449326,-0.052435778081417084,0.48845091462135315
1780626352381352000,5.13935205078125,-0.1508755385875702,0.10532056540250778,0.5125618577003479
1780626352391347000,5.149346923828125,-0.16981273889541626,0.2831219732761383,0.5406890511512756
1780626352401342000,5.159342041015625,-0.1709754765033722,0.4696500599384308,0.5592414736747742
1780626352411337700,5.169337646484375,-0.15998993813991547,0.6374949812889099,0.5488913655281067
1780626352421332700,5.179332763671875,-0.1431121528148651,0.7578725218772888,0.5057073831558228
1780626352431327700,5.18932763671875,-0.12585966289043427,0.8368259072303772,0.4409049451351166
1780626352441324000,5.199323974609375,-0.10857681185007095,0.8588196635246277,0.3673660159111023
1780626352451319000,5.209319091796875,-0.08924226462841034,0.8261277675628662,0.3062818944454193
1780626352461314000,5.21931396484375,-0.06496408581733704,0.7491469383239746,0.28164979815483093
1780626352471309800,5.229309814453125,-0.03424079343676567,0.653786838054657,0.28631749749183655
1780626352481304800,5.239304931640625,-0.01170352753251791,0.5418121218681335,0.3007853925228119
1780626352491299800,5.2492998046875,-0.009710950776934624,0.4402301013469696,0.3112074136734009
1780626352501296000,5.259296142578125,-0.018425878137350082,0.3568015396595001,0.3080350458621979
1780626352511291100,5.269291015625,-0.037222471088171005,0.28131741285324097,0.29287129640579224
1780626352521286000,5.279285888671875,-0.055562861263751984,0.2121090590953827,0.2727649509906769
1780626352531282000,5.289281982421875,-0.07084327936172485,0.15574724972248077,0.24861913919448853
1780626352541277000,5.29927685546875,-0.07046297937631607,0.09771856665611267,0.22157207131385803
1780626352551272000,5.30927197265625,-0.060559749603271484,0.009798835031688213,0.19302937388420105
1780626352561268000,5.31926806640625,-0.03711993619799614,-0.09632200747728348,0.16827955842018127
1780626352571262700,5.3292626953125,-0.0056925066746771336,-0.15593793988227844,0.14922623336315155
1780626352581257700,5.3392578125,0.01555152889341116,-0.12163668870925903,0.12897902727127075
1780626352591254000,5.34925390625,0.016213590279221535,0.011227887123823166,0.10145551711320877
1780626352601249000,5.3592490234375,0.008839830756187439,0.21310774981975555,0.07498316466808319
1780626352611244000,5.369244140625,0.004244545940309763,0.43517330288887024,0.054907988756895065
1780626352621239800,5.37923974609375,0.0037713022902607918,0.6051474213600159,0.051715124398469925
1780626352631234800,5.38923486328125,0.014709170907735825,0.6756495833396912,0.06672949343919754
1780626352641229800,5.399229736328125,0.04002571478486061,0.6232752799987793,0.09682374447584152
1780626352651226000,5.40922607421875,0.08015049248933792,0.4575430452823639,0.13458338379859924
1780626352661221000,5.41922119140625,0.11524536460638046,0.2389577180147171,0.16996054351329803
1780626352671216000,5.429216064453125,0.13754400610923767,0.03749304637312889,0.19452473521232605
1780626352681212000,5.4392119140625,0.14017628133296967,-0.10064192116260529,0.19737325608730316
1780626352691207000,5.44920703125,0.13628460466861725,-0.18595336377620697,0.1867147535085678
1780626352701202000,5.459201904296875,0.12533554434776306,-0.22052624821662903,0.16794852912425995
1780626352711198000,5.469197998046875,0.11856605857610703,-0.18841038644313812,0.14783179759979248
1780626352721193000,5.47919287109375,0.11393695324659348,-0.08360514789819717,0.1321553736925125
1780626352731187700,5.489187744140625,0.1033271849155426,0.0632316991686821,0.12289582937955856
1780626352741184000,5.49918408203125,0.0854286178946495,0.2181272655725479,0.13168852031230927
1780626352751179000,5.509178955078125,0.06670792400836945,0.3640170991420746,0.16290315985679626
1780626352761174000,5.519174072265625,0.05468135327100754,0.4688311219215393,0.22160722315311432
1780626352771169800,5.529169677734375,0.05639057233929634,0.528323769569397,0.28143754601478577
1780626352781164800,5.539164794921875,0.06581176817417145,0.5577426552772522,0.3154652714729309
1780626352791160800,5.549160888671875,0.07821650803089142,0.597748875617981,0.30398786067962646
1780626352801156000,5.559156005859375,0.07624949514865875,0.6598884463310242,0.24182727932929993
1780626352811151000,5.569151123046875,0.05409279465675354,0.7560431957244873,0.1553214192390442
1780626352821147000,5.57914697265625,0.02894935943186283,0.8665161728858948,0.05318652093410492
1780626352831142000,5.589141845703125,0.007719704881310463,0.9474555253982544,-0.05061683803796768
1780626352841137000,5.599136962890625,0.008167115971446037,0.9906013607978821,-0.13268427550792694
1780626352851133000,5.6091328125,0.038545526564121246,1.0324007272720337,-0.1663639396429062
1780626352861128000,5.6191279296875,0.09178637713193893,1.1033143997192383,-0.15570810437202454
1780626352871123000,5.629123046875,0.14571832120418549,1.20346200466156,-0.11883903294801712
1780626352881119000,5.639118896484375,0.17083458602428436,1.3075073957443237,-0.07487636804580688
1780626352891114000,5.649114013671875,0.15843011438846588,1.3708884716033936,-0.03820597380399704
1780626352901109000,5.65910888671875,0.13696317374706268,1.3544621467590332,-0.013846573419868946
1780626352911105000,5.66910498046875,0.11957060545682907,1.2450528144836426,-0.0044195158407092094
1780626352921099800,5.679099853515625,0.11386425048112869,1.045361876487732,-0.0058080879971385
1780626352931094800,5.6890947265625,0.1237616240978241,0.7879774570465088,-0.0173219982534647
1780626352941090800,5.6990908203125,0.14951252937316895,0.5363355875015259,-0.04390407353639603
1780626352951086000,5.709086181640625,0.1632469743490219,0.3173944652080536,-0.07503802329301834
1780626352961081000,5.7190810546875,0.16687420010566711,0.14893461763858795,-0.10287817567586899
1780626352971076900,5.729076904296875,0.17760434746742249,0.03485039249062538,-0.10973475128412247
1780626352981072000,5.73907177734375,0.2246062159538269,-0.08538254350423813,-0.06885523349046707
1780626352991067000,5.74906689453125,0.27748194336891174,-0.19553567469120026,0.014626879245042801
1780626353001063000,5.75906298828125,0.3498743772506714,-0.356288880109787,0.1550026386976242
1780626353011058000,5.769057861328125,0.48861122131347656,-0.44373002648353577,0.24783723056316376
1780626353021053000,5.779052978515625,0.491681843996048,-0.3543921709060669,0.229343444108963
1780626353031049000,5.789049072265625,0.43454238772392273,-0.06932953745126724,0.1440112292766571
1780626353041044000,5.7990439453125,0.4026302695274353,0.2540152370929718,0.10914725810289383
1780626353051039000,5.8090390625,0.42728927731513977,0.6251145005226135,0.07093382626771927
1780626353061035000,5.819034912109375,0.4904400110244751,1.0529329776763916,-0.008371113799512386
1780626353071030000,5.829030029296875,0.5474766492843628,1.3992178440093994,-0.08243761956691742
1780626353081024800,5.839024658203125,0.5875697731971741,1.5720455646514893,-0.10658902674913406
1780626353091020800,5.849020751953125,0.5764665007591248,1.527143955230713,-0.06827093660831451
1780626353101016000,5.85901611328125,0.47740358114242554,1.3076051473617554,0.006911968346685171
1780626353111011000,5.869010986328125,0.2979331612586975,0.9574514031410217,0.11963158845901489
1780626353121006800,5.8790068359375,0.2168060839176178,0.6725469827651978,0.2001408189535141
1780626353131001900,5.889001953125,0.23707672953605652,0.5462918281555176,0.217220738530159
1780626353140996900,5.898996826171875,0.3073580861091614,0.5225915908813477,0.1748194843530655
1780626353150993000,5.908992919921875,0.3794005811214447,0.5801001191139221,0.1073450967669487
1780626353160988000,5.91898779296875,0.43038254976272583,0.6785257458686829,0.02202301099896431
1780626353170983000,5.92898291015625,0.3696480989456177,0.7198290228843689,-0.05680442601442337
1780626353180979000,5.93897900390625,0.25449860095977783,0.8562132120132446,-0.144672229886055
1780626353190974000,5.948973876953125,0.17803950607776642,1.043865442276001,-0.1758812814950943
1780626353200969000,5.958968994140625,0.180985227227211,1.2473503351211548,-0.15339034795761108
1780626353210965000,5.968965087890625,0.23764903843402863,1.3169996738433838,-0.0689857229590416
1780626353220960000,5.9789599609375,0.3518512547016144,1.2257622480392456,0.04927833378314972
1780626353230955800,5.988955810546875,0.4413374662399292,1.1056329011917114,0.1082705482840538
1780626353240950800,5.99895068359375,0.46825429797172546,1.0724149942398071,0.07194209843873978
1780626353250946000,6.008946044921875,0.4839616119861603,1.1534134149551392,-0.01956198364496231
1780626353260942000,6.018942138671875,0.5404041409492493,1.2963786125183105,-0.0918998271226883
1780626353270937000,6.02893701171875,0.6199788451194763,1.4413142204284668,-0.11454389244318008
1780626353280931800,6.038931884765625,0.7008774280548096,1.5737295150756836,-0.08949046581983566
1780626353290927900,6.048927978515625,0.6902514100074768,1.5900927782058716,-0.004916728008538485
1780626353300923000,6.0589228515625,0.524957537651062,1.4943848848342896,0.12420610338449478
1780626353310918000,6.06891796875,0.35859569907188416,1.4834080934524536,0.23454059660434723
1780626353320914000,6.078913818359375,0.31994178891181946,1.6086372137069702,0.29827722907066345
1780626353330909000,6.088908935546875,0.35281744599342346,1.7396899461746216,0.32744789123535156
1780626353340904200,6.098904296875,0.35288774967193604,1.829244613647461,0.32601991295814514
1780626353350900500,6.108900390625,0.3419269919395447,1.8958172798156738,0.28297844529151917
1780626353360895500,6.1188955078125,0.34116238355636597,1.8881617784500122,0.2264600396156311
1780626353370890500,6.128890380859375,0.3688158392906189,1.6920862197875977,0.20811618864536285
1780626353380886300,6.13888623046875,0.4008028209209442,1.315909743309021,0.23505911231040955
1780626353390881300,6.14888134765625,0.414753794670105,0.8762774467468262,0.28464585542678833
1780626353400876300,6.158876220703125,0.4700646996498108,0.531245768070221,0.33995676040649414
1780626353410872600,6.16887255859375,0.5099120140075684,0.3107474744319916,0.42482081055641174
1780626353420867300,6.178867431640625,0.48031336069107056,0.09289185702800751,0.5500959157943726
1780626353430862300,6.1888623046875,0.4343983232975006,-0.07114634662866592,0.6590207815170288
1780626353440858400,6.1988583984375,0.3957100510597229,-0.07085207104682922,0.6753036379814148
1780626353450853400,6.208853271484375,0.34818142652511597,-0.001820803270675242,0.630624532699585
1780626353460848400,6.218848388671875,0.2675619423389435,0.10333091765642166,0.5561593770980835
1780626353470844200,6.22884423828125,0.22047936916351318,0.18059347569942474,0.5116387605667114
1780626353480839200,6.238839111328125,0.24166348576545715,0.2762235999107361,0.48242098093032837
1780626353490834200,6.248834228515625,0.30910617113113403,0.3808096647262573,0.46120595932006836
1780626353500830500,6.25883056640625,0.3334770202636719,0.4456712305545807,0.44090309739112854
1780626353510825500,6.268825439453125,0.32456183433532715,0.478712797164917,0.41515353322029114
1780626353520820500,6.278820556640625,0.3239043056964874,0.4969775378704071,0.39026495814323425
1780626353530816300,6.288816162109375,0.3147600591182709,0.5137650370597839,0.3444916009902954
1780626353540811300,6.298811279296875,0.2661201059818268,0.5608776807785034,0.27652400732040405
1780626353550806300,6.30880615234375,0.1772376298904419,0.5877096056938171,0.1791609674692154
1780626353560802600,6.318802490234375,0.08859191834926605,0.4555744528770447,0.10870996862649918
1780626353570797600,6.328797607421875,0.0494660846889019,0.25984248518943787,0.060499563813209534
1780626353580792300,6.338792236328125,0.009212406352162361,0.08312870562076569,0.03538888320326805
1780626353590788400,6.348788330078125,-0.03910798951983452,0.09403941035270691,-0.005401955917477608
1780626353600783400,6.358783447265625,-0.07437250018119812,0.17668449878692627,-0.047748081386089325
1780626353610778400,6.3687783203125,-0.1259579360485077,0.13376446068286896,-0.05756315961480141
1780626353620774100,6.378774169921875,-0.1738109439611435,-0.040640369057655334,-0.06354115903377533
1780626353630769200,6.38876904296875,-0.22039122879505157,-0.07920321077108383,-0.10278390347957611
1780626353640764200,6.39876416015625,-0.24543559551239014,0.02275298349559307,-0.16179636120796204
1780626353650760400,6.408760498046875,-0.2417234182357788,0.1366417407989502,-0.2118014693260193
1780626353660755500,6.41875537109375,-0.2058117538690567,0.23104627430438995,-0.23388946056365967
1780626353670750500,6.42875048828125,-0.1632070392370224,0.3141978681087494,-0.236162468791008
1780626353680746200,6.438746337890625,-0.12747247517108917,0.389838844537735,-0.227607861161232
1780626353690741200,6.4487412109375,-0.10487049072980881,0.4309293031692505,-0.21148774027824402
1780626353700736300,6.458736328125,-0.08602436631917953,0.4078756272792816,-0.17929679155349731
1780626353710732500,6.468732666015625,-0.07283346354961395,0.34292298555374146,-0.14283119142055511
1780626353720727600,6.4787275390625,-0.05095293000340462,0.27896612882614136,-0.11336757242679596
1780626353730722300,6.488722412109375,-0.01420530118048191,0.24625691771507263,-0.0907173827290535
1780626353740718300,6.49871826171875,0.038546591997146606,0.22441233694553375,-0.07592245936393738
1780626353750713300,6.50871337890625,0.10024191439151764,0.14597344398498535,-0.06746000051498413
1780626353760709400,6.51870947265625,0.13720472157001495,-0.023840617388486862,-0.06481681019067764
1780626353770704400,6.528704345703125,0.12851563096046448,-0.23990687727928162,-0.06169958412647247
1780626353780699100,6.53869921875,0.09426551312208176,-0.4119641184806824,-0.047621048986911774
1780626353790695400,6.5486953125,0.05828780680894852,-0.4488523602485657,-0.02467578463256359
1780626353800690400,6.5586904296875,0.038970302790403366,-0.3589344620704651,-0.004490888677537441
1780626353810685400,6.568685546875,0.02786838263273239,-0.19625206291675568,0.010998588986694813
1780626353820681200,6.57868115234375,0.02865082025527954,-0.04294853284955025,0.03250201791524887
1780626353830676200,6.58867626953125,0.03627944365143776,0.05584302544593811,0.06422372907400131
1780626353840671200,6.598671142578125,0.04465881362557411,0.10437274724245071,0.09550894796848297
1780626353850667300,6.608667236328125,0.04771186038851738,0.1226087361574173,0.11985956132411957
1780626353860662500,6.61866259765625,0.05259183794260025,0.10859092324972153,0.13553571701049805
1780626353870657500,6.628657470703125,0.055027298629283905,0.049072738736867905,0.14622512459754944
1780626353880653300,6.6386533203125,0.06085562705993652,-0.03247698396444321,0.1453729122877121
1780626353890648300,6.6486484375,0.06555823981761932,-0.08735700696706772,0.129280224442482
1780626353900643300,6.658643310546875,0.06562987715005875,-0.09194270521402359,0.10218042880296707
1780626353910639400,6.668639404296875,0.05131112411618233,-0.06430654972791672,0.0669446811079979
1780626353920634400,6.67863427734375,0.04025527834892273,-0.0374126210808754,0.03743871673941612
1780626353930629400,6.68862939453125,0.046358443796634674,-0.04809216037392616,0.02311437390744686
1780626353940625400,6.69862548828125,0.06240265816450119,-0.08753517270088196,0.026672357693314552
1780626353950620400,6.708620361328125,0.07408168166875839,-0.13666170835494995,0.0320865623652935
1780626353960615400,6.718615478515625,0.06839876621961594,-0.1758144348859787,0.02888730727136135
1780626353970611500,6.728611572265625,0.040829986333847046,-0.18892943859100342,0.013558685779571533
1780626353980606200,6.738606201171875,0.012591158971190453,-0.15868312120437622,0.0005898901727050543
1780626353990601200,6.748601318359375,-0.012088621035218239,-0.0892752856016159,0.0017872473690658808
1780626354000597200,6.75859716796875,-0.03285248950123787,0.0015012238873168826,0.016281768679618835
1780626354010592500,6.768592529296875,-0.05023760348558426,0.0903456062078476,0.03512576222419739
1780626354020587500,6.77858740234375,-0.05687819793820381,0.15442286431789398,0.049858104437589645
1780626354030583300,6.788583251953125,-0.05528855696320534,0.17142687737941742,0.05921299010515213
1780626354040578300,6.798578369140625,-0.04923225939273834,0.13596954941749573,0.06167641282081604
1780626354050573300,6.8085732421875,-0.04314826801419258,0.07046671211719513,0.05974322557449341
1780626354060569300,6.8185693359375,-0.034575287252664566,-0.007778294384479523,0.05807022750377655
1780626354070564400,6.828564453125,-0.02257641591131687,-0.0904121845960617,0.050462108105421066
1780626354080559400,6.838559326171875,-0.014042848721146584,-0.1767081916332245,0.04801280051469803
1780626354090555400,6.848555419921875,0.004405933897942305,-0.27101844549179077,0.05025384947657585
1780626354100550400,6.85855029296875,0.019588615745306015,-0.3640493154525757,0.047631967812776566
1780626354110545400,6.86854541015625,0.02063523791730404,-0.41290661692619324,0.03694257140159607
1780626354120541400,6.87854150390625,0.006481867749243975,-0.3900492191314697,0.014447116293013096
1780626354130536200,6.8885361328125,-0.01392646785825491,-0.30157795548439026,-0.014095579273998737
1780626354140531200,6.89853125,-0.01865544356405735,-0.17692656815052032,-0.03075738064944744
1780626354150527200,6.90852734375,-0.005138835404068232,-0.06178586930036545,-0.027460919693112373
1780626354160522500,6.9185224609375,0.023744743317365646,-0.0038834214210510254,-0.0051718587055802345
1780626354170517500,6.928517578125,0.04753875732421875,-0.01248995866626501,0.017185645177960396
1780626354180513300,6.93851318359375,0.05775650590658188,-0.07920640707015991,0.027269437909126282
1780626354190508300,6.94850830078125,0.06269720196723938,-0.15499411523342133,0.03179361671209335
1780626354200503300,6.95850341796875,0.07135327905416489,-0.2174321860074997,0.03453294187784195
1780626354210499300,6.968499267578125,0.08256944268941879,-0.25164422392845154,0.033295370638370514
1780626354220494300,6.978494384765625,0.085776686668396,-0.24787957966327667,0.027222832664847374
1780626354230489300,6.9884892578125,0.08023039251565933,-0.20345085859298706,0.010922156274318695
1780626354240485400,6.9984853515625,0.06390015035867691,-0.1372545212507248,-0.0028519791085273027
1780626354250480400,7.00848046875,0.04267316311597824,-0.06824430078268051,-0.008154598996043205
1780626354260475400,7.018475341796875,0.027643611654639244,-0.011416438966989517,-0.0019323896849527955
1780626354270471400,7.028471435546875,0.018214423209428787,0.021216072142124176,0.0121277691796422
1780626354280466400,7.038466552734375,0.009270730428397655,0.013915282674133778,0.025256887078285217
1780626354290461200,7.048461181640625,0.0018554243724793196,-0.02786199189722538,0.03683018684387207
1780626354300457200,7.058457275390625,-0.0010250506456941366,-0.06993647664785385,0.041369542479515076
1780626354310452500,7.068452392578125,0.00018429075134918094,-0.08820708841085434,0.03732766583561897
1780626354320448500,7.078448486328125,-0.0023728765081614256,-0.07930494099855423,0.03154114633798599
1780626354330443300,7.088443359375,0.001291100517846644,-0.06350068002939224,0.024893632158637047
1780626354340439000,7.09843896484375,0.005524993874132633,-0.06084657087922096,0.021703964099287987
1780626354350434000,7.10843408203125,0.01570013351738453,-0.0740305483341217,0.02430294267833233
1780626354360430000,7.11843017578125,0.02467578463256359,-0.08821534365415573,0.026133598759770393
1780626354370425000,7.128425048828125,0.02845747396349907,-0.0969124287366867,0.022476812824606895
1780626354380421000,7.138421142578125,0.02930888719856739,-0.09392569959163666,0.019110843539237976
1780626354390416100,7.148416015625,0.031561121344566345,-0.07952705025672913,0.015782425180077553
1780626354400411100,7.1584111328125,0.036244556307792664,-0.0662623792886734,0.014937670901417732
1780626354410407200,7.1684072265625,0.034690868109464645,-0.05619030073285103,0.012194614857435226
1780626354420402200,7.178402099609375,0.029890786856412888,-0.04754088819026947,0.00119602563790977
1780626354430397000,7.18839697265625,0.0247210580855608,-0.031626369804143906,-0.014283065684139729
1780626354440393000,7.19839306640625,0.01703810505568981,0.0010586065473034978,-0.024758076295256615
1780626354450388000,7.208387939453125,0.008439291268587112,0.043836697936058044,-0.028880650177598
1780626354460383200,7.21838330078125,-0.003512975759804249,0.07709824293851852,-0.022715166211128235
1780626354470379000,7.22837890625,-0.010783139616250992,0.08557987958192825,-0.008754875510931015
1780626354480374000,7.2383740234375,-0.009704026393592358,0.062309447675943375,0.00301656243391335
1780626354490369000,7.248369140625,-0.00609304616227746,0.020559070631861687,0.007124488707631826
1780626354500365000,7.258364990234375,-0.013113405555486679,-0.0015494271647185087,0.005608617328107357
1780626354510360000,7.268360107421875,-0.018811505287885666,0.017422134056687355,0.003194727934896946
1780626354520355000,7.27835498046875,-0.0269479937851429,0.060998108237981796,0.004610730800777674
1780626354530351000,7.28835107421875,-0.03111957013607025,0.10965512692928314,0.008452607318758965
1780626354540346000,7.29834619140625,-0.0294356532394886,0.13923752307891846,0.013351491652429104
1780626354550341000,7.308341064453125,-0.023131685331463814,0.1383109986782074,0.017956096678972244
1780626354560337200,7.318337158203125,-0.01092508528381586,0.10238602757453918,0.02708248421549797
1780626354570332200,7.328332275390625,-0.0012343751732259989,0.04641543701291084,0.02725745365023613
1780626354580327000,7.338326904296875,0.008974586613476276,-0.010239588096737862,0.019353989511728287
1780626354590323000,7.348322998046875,0.01727965474128723,-0.06351905316114426,-0.0006572681595571339
1780626354600318000,7.35831787109375,0.023331156000494957,-0.10287338495254517,-0.021825138479471207
1780626354610313200,7.368313232421875,0.015232215635478497,-0.11183732002973557,-0.03881317749619484
1780626354620309000,7.37830908203125,0.005347361322492361,-0.09140661358833313,-0.049185387790203094
1780626354630304000,7.388303955078125,-0.0009012137306854129,-0.04818617179989815,-0.04643114656209946
1780626354640299000,7.398299072265625,-0.008211856707930565,-0.011363708414137363,-0.033662088215351105
1780626354650295000,7.408294921875,-0.017888985574245453,0.0007954862085171044,-0.022880015894770622
1780626354660290000,7.4182900390625,-0.02075348235666752,-0.017556089907884598,-0.019028551876544952
1780626354670285000,7.42828515625,-0.01924986019730568,-0.0629773661494255,-0.0234664436429739
1780626354680281000,7.438281005859375,-0.018688200041651726,-0.11923211812973022,-0.04091174528002739
1780626354690276000,7.448276123046875,-0.017595771700143814,-0.16555513441562653,-0.06857053935527802
1780626354700271000,7.45827099609375,-0.016685768961906433,-0.1814214587211609,-0.10012846440076828
1780626354710267100,7.46826708984375,-0.01206704881042242,-0.16215269267559052,-0.1282501071691513
1780626354720262100,7.47826220703125,-0.014788799919188023,-0.11227460950613022,-0.14730502665042877
1780626354730257200,7.488257080078125,-0.02424781583249569,-0.05118755251169205,-0.1502600759267807
1780626354740253000,7.4982529296875,-0.0350344181060791,0.003081809962168336,-0.1354486346244812
1780626354750248000,7.508248046875,-0.04069150239229202,0.035054124891757965,-0.10973688215017319
1780626354760243200,7.5182431640625,-0.04163692519068718,0.05227465555071831,-0.09142978489398956
1780626354770239200,7.5282392578125,-0.035536423325538635,0.06758250296115875,-0.07854408025741577
1780626354780234000,7.53823388671875,-0.030418891459703445,0.07375545054674149,-0.08338490128517151
1780626354790229000,7.54822900390625,-0.03447195515036583,0.06065163016319275,-0.10271785408258438
1780626354800225000,7.55822509765625,-0.03609728440642357,0.033496707677841187,-0.12392407655715942
1780626354810220000,7.568219970703125,-0.030702518299221992,-0.00421285443007946,-0.15063105523586273
1780626354820215000,7.578215087890625,-0.026223348453640938,-0.046970169991254807,-0.17390015721321106
1780626354830211000,7.588211181640625,-0.028302744030952454,-0.07647613435983658,-0.18881386518478394
1780626354840206000,7.5982060546875,-0.034108966588974,-0.069785475730896,-0.18049627542495728
1780626354850201000,7.608201171875,-0.03609541803598404,-0.0304521806538105,-0.15481728315353394
1780626354860197000,7.618197021484375,-0.04012637957930565,0.01841256208717823,-0.11703341454267502
1780626354870192000,7.628192138671875,-0.044198885560035706,0.05248557776212692,-0.08102641254663467
1780626354880187100,7.638187255859375,-0.04378156736493111,0.06379549205303192,-0.06603094935417175
1780626354890183000,7.648182861328125,-0.043354399502277374,0.06040928140282631,-0.07992732524871826
1780626354900178000,7.658177978515625,-0.038783881813287735,0.04358769208192825,-0.11107831448316574
1780626354910173000,7.6681728515625,-0.03483894094824791,0.023208916187286377,-0.15145157277584076
1780626354920169200,7.678169189453125,-0.02714000828564167,0.005605687852948904,-0.18542791903018951
1780626354930164200,7.688164306640625,-0.020109262317419052,0.0016990967560559511,-0.20439787209033966
1780626354940159000,7.698158935546875,-0.015865782275795937,0.008494418114423752,-0.20750285685062408
1780626354950155000,7.708155029296875,-0.013118199072778225,0.026493392884731293,-0.19371168315410614
1780626354960150000,7.71814990234375,-0.01780163310468197,0.05583450198173523,-0.164488285779953
1780626354970145000,7.72814501953125,-0.023681627586483955,0.08259767293930054,-0.12957610189914703
1780626354980141000,7.73814111328125,-0.02327895723283291,0.0941840261220932,-0.09838755428791046
1780626354990136000,7.748135986328125,-0.02275404892861843,0.10604201257228851,-0.07610595226287842
1780626355000131000,7.758131103515625,-0.02088158018887043,0.10123846679925919,-0.06778250634670258
1780626355010127000,7.768127197265625,-0.014197311364114285,0.073091521859169,-0.06955377757549286
1780626355020122000,7.7781220703125,-0.010628676041960716,0.033959563821554184,-0.08201391249895096
1780626355030117000,7.7881171875,-0.010847588069736958,0.004253334365785122,-0.09947838634252548
1780626355040113000,7.79811279296875,-0.011546401306986809,-0.009296562522649765,-0.11531274020671844
1780626355050108000,7.80810791015625,-0.010389257222414017,-0.012322446331381798,-0.12448493391275406
1780626355060103000,7.81810302734375,-0.008733304217457771,-0.008147141896188259,-0.12301460653543472
1780626355070099200,7.82809912109375,-0.00686030276119709,0.001657551503740251,-0.11312389373779297
1780626355080094200,7.83809423828125,-0.010041182860732079,0.013304620049893856,-0.09384633600711823
1780626355090089000,7.8480888671875,-0.01266998890787363,0.026022279635071754,-0.07311495393514633
1780626355100085000,7.8580849609375,-0.026140790432691574,0.047506533563137054,-0.05121098831295967
1780626355110080000,7.868080078125,-0.046007439494132996,0.08393298089504242,-0.039754338562488556
1780626355120075000,7.878074951171875,-0.06255978345870972,0.13297270238399506,-0.035826440900564194
1780626355130071000,7.888071044921875,-0.07128696143627167,0.17838039994239807,-0.03657105937600136
1780626355140066000,7.898066162109375,-0.07505853474140167,0.21005097031593323,-0.034641332924366
1780626355150061000,7.90806103515625,-0.06511349231004715,0.22839215397834778,-0.037279993295669556
1780626355160057000,7.91805712890625,-0.04512247070670128,0.21851688623428345,-0.0477006770670414
1780626355170052000,7.928052001953125,-0.027183150872588158,0.24644653499126434,-0.046064428985118866
1780626355180047000,7.938047119140625,-0.03206765651702881,0.43197378516197205,0.02990357019007206
1780626355190043000,7.94804296875,-0.035414449870586395,0.5507254600524902,0.10370775312185287
1780626355200038000,7.958037841796875,-0.041974879801273346,0.6891304850578308,0.1973937600851059
1780626355210033000,7.968032958984375,-0.03512363135814667,0.7418538928031921,0.21480737626552582
1780626355220029200,7.978029296875,-0.02171728014945984,0.9033953547477722,0.23709404468536377
1780626355230024200,7.988024169921875,-0.026089923456311226,0.9710521697998047,0.1873864084482193
1780626355240019200,7.998019287109375,-0.037812359631061554,0.7782275676727295,0.02130768448114395
1780626355250015000,8.008014892578124,-0.03424319252371788,0.5387617349624634,-0.14547544717788696
1780626355260010000,8.018010009765625,-0.020649883896112442,0.3323315978050232,-0.26693421602249146
1780626355270005000,8.0280048828125,-0.0034583809319883585,0.19007806479930878,-0.32197538018226624
1780626355280001300,8.038001220703125,0.0068326061591506,0.11179577559232712,-0.31109291315078735
1780626355289996000,8.04799609375,-0.008350607939064503,0.11904516071081161,-0.25997617840766907
1780626355299992000,8.057991943359376,-0.06571350246667862,0.18434107303619385,-0.1923353523015976
1780626355309987000,8.067987060546875,-0.12122789025306702,0.24337217211723328,-0.15744660794734955
1780626355319982000,8.077982177734375,-0.13691070675849915,0.2496926486492157,-0.18847723305225372
1780626355329977000,8.08797705078125,-0.13434502482414246,0.21392560005187988,-0.2728954553604126
1780626355339972900,8.097972900390625,-0.13581456243991852,0.15777525305747986,-0.3562704920768738
1780626355349967400,8.10796728515625,-0.13123151659965515,0.08896396309137344,-0.41084960103034973
1780626355359963100,8.117963134765626,-0.1249975934624672,0.03472921997308731,-0.4294312596321106
1780626355369958100,8.127958251953125,-0.13077957928180695,0.032772861421108246,-0.42272141575813293
1780626355379953200,8.137953125,-0.1679173707962036,0.07901998609304428,-0.40310510993003845
1780626355389949200,8.14794921875,-0.21746493875980377,0.1418338268995285,-0.3816365599632263
1780626355399944200,8.157944091796875,-0.27283018827438354,0.23402634263038635,-0.34458136558532715
1780626355409939200,8.167939208984375,-0.331447958946228,0.32937097549438477,-0.30176305770874023
1780626355419935200,8.177935302734374,-0.38152286410331726,0.41249141097068787,-0.27780523896217346
1780626355429930200,8.18793017578125,-0.4083680510520935,0.48068246245384216,-0.31124362349510193
1780626355439925200,8.19792529296875,-0.4001588523387909,0.5233191251754761,-0.41042613983154297
1780626355449921000,8.207921142578124,-0.360098272562027,0.49133163690567017,-0.5349954962730408
1780626355459916000,8.217916015625,-0.3039524257183075,0.3918974697589874,-0.6443923115730286
1780626355469911000,8.2279111328125,-0.25052011013031006,0.29198524355888367,-0.7240428924560547
1780626355479907300,8.2379072265625,-0.16821350157260895,0.1342877596616745,-0.8387506008148193
1780626355489902300,8.24790234375,-0.13910914957523346,0.12270088493824005,-0.8557716608047485
1780626355499897300,8.2578974609375,-0.20638513565063477,0.2537377178668976,-0.7326808571815491
1780626355509893000,8.26789306640625,-0.27619510889053345,0.4493069648742676,-0.5878768563270569
1780626355519888100,8.27788818359375,-0.30891814827919006,0.5632185935974121,-0.4803335964679718
1780626355529883100,8.287883056640625,-0.3296884298324585,0.48272910714149475,-0.3873423933982849
1780626355539879200,8.297879150390624,-0.3249181807041168,0.2810060977935791,-0.3238755464553833
1780626355549874200,8.307874267578125,-0.2752765715122223,0.0232898760586977,-0.31387242674827576
1780626355559869200,8.317869140625,-0.23505298793315887,-0.23676487803459167,-0.3201601505279541
1780626355569865200,8.327865234375,-0.19087861478328705,-0.5228213667869568,-0.320576936006546
1780626355579860200,8.337860107421875,-0.15172800421714783,-0.7198388576507568,-0.31602346897125244
1780626355589855200,8.347855224609376,-0.13860900700092316,-0.7499259114265442,-0.2949245870113373
1780626355599851000,8.35785107421875,-0.15054157376289368,-0.6395043134689331,-0.22500301897525787
1780626355609846000,8.367845947265625,-0.16000404953956604,-0.4640677869319916,-0.13373489677906036
1780626355619841000,8.377841064453126,-0.16657939553260803,-0.2774989902973175,-0.05517031252384186
1780626355629837300,8.38783740234375,-0.17295579612255096,-0.1377679854631424,0.007149255834519863
1780626355639832300,8.397832275390625,-0.1734524816274643,-0.05444726347923279,0.0454242080450058
1780626355649827300,8.407827392578126,-0.17438432574272156,-0.018013887107372284,0.06951569765806198
1780626355659823000,8.417822998046875,-0.17067134380340576,-0.038246989250183105,0.07961440086364746
1780626355669818000,8.427818115234375,-0.15228115022182465,-0.10218708962202072,0.07202865183353424
1780626355679813000,8.437813232421876,-0.12574568390846252,-0.19564220309257507,0.0517265759408474
1780626355689809200,8.44780908203125,-0.11428529769182205,-0.3018874228000641,0.04711238294839859
1780626355699804200,8.45780419921875,-0.12314776331186295,-0.42144575715065,0.05736022815108299
1780626355709799200,8.467799072265626,-0.15251843631267548,-0.5446736812591553,0.07330697029829025
1780626355719795200,8.477795166015625,-0.1903957724571228,-0.6669154763221741,0.08054357767105103
1780626355729790200,8.487790283203125,-0.230127215385437,-0.7356140613555908,0.08895783871412277
1780626355739785200,8.49778515625,-0.2658766806125641,-0.705921471118927,0.11334706097841263
1780626355749781200,8.50778125,-0.29169708490371704,-0.5997843742370605,0.14853061735630035
1780626355759776000,8.51777587890625,-0.3132559061050415,-0.4847855865955353,0.18438288569450378
1780626355769771000,8.52777099609375,-0.3364451229572296,-0.3839484751224518,0.21306459605693817
1780626355779767300,8.537767333984375,-0.3658387064933777,-0.2929953932762146,0.23075518012046814
1780626355789762300,8.54776220703125,-0.3887898325920105,-0.21044591069221497,0.23075997829437256
1780626355799757300,8.55775732421875,-0.40938910841941833,-0.13763536512851715,0.18327315151691437
1780626355809753000,8.567753173828125,-0.4098663330078125,-0.084513820707798,0.096861831843853
1780626355819748000,8.577748046875,-0.4028979241847992,-0.05333299562335014,0.026282470673322678
1780626355829743000,8.5877431640625,-0.4056500196456909,-0.046120889484882355,0.00021944446780253202
1780626355839739100,8.5977392578125,-0.41515645384788513,-0.07283265888690948,-0.015030348673462868
1780626355849734100,8.607734130859376,-0.4330124258995056,-0.15918326377868652,-0.024210264906287193
1780626355859729400,8.6177294921875,-0.4639120101928711,-0.30248475074768066,-0.005906624719500542
1780626355869725200,8.62772509765625,-0.5085676312446594,-0.4476344883441925,0.019349196925759315
1780626355879720200,8.63772021484375,-0.5518719553947449,-0.5694112777709961,0.06085269898176193
1780626355889715200,8.647715087890624,-0.5825721025466919,-0.6581906676292419,0.1349828541278839
1780626355899711200,8.657711181640625,-0.600361704826355,-0.6763310432434082,0.2096371203660965
1780626355909706200,8.667706298828126,-0.6038203835487366,-0.6295233368873596,0.25528237223625183
1780626355919701000,8.677700927734374,-0.5792378187179565,-0.6110066175460815,0.2820623219013214
1780626355929697300,8.687697265625,-0.5259575247764587,-0.6535429358482361,0.30534687638282776
1780626355939692300,8.6976923828125,-0.4560559391975403,-0.7455756664276123,0.32546624541282654
1780626355949687300,8.707687255859375,-0.38671308755874634,-0.9269781708717346,0.302643746137619
1780626355959683000,8.71768310546875,-0.31802618503570557,-1.201737880706787,0.18537305295467377
1780626355969678000,8.727677978515626,-0.23909620940685272,-1.508674144744873,-0.03105192631483078
1780626355979673000,8.737673095703125,-0.17412759363651276,-1.6981528997421265,-0.22808030247688293
1780626355989669000,8.747669189453125,-0.17043432593345642,-1.742179036140442,-0.27438363432884216
1780626355999664000,8.7576640625,-0.2154848873615265,-1.5602123737335205,-0.1244330033659935
1780626356009659400,8.767659423828125,-0.24864336848258972,-1.1433438062667847,0.17144179344177246
1780626356019655200,8.7776552734375,-0.26577281951904297,-0.5366448163986206,0.472924143075943
1780626356029650200,8.787650146484374,-0.2918313145637512,0.14296141266822815,0.6717680096626282
1780626356039645200,8.797645263671875,-0.30250367522239685,0.7216471433639526,0.739636242389679
1780626356049641200,8.80764111328125,-0.28890904784202576,1.081831455230713,0.6971079707145691
1780626356059636200,8.81763623046875,-0.260498970746994,1.155043601989746,0.5919544100761414
1780626356069631000,8.827630859375,-0.22321870923042297,0.9165748357772827,0.47398993372917175
1780626356079627300,8.837627197265626,-0.1751481145620346,0.3930215835571289,0.38725078105926514
1780626356089622300,8.847622314453124,-0.11943904310464859,-0.29483404755592346,0.3366246223449707
1780626356099617300,8.8576171875,-0.08112122118473053,-0.9692899584770203,0.3060603141784668
1780626356109613000,8.867613037109376,-0.0872504860162735,-1.4872270822525024,0.2809341847896576
1780626356119608000,8.877608154296874,-0.1481308788061142,-1.7650080919265747,0.24750939011573792
1780626356129603000,8.88760302734375,-0.21848121285438538,-1.8212660551071167,0.19036221504211426
1780626356139599000,8.89759912109375,-0.25048547983169556,-1.6899397373199463,0.11690717935562134
1780626356149594000,8.907593994140624,-0.2504047751426697,-1.4280970096588135,0.06804189831018448
1780626356159589400,8.91758935546875,-0.23625195026397705,-1.0820993185043335,0.08648215979337692
1780626356169585200,8.927585205078126,-0.22109189629554749,-0.6934139132499695,0.14183250069618225
1780626356179580200,8.937580078125,-0.21028345823287964,-0.31673958897590637,0.16827476024627686
1780626356189575200,8.9475751953125,-0.18811610341072083,0.011136540211737156,0.14272332191467285
1780626356199571200,8.9575712890625,-0.16389785706996918,0.2777911424636841,0.07319751381874084
1780626356209566200,8.967566162109375,-0.1419840306043625,0.4589526653289795,-0.020538831129670143
1780626356219561200,8.977561279296875,-0.13634638488292694,0.5289376378059387,-0.11246529221534729
1780626356229557200,8.98755712890625,-0.14333079755306244,0.4878722131252289,-0.18742555379867554
1780626356239552300,8.99755224609375,-0.14914527535438538,0.3694704473018646,-0.21176311373710632
1780626356249547300,9.00754736328125,-0.14934660494327545,0.17864084243774414,-0.17910397052764893
1780626356259543300,9.017543212890626,-0.15261590480804443,-0.07027522474527359,-0.10171304643154144
1780626356269538000,9.0275380859375,-0.1602938026189804,-0.30432048439979553,-0.00381391285918653
1780626356279533000,9.037532958984375,-0.17492946982383728,-0.4156390130519867,0.08236172050237656
1780626356289529000,9.047529052734374,-0.21638023853302002,-0.443675696849823,0.11141441017389297
1780626356299524000,9.057524169921875,-0.2694450616836548,-0.4533192813396454,0.08711040019989014
1780626356309519400,9.067519287109375,-0.3203740119934082,-0.4640060067176819,0.04184119030833244
1780626356319515100,9.07751513671875,-0.3487238883972168,-0.46766865253448486,0.0033246902748942375
1780626356329510100,9.08751025390625,-0.3607933521270752,-0.39797747135162354,0.005913016386330128
1780626356339505200,9.097505126953125,-0.3719181716442108,-0.23917503654956818,0.04788123816251755
1780626356349502000,9.107501953125,-0.37965625524520874,-0.017668476328253746,0.09869062155485153
1780626356359496700,9.11749658203125,-0.3600042462348938,0.2292880415916443,0.14723631739616394
1780626356369491700,9.12749169921875,-0.29868441820144653,0.40949857234954834,0.19279368221759796
1780626356379487700,9.13748779296875,-0.2198101282119751,0.4762698709964752,0.22348181903362274
1780626356389482800,9.147482666015625,-0.15278847515583038,0.4804374575614929,0.22861319780349731
1780626356399477800,9.157477783203126,-0.10985007137060165,0.46961143612861633,0.19866569340229034
1780626356409473800,9.167473876953125,-0.08787179738283157,0.45243164896965027,0.14485278725624084
1780626356419468800,9.17746875,-0.0935983955860138,0.40744075179100037,0.1065051406621933
1780626356429463800,9.1874638671875,-0.10639701038599014,0.3055010735988617,0.11448875814676285
1780626356439459800,9.1974599609375,-0.10488966107368469,0.1440431922674179,0.17430709302425385
1780626356449454800,9.207454833984375,-0.07887057960033417,-0.021247498691082,0.2561526894569397
1780626356459449900,9.217449951171876,-0.04837498813867569,-0.1147012785077095,0.31339120864868164
1780626356469445600,9.227445556640625,-0.03021196462213993,-0.09682907164096832,0.31867358088493347
1780626356479440600,9.237440673828125,-0.02575383335351944,-0.005051217507570982,0.2786100506782532
1780626356489436000,9.247435791015626,-0.014162956736981869,0.10186298191547394,0.21896110475063324
1780626356499432000,9.257431884765625,0.006110090296715498,0.1833876669406891,0.16031324863433838
1780626356509427000,9.267427001953125,0.04026459902524948,0.21926471590995789,0.11942706257104874
1780626356519421700,9.277421630859376,0.0694350004196167,0.2279234379529953,0.12662984430789948
1780626356529417700,9.287417724609375,0.08233828097581863,0.18296130001544952,0.18066458404064178
1780626356539412700,9.297412841796875,0.08309435099363327,0.062258847057819366,0.23427827656269073
1780626356549407700,9.30740771484375,0.08318863064050674,-0.07014632970094681,0.26169127225875854
1780626356559403800,9.31740380859375,0.08506190031766891,-0.14506185054779053,0.24911154806613922
1780626356569398800,9.327398681640625,0.08727551996707916,-0.10426115989685059,0.2029925286769867
1780626356579393800,9.337393798828124,0.07426624000072479,0.022191854193806648,0.1422269195318222
1780626356589389800,9.347389892578125,0.056534916162490845,0.17523519694805145,0.09167958796024323
1780626356599384800,9.357384765625,0.03226126730442047,0.2898448705673218,0.06603866815567017
1780626356609379800,9.3673798828125,0.011086473241448402,0.318667471408844,0.062063369899988174
1780626356619375600,9.377375732421875,-0.006818757392466068,0.26885542273521423,0.0691274031996727
1780626356629370600,9.38737060546875,-0.030060430988669395,0.20569457113742828,0.057125870138406754
1780626356639366000,9.397365966796874,-0.06448924541473389,0.1936269849538803,0.013217268511652946
1780626356649362000,9.40736181640625,-0.09920887649059296,0.2579441964626312,-0.03454412892460823
1780626356659357000,9.41735693359375,-0.1325599104166031,0.3440508544445038,-0.06388656795024872
1780626356669352000,9.42735205078125,-0.17051288485527039,0.39639100432395935,-0.05869021266698837
1780626356679347700,9.43734765625,-0.21175485849380493,0.38520121574401855,-0.011864382773637772
1780626356689342700,9.4473427734375,-0.228488028049469,0.3142136037349701,0.052136704325675964
1780626356699337700,9.457337646484374,-0.2039872258901596,0.21615013480186462,0.09258239716291428
1780626356709334000,9.467333984375,-0.15445615351200104,0.10429790616035461,0.0713234469294548
1780626356719328800,9.477328857421876,-0.0964122861623764,0.00806325301527977,0.010929613374173641
1780626356729323800,9.48732373046875,-0.04965277388691902,-0.05188663303852081,-0.04734647646546364
1780626356739319800,9.49731982421875,-0.028477447107434273,-0.07665242999792099,-0.08021414279937744
1780626356749314800,9.507314697265626,-0.03719397261738777,-0.0587858185172081,-0.07629796862602234
1780626356759309800,9.517309814453125,-0.0617925263941288,0.010102967731654644,-0.05685103312134743
1780626356769305600,9.5273056640625,-0.08516629040241241,0.15884025394916534,-0.041304029524326324
1780626356779300600,9.537300537109376,-0.08477693796157837,0.38783907890319824,-0.024826254695653915
1780626356789295900,9.5472958984375,-0.05820125341415405,0.6387964487075806,-0.006421413738280535
1780626356799292000,9.5572919921875,-0.02876213937997818,0.8424212336540222,-0.002953978255391121
1780626356809287000,9.567286865234376,-0.0027169568929821253,0.9227368235588074,-0.028244687244296074
1780626356819282000,9.577281982421875,-0.0016186692519113421,0.8500716686248779,-0.06711219251155853
1780626356829277700,9.587277587890625,-0.025300296023488045,0.6236087083816528,-0.09658992290496826
1780626356839272700,9.597272705078124,-0.053477074950933456,0.295354425907135,-0.08753464370965958
1780626356849267700,9.607267822265625,-0.07563883066177368,-0.06945604085922241,-0.02660045213997364
1780626356859264000,9.617263916015625,-0.08528880029916763,-0.38909581303596497,0.06757744401693344
1780626356869259000,9.627259033203124,-0.07674404978752136,-0.5991374850273132,0.17223834991455078
1780626356879253800,9.637253662109375,-0.05570986866950989,-0.6976549625396729,0.2564166188240051
1780626356889249800,9.647249755859375,-0.031369905918836594,-0.7234692573547363,0.3018767535686493
1780626356899244800,9.657244873046874,0.004307130351662636,-0.7104381918907166,0.30059337615966797
1780626356909239800,9.66723974609375,0.05825984477996826,-0.6454804539680481,0.2518221139907837
1780626356919235600,9.677235595703126,0.12973828613758087,-0.5467541813850403,0.16923482716083527
1780626356929230600,9.687230712890624,0.20458589494228363,-0.45404765009880066,0.07316742092370987
1780626356939225900,9.697225830078125,0.2595066726207733,-0.3996480703353882,-0.015396267175674438
1780626356949222000,9.707221923828126,0.27006715536117554,-0.38099342584609985,-0.08270473033189774
1780626356959217000,9.717216796875,0.2375478446483612,-0.3907022476196289,-0.12074532359838486
1780626356969212000,9.7272119140625,0.16963696479797363,-0.3930777907371521,-0.13128797709941864
1780626356979207000,9.73720703125,0.08534925431013107,-0.3652125895023346,-0.1227770522236824
1780626356989202700,9.74720263671875,0.012469985522329807,-0.3413200378417969,-0.09975136071443558
1780626356999197700,9.75719775390625,-0.027279557660222054,-0.37346068024635315,-0.06304953992366791
1780626357009192700,9.767192626953126,-0.03991306200623512,-0.44492101669311523,-0.029698241502046585
1780626357019189000,9.77718896484375,-0.04295013099908829,-0.5164713263511658,-0.011382617056369781
1780626357029183700,9.787183837890625,-0.04543645679950714,-0.5785336494445801,-0.01732918992638588
1780626357039178800,9.7971787109375,-0.043603405356407166,-0.6402838230133057,-0.029812756925821304
1780626357049174800,9.8071748046875,-0.04887939244508743,-0.7280113101005554,-0.023265907540917397
1780626357059169800,9.817169677734375,-0.056658752262592316,-0.9267838001251221,0.013456420041620731
1780626357069164800,9.827164794921876,-0.05233537778258324,-1.1929680109024048,0.05275455862283707
1780626357079160600,9.83716064453125,-0.02118651196360588,-1.2942472696304321,0.025797242298722267
1780626357089155800,9.84715576171875,0.014197577722370625,-1.0585048198699951,-0.056469399482011795
1780626357099150800,9.85715087890625,0.029473204165697098,-0.5294819474220276,-0.12272325903177261
1780626357109147000,9.86714697265625,0.02304965816438198,0.07773314416408539,-0.14693166315555573
1780626357119142000,9.877141845703125,-0.016165386885404587,0.5294180512428284,-0.15942826867103577
1780626357129137000,9.887136962890626,-0.07490087300539017,0.6742812395095825,-0.1868143528699875
1780626357139132700,9.897132568359375,-0.15361087024211884,0.5070328712463379,-0.21950839459896088
1780626357149127700,9.907127685546875,-0.23416802287101746,0.12957929074764252,-0.22710612416267395
1780626357159122700,9.917122802734376,-0.2959009110927582,-0.3332597315311432,-0.18197380006313324
1780626357169119000,9.927118896484375,-0.3212621808052063,-0.7210034728050232,-0.0938015952706337
1780626357179114000,9.937114013671875,-0.3272060751914978,-0.8867106437683105,0.0059654805809259415
1780626357189108700,9.947108642578126,-0.34058794379234314,-0.7913934588432312,0.06753004342317581
1780626357199104800,9.957104736328125,-0.35260066390037537,-0.5028035044670105,0.06686238944530487
1780626357209099800,9.967099853515625,-0.3490533232688904,-0.14417554438114166,-0.00020666129421442747
1780626357219094800,9.9770947265625,-0.3344123363494873,0.1904280036687851,-0.10690940171480179
1780626357229090800,9.9870908203125,-0.3218938708305359,0.4170379638671875,-0.19468559324741364
1780626357239085800,9.9970859375,-0.32892727851867676,0.5113444924354553,-0.22974158823490143
1780626357249080800,10.007080810546874,-0.3528752326965332,0.5129628777503967,-0.20916147530078888
1780626357259076900,10.017076904296875,-0.3804549276828766,0.4469956159591675,-0.15976250171661377
1780626357269072000,10.02707177734375,-0.38530027866363525,0.3392486274242401,-0.11008575558662415
1780626357279067000,10.03706689453125,-0.3575197756290436,0.20623493194580078,-0.10258176922798157
1780626357289062700,10.047062744140625,-0.3020211160182953,0.10333304852247238,-0.1328326165676117
1780626357299057700,10.0570576171875,-0.24269093573093414,0.10098253935575485,-0.15901973843574524
1780626357309052700,10.067052734375,-0.20811805129051208,0.16681961715221405,-0.16670562326908112
1780626357319049000,10.077049072265625,-0.2053781896829605,0.2367347776889801,-0.15787938237190247
1780626357329044000,10.0870439453125,-0.23450811207294464,0.31601041555404663,-0.14614549279212952
1780626357339039000,10.0970390625,-0.28147536516189575,0.4043805003166199,-0.14054299890995026
1780626357349034500,10.107034423828125,-0.3237927258014679,0.47758814692497253,-0.12572915852069855
1780626357359029500,10.117029541015626,-0.345420241355896,0.5307371020317078,-0.09252141416072845
1780626357369024500,10.1270244140625,-0.33391591906547546,0.5318159461021423,-0.07059667259454727
1780626357379020800,10.137020751953125,-0.2801741361618042,0.4893931448459625,-0.06960251182317734
1780626357389015600,10.147015625,-0.1955181062221527,0.404035359621048,-0.0876757875084877
1780626357399010600,10.157010498046875,-0.1057479977607727,0.30744409561157227,-0.11630184203386307
1780626357409006600,10.167006591796875,-0.03181412070989609,0.2365744560956955,-0.14067669212818146
1780626357419001600,10.177001708984376,0.011573298834264278,0.2533065676689148,-0.14115339517593384
1780626357428996600,10.18699658203125,0.03496464341878891,0.30873334407806396,-0.13054202497005463
1780626357438992400,10.196992431640625,0.0490487702190876,0.3284873366355896,-0.10753045231103897
1780626357448987400,10.2069873046875,0.04436160624027252,0.30624380707740784,-0.0851665586233139
1780626357458982700,10.216982666015625,0.026859311386942863,0.258975625038147,-0.06379389017820358
1780626357468978700,10.226978759765625,0.0027174896094948053,0.23645222187042236,-0.03900172933936119
1780626357478973700,10.2369736328125,-0.01612251065671444,0.28260159492492676,-0.02521187998354435
1780626357488968700,10.24696875,-0.010658769868314266,0.28199946880340576,-0.050940945744514465
1780626357498964500,10.256964599609375,0.016260195523500443,0.1838449388742447,-0.1274234652519226
1780626357508959500,10.26695947265625,0.03380883112549782,0.09940967708826065,-0.19990645349025726
1780626357518954500,10.27695458984375,0.016703346744179726,0.10406035929918289,-0.20849648118019104
1780626357528950800,10.28695068359375,-0.02654346078634262,0.17275552451610565,-0.15273761749267578
1780626357538945800,10.29694580078125,-0.05511811375617981,0.2642337679862976,-0.07647693157196045
1780626357548940500,10.3069404296875,-0.06741872429847717,0.2096560299396515,-0.022302376106381416
1780626357558936600,10.3169365234375,-0.0485672689974308,-0.010004431009292603,-0.026798591017723083
1780626357568931600,10.326931640625,-0.002010686555877328,-0.2766667604446411,-0.07723087072372437
1780626357578926600,10.336926513671875,0.048887915909290314,-0.3661223351955414,-0.12872815132141113
1780626357588922600,10.346922607421876,0.08683370053768158,-0.3036384582519531,-0.11531806737184525
1780626357598917400,10.35691748046875,0.1073853150010109,-0.20867465436458588,-0.0683542862534523
1780626357608912600,10.36691259765625,0.09733188152313232,-0.05185014754533768,-0.04085928201675415
1780626357618908700,10.37690869140625,0.06443890929222107,0.1129760891199112,-0.05709577724337578
1780626357628903700,10.386903564453124,0.041372206062078476,0.23096983134746552,-0.07932385057210922
1780626357638898700,10.396898681640625,0.02520681917667389,0.36035606265068054,-0.10433812439441681
1780626357648894500,10.40689453125,0.017055949196219444,0.43106749653816223,-0.12879472970962524
1780626357658889500,10.416889404296874,0.014013021253049374,0.4015016257762909,-0.14429166913032532
1780626357668884500,10.426884521484375,0.023925838991999626,0.2615426480770111,-0.1252727061510086
1780626357678880800,10.436880859375,0.040225185453891754,0.05758446827530861,-0.07656294852495193
1780626357688875800,10.446875732421875,0.04453897103667259,-0.07127045094966888,-0.03554521128535271
1780626357698870800,10.456870849609375,0.012281433679163456,-0.056943442672491074,-0.00983425509184599
1780626357708866600,10.466866455078126,-0.04104330763220787,0.07306995242834091,0.002394448034465313
1780626357718861600,10.476861572265625,-0.07437862455844879,0.1316903829574585,-0.013982661068439484
1780626357728856600,10.486856689453125,-0.04596962034702301,0.023608922958374023,-0.039075497537851334
1780626357738852600,10.4968525390625,0.03750929236412048,-0.056960754096508026,-0.06631031632423401
1780626357748847400,10.506847412109375,0.12271340191364288,-0.0646466389298439,-0.11452578008174896
1780626357758842600,10.516842529296875,0.1575680524110794,-0.028838040307164192,-0.1685541272163391
1780626357768838700,10.526838623046874,0.1479836106300354,0.05770883709192276,-0.19510583579540253
1780626357778833700,10.536833740234375,0.10066375881433487,0.2184433937072754,-0.17997881770133972
1780626357788828700,10.54682861328125,0.013029249384999275,0.42311689257621765,-0.1385221928358078
1780626357798824400,10.556824462890624,-0.07657600194215775,0.5384703874588013,-0.08419104665517807
1780626357808819500,10.5668193359375,-0.10365502536296844,0.522191047668457,-0.09286335855722427
1780626357818814500,10.576814453125,-0.07999923080205917,0.3982011675834656,-0.17836761474609375
1780626357828809500,10.5868095703125,-0.09111446142196655,0.3222648501396179,-0.2506183683872223
1780626357838805800,10.5968056640625,-0.11642647534608841,0.2843475639820099,-0.2735005021095276
1780626357848800800,10.60680078125,-0.08526456356048584,0.2124725878238678,-0.21671047806739807
1780626357858795500,10.61679541015625,0.0009470200748182833,0.15861068665981293,-0.1253904104232788
1780626357868791600,10.62679150390625,0.09983871132135391,0.03147563338279724,-0.10069065541028976
1780626357878786600,10.63678662109375,0.17707811295986176,-0.1517423838376999,-0.11604644358158112
1780626357888781600,10.646781494140624,0.21768918633460999,-0.2107255458831787,-0.11496493220329285
1780626357898777600,10.656777587890625,0.20761018991470337,-0.11508344858884811,-0.08223788440227509
1780626357908772600,10.666772705078126,0.16538310050964355,0.08936130255460739,-0.0036096484400331974
1780626357918767600,10.676767578125,0.11938684433698654,0.32066988945007324,0.0615999810397625
1780626357928763600,10.686763671875,0.08462167531251907,0.5316340327262878,0.062430620193481445
1780626357938758700,10.696758544921876,0.057612963020801544,0.6652967929840088,0.04325586184859276
1780626357948753700,10.706753662109374,0.04801706224679947,0.63801109790802,0.037879738956689835
1780626357958749400,10.71674951171875,0.06628687679767609,0.49491971731185913,0.027768248692154884
1780626357968744400,10.726744384765626,0.10017506778240204,0.32666680216789246,0.01321167591959238
1780626357978739500,10.736739501953124,0.1264817714691162,0.17181196808815002,0.013107546605169773
1780626357988735700,10.74673583984375,0.1344507485628128,-0.01110671367496252,0.037630997598171234
1780626357998730800,10.756730712890626,0.13341504335403442,-0.16983351111412048,0.09172353148460388
1780626358008725800,10.766725830078125,0.1160975769162178,-0.17409776151180267,0.14288631081581116
1780626358018721500,10.776721435546875,0.08649387955665588,0.0026964505668729544,0.15609478950500488
1780626358028716500,10.786716552734376,0.06441707164049149,0.2850314676761627,0.14683657884597778
1780626358038711600,10.796711669921875,0.062367770820856094,0.5460870265960693,0.11695298552513123
1780626358048707600,10.80670751953125,0.07551553100347519,0.6849245429039001,0.085896797478199
1780626358058702600,10.81670263671875,0.09686156362295151,0.6786967515945435,0.07410378754138947
1780626358068697600,10.826697509765625,0.1271664798259735,0.556268572807312,0.06740940362215042
1780626358078693600,10.836693603515625,0.14386102557182312,0.32584360241889954,0.02491680160164833
1780626358088688600,10.846688720703124,0.1438858062028885,0.09133923053741455,-0.04198500141501427
1780626358098683600,10.85668359375,0.13130369782447815,-0.04161695018410683,-0.07738320529460907
1780626358108679400,10.866679443359375,0.11532100290060043,-0.08539239317178726,-0.06959505379199982
1780626358118674400,10.87667431640625,0.10378711670637131,-0.024639831855893135,-0.03286340832710266
1780626358128669400,10.88666943359375,0.10265766829252243,0.058333080261945724,-0.011573032476007938
1780626358138665700,10.896665771484376,0.10619035363197327,0.12371208518743515,-0.02046985551714897
1780626358148660700,10.90666064453125,0.10193115472793579,0.1964384913444519,-0.04680132865905762
1780626358158655700,10.91665576171875,0.0868973508477211,0.20338481664657593,-0.07146485894918442
1780626358168651500,10.926651611328126,0.06225857883691788,0.17830395698547363,-0.07069654017686844
1780626358178646500,10.936646484375,0.03754550963640213,0.1393728107213974,-0.07440925389528275
1780626358188641500,10.9466416015625,0.03720782324671745,0.08028765022754669,-0.06928665935993195
1780626358198637600,10.956637451171876,0.05914321541786194,0.0062768044881522655,-0.021812621504068375
1780626358208632800,10.9666328125,0.0804426446557045,-0.1002778708934784,0.007435013074427843
1780626358218627600,10.976627685546875,0.07929854840040207,-0.21368804574012756,-0.018371017649769783
1780626358228623600,10.98662353515625,0.07080626487731934,-0.25164929032325745,-0.055624380707740784
1780626358238618600,10.99661865234375,0.05690882354974747,-0.17646370828151703,-0.0654224157333374
1780626358248613600,11.006613525390625,0.0368027538061142,-0.10319669544696808,-0.09170195460319519
1780626358258608600,11.016608642578126,0.02467072568833828,-0.03021489456295967,-0.12245720624923706
1780626358268604400,11.0266044921875,0.02347629703581333,0.09038422256708145,-0.13086454570293427
1780626358278599400,11.036599365234375,0.03418513387441635,0.15553739666938782,-0.11479315906763077
1780626358288594400,11.046594482421876,0.055928777903318405,0.13802258670330048,-0.07472297549247742
1780626358298590700,11.0565908203125,0.07391976565122604,0.06442612409591675,-0.03949228301644325
1780626358308585700,11.066585693359375,0.08962282538414001,-0.06353050470352173,-0.03696467727422714
1780626358318580700,11.076580810546876,0.08662810176610947,-0.13274233043193817,-0.06736546009778976
1780626358328576500,11.086576416015625,0.05636207386851311,-0.08236891031265259,-0.1299833059310913
1780626358338571500,11.096571533203125,0.04175170883536339,0.050938013941049576,-0.18443669378757477
1780626358348566800,11.10656689453125,0.0853966549038887,0.043526437133550644,-0.1789063662290573
1780626358358562800,11.116562744140625,0.14378193020820618,-0.08273109793663025,-0.12736141681671143
1780626358368557600,11.1265576171875,0.1782807856798172,-0.17489884793758392,-0.0708848237991333
1780626358378552800,11.136552734375,0.18491072952747345,-0.19782359898090363,-0.03947550430893898
1780626358388548900,11.146548828125,0.18067923188209534,-0.16353380680084229,-0.028863074257969856
1780626358398544000,11.1565439453125,0.1806805580854416,-0.10422041267156601,-0.03558436036109924
1780626358408539000,11.166538818359374,0.17110463976860046,0.009455819614231586,-0.045464418828487396
1780626358418534700,11.17653466796875,0.14986646175384521,0.02569817192852497,-0.09106599539518356
1780626358428529700,11.18652978515625,0.12438719719648361,-0.044194892048835754,-0.14957857131958008
1780626358438524700,11.196524658203124,0.12046170234680176,-0.0791398286819458,-0.1496850997209549
1780626358448521000,11.20652099609375,0.13307709991931915,-0.10849504917860031,-0.09987466782331467
1780626358458516000,11.216515869140625,0.14697186648845673,-0.18357302248477936,-0.0626724362373352
1780626358468511000,11.226510986328124,0.14823900163173676,-0.23175600171089172,-0.08075530081987381
1780626358478506800,11.2365068359375,0.13909317553043365,-0.17987602949142456,-0.12663118541240692
1780626358488501800,11.246501708984376,0.1264607310295105,-0.027239609509706497,-0.1604226976633072
1780626358498496800,11.256496826171874,0.12850311398506165,0.14548635482788086,-0.19886569678783417
1780626358508492800,11.266492919921875,0.16340596973896027,0.20761071145534515,-0.1759268194437027
1780626358518487800,11.27648779296875,0.22034968435764313,0.26741093397140503,-0.08731412887573242
1780626358528482800,11.28648291015625,0.2720347046852112,0.26927700638771057,-0.013649499043822289
1780626358538478800,11.296478759765625,0.3059926927089691,0.13917280733585358,0.004434163216501474
1780626358548473900,11.306473876953126,0.3225490152835846,-0.056713081896305084,-0.019389675930142403
1780626358558468900,11.31646875,0.31607168912887573,-0.1805948168039322,-0.06941582262516022
1780626358568464600,11.326464599609375,0.3074938952922821,-0.16864840686321259,-0.12040950357913971
1780626358578459600,11.336459716796876,0.29150694608688354,-0.07054846733808517,-0.17561788856983185
1780626358588454700,11.34645458984375,0.28037387132644653,0.0574055016040802,-0.22290924191474915
1780626358598451000,11.356450927734375,0.27114787697792053,0.23942163586616516,-0.25788772106170654
1780626358608446000,11.366446044921876,0.27656102180480957,0.4415859282016754,-0.2626670300960541
1780626358618441000,11.37644091796875,0.30893173813819885,0.5115687251091003,-0.2753599286079407
1780626358628436000,11.38643603515625,0.37524285912513733,0.2590145170688629,-0.32045257091522217
1780626358638431700,11.396431640625,0.43187257647514343,-0.14664269983768463,-0.3016165792942047
1780626358648426800,11.4064267578125,0.4406719207763672,-0.2693451941013336,-0.18639597296714783
1780626358658421800,11.416421875,0.40766870975494385,-0.03973063454031944,-0.022478677332401276
1780626358668417800,11.426417724609376,0.3501646816730499,0.287030965089798,0.1201394572854042
1780626358678412800,11.436412841796875,0.2754038870334625,0.44388049840927124,0.1999455988407135
1780626358688407800,11.44640771484375,0.20102418959140778,0.43215328454971313,0.24205204844474792
1780626358698403800,11.45640380859375,0.14200161397457123,0.3211761713027954,0.2602635324001312
1780626358708398800,11.46639892578125,0.13058356940746307,0.10966577380895615,0.24100328981876373
1780626358718393900,11.476393798828125,0.1791551113128662,-0.17449164390563965,0.19664408266544342
1780626358728389600,11.4863896484375,0.24592162668704987,-0.3784556984901428,0.1591734141111374
1780626358738384600,11.496384521484375,0.29075247049331665,-0.4479636549949646,0.14349165558815002
1780626358748379600,11.506379638671875,0.3035641312599182,-0.37336665391921997,0.151097372174263
1780626358758376000,11.5163759765625,0.29266035556793213,-0.1883925497531891,0.15212774276733398
1780626358768371000,11.526370849609375,0.27458521723747253,-0.006246977020055056,0.14231613278388977
1780626358778366000,11.536365966796875,0.2594060003757477,0.033295638859272,0.09610256552696228
1780626358788361700,11.54636181640625,0.2508111894130707,-0.036256808787584305,0.030903054401278496
1780626358798356700,11.556356689453125,0.24797731637954712,-0.12993589043617249,-0.004021373111754656
1780626358808351700,11.566351806640625,0.23765037953853607,-0.18958617746829987,-0.02664865553379059
1780626358818347800,11.57634765625,0.2084307074546814,-0.18180549144744873,-0.03736494854092598
1780626358828343000,11.586343017578125,0.17429830133914948,-0.07526732236146927,-0.023739151656627655
1780626358838337800,11.596337890625,0.1362808793783188,0.09062284231185913,0.013609285466372967
1780626358848333800,11.606333740234374,0.10910838097333908,0.23538029193878174,0.029228990897536278
1780626358858328800,11.616328857421875,0.09401437640190125,0.2940084636211395,0.016099341213703156
1780626358868323800,11.62632373046875,0.08953414112329483,0.24732564389705658,0.010122675448656082
1780626358878318800,11.63631884765625,0.09269904345273972,0.08902841061353683,-0.004993959795683622
1780626358888314600,11.646314697265625,0.09485780447721481,-0.12906797230243683,-0.029143771156668663
1780626358898309600,11.6563095703125,0.10284222662448883,-0.3111405670642853,-0.046052444726228714
1780626358908304600,11.6663046875,0.12082255631685257,-0.34151631593704224,-0.008159392513334751
1780626358918301000,11.676301025390625,0.13006852567195892,-0.2897021174430847,0.07630196213722229
1780626358928296000,11.6862958984375,0.1066388264298439,-0.23435844480991364,0.16587471961975098
1780626358938291000,11.696291015625,0.060930728912353516,-0.1734793782234192,0.22825607657432556
1780626358948286700,11.70628662109375,0.033613886684179306,-0.13639326393604279,0.23613770306110382
1780626358958281700,11.71628173828125,0.03886377438902855,-0.07150054723024368,0.24424462020397186
1780626358968276700,11.72627685546875,0.04712170735001564,0.003522563260048628,0.2500455379486084
1780626358978273000,11.73627294921875,0.050519634038209915,0.017183514311909676,0.2328803837299347
1780626358988267800,11.746267822265626,0.05974934995174408,-0.021030183881521225,0.19692584872245789
1780626358998262800,11.7562626953125,0.0818951353430748,-0.06328922510147095,0.1767052710056305
1780626359008258800,11.7662587890625,0.09198318421840668,-0.11991335451602936,0.1461353749036789
1780626359018253800,11.77625390625,0.08870323747396469,-0.10122781991958618,0.10710088908672333
1780626359028248800,11.786248779296875,0.09341809898614883,-0.01763358898460865,0.06560803949832916
1780626359038244600,11.79624462890625,0.08586324006319046,0.26034823060035706,0.11734180897474289
1780626359048239600,11.806239501953126,0.05001309886574745,1.4196856021881104,0.4249270558357239
1780626359058234600,11.816234619140625,0.031375765800476074,2.733990430831909,0.6523905992507935
1780626359068231000,11.82623095703125,0.12497229874134064,2.899942636489868,0.4549691081047058
1780626359078226000,11.836225830078124,0.39032620191574097,2.349323034286499,0.15843677520751953
1780626359088221000,11.846220947265625,0.7243617177009583,1.7108818292617798,0.002258626976981759
1780626359098216700,11.856216796875,0.9026502370834351,0.9745563864707947,-0.042871568351984024
1780626359108211700,11.866211669921874,0.7598488330841064,0.22169829905033112,0.0009326389990746975
1780626359118206700,11.876206787109375,0.33504778146743774,-0.47484642267227173,0.12562690675258636
1780626359128203000,11.886203125,-0.02088317833840847,-1.0814332962036133,0.247929647564888
1780626359138198000,11.896197998046874,-0.11068923026323318,-1.5574461221694946,0.2934127151966095
1780626359148192800,11.90619287109375,-0.05104374140501022,-1.7914535999298096,0.2509792149066925
1780626359158187800,11.916187744140625,0.019644008949398994,-1.7982784509658813,0.1363794058561325
1780626359168183800,11.926183837890624,0.042866241186857224,-1.6319224834442139,-0.004038417246192694
1780626359178178800,11.9361787109375,0.021087974309921265,-1.3315455913543701,-0.09850233793258667
1780626359188173800,11.946173828125,-0.02207946963608265,-0.9443454742431641,-0.085121288895607
1780626359198169600,11.956169677734374,-0.07176127284765244,-0.5242275595664978,0.03514280542731285
1780626359208164600,11.96616455078125,-0.09886159747838974,-0.08946570008993149,0.2133610099554062
1780626359218159900,11.976159912109376,-0.1114085465669632,0.33586031198501587,0.36779773235321045
1780626359228156000,11.986156005859375,-0.1281486451625824,0.6781547665596008,0.432649701833725
1780626359238151000,11.99615087890625,-0.13982927799224854,0.8412305116653442,0.40126168727874756
1780626359248146000,12.00614599609375,-0.12907063961029053,0.8181406855583191,0.3218374252319336
1780626359258141700,12.0161416015625,-0.09652254730463028,0.6642139554023743,0.25260987877845764
1780626359268136700,12.02613671875,-0.04662289470434189,0.3554409146308899,0.18636055290699005
1780626359278131700,12.036131591796876,0.026990871876478195,-0.013821805827319622,0.11357396841049194
1780626359288128000,12.0461279296875,0.1026129275560379,-0.3157334625720978,0.03633670136332512
1780626359298123000,12.056123046875,0.1726364940404892,-0.47409114241600037,-0.03512603044509888
1780626359308117800,12.06611767578125,0.20459015667438507,-0.5006005167961121,-0.09530282020568848
1780626359318113800,12.07611376953125,0.21767958998680115,-0.4042995274066925,-0.13591282069683075
1780626359328108800,12.08610888671875,0.21557623147964478,-0.2152625173330307,-0.13943353295326233
1780626359338103800,12.096103759765626,0.18663166463375092,-0.008957808837294579,-0.09196534007787704
1780626359348099300,12.106099365234375,0.13975976407527924,0.10647185146808624,-0.006059756502509117
1780626359358094300,12.11609423828125,0.11265357583761215,0.0944407507777214,0.07700636982917786
1780626359368089300,12.12608935546875,0.10463453084230423,0.05290529131889343,0.1286218911409378
1780626359378085400,12.13608544921875,0.09223458915948868,0.055798549205064774,0.12213336676359177
1780626359388080400,12.146080322265625,0.06408631056547165,0.08746806532144547,0.07539169490337372
1780626359398075400,12.156075439453126,0.04814276099205017,0.10022460669279099,0.017730792984366417
1780626359408070400,12.1660703125,0.0521705262362957,0.015018630772829056,-0.03464879095554352
1780626359418066200,12.176066162109375,0.07524308562278748,-0.11680171638727188,-0.06318775564432144
1780626359428061200,12.186061279296876,0.09248705953359604,-0.1959356814622879,-0.07413680851459503
1780626359438056400,12.196056396484375,0.11660490930080414,-0.18854141235351562,-0.08225652575492859
1780626359448052500,12.206052490234375,0.14154568314552307,-0.15435175597667694,-0.10323264449834824
1780626359458047500,12.216047607421874,0.1570705771446228,-0.13422891497612,-0.12891963124275208
1780626359468042500,12.22604248046875,0.1604226976633072,-0.1244170293211937,-0.1348390430212021
1780626359478038300,12.236038330078125,0.1426868438720703,-0.12942136824131012,-0.10439565032720566
1780626359488033300,12.246033203125,0.1160014346241951,-0.1489788293838501,-0.049551308155059814
1780626359498028300,12.2560283203125,0.10714402794837952,-0.12472409009933472,0.02558232471346855
1780626359508024600,12.266024658203126,0.10351920127868652,-0.0699511244893074,0.08354523032903671
1780626359518019300,12.276019287109374,0.10955392569303513,-0.057011619210243225,0.08946170657873154
1780626359528014300,12.286014404296875,0.12842801213264465,-0.07296288758516312,0.03960573300719261
1780626359538010400,12.29601025390625,0.14031024277210236,-0.10973608493804932,-0.03391695395112038
1780626359548005400,12.30600537109375,0.1582610160112381,-0.18247713148593903,-0.09039434790611267
1780626359558000400,12.31600048828125,0.1759081780910492,-0.31324392557144165,-0.12385749816894531
1780626359567996200,12.32599609375,0.1966579407453537,-0.44447678327560425,-0.11131613701581955
1780626359577991200,12.3359912109375,0.21810676157474518,-0.4277481436729431,-0.057617224752902985
1780626359587986200,12.345986083984375,0.22226156294345856,-0.24438470602035522,-0.028110463172197342
1780626359597981400,12.3559814453125,0.21066269278526306,0.05626460537314415,-0.03988403454422951
1780626359607977500,12.3659775390625,0.19324882328510284,0.36321309208869934,-0.06933034211397171
