time,seconds_elapsed,z,y,x
1780626347299970300,0.05797021484375,-0.628606379032135,-0.009691615588963032,0.24416357278823853
1780626347309965300,0.06796533203125,-0.9830057621002197,-0.2425369918346405,0.37732818722724915
1780626347319960300,0.077960205078125,-1.451461911201477,-0.6204252243041992,0.5642408728599548
1780626347329956600,0.08795654296875,-2.0300962924957275,-1.1057614088058472,0.7989054322242737
1780626347339950800,0.097950927734375,-2.620943546295166,-1.594868540763855,1.0653982162475586
1780626347349945900,0.10794580078125,-3.099287509918213,-1.8491795063018799,1.3571699857711792
1780626347359941600,0.117941650390625,-3.04552960395813,-1.8429381847381592,1.661961555480957
1780626347369936600,0.1279365234375,-2.3318474292755127,-1.4227142333984375,1.7306299209594727
1780626347379932000,0.137931884765625,-1.342193365097046,-0.7301328182220459,1.3848518133163452
1780626347389928000,0.147927978515625,-0.4881007671356201,0.2468753159046173,0.759023904800415
1780626347399923000,0.1579228515625,-0.033748723566532135,0.9263728857040405,-0.05100637301802635
1780626347409918700,0.167918701171875,0.15659792721271515,1.1607601642608643,-0.7036929130554199
1780626347419913700,0.177913818359375,0.18938569724559784,1.4192732572555542,-1.1102691888809204
1780626347429908700,0.18790869140625,0.10670065134763718,1.4950757026672363,-1.3912055492401123
1780626347439904800,0.19790478515625,-0.05643926560878754,1.3248474597930908,-1.501312017440796
1780626347449900000,0.207900146484375,-0.2587202191352844,1.0257374048233032,-1.433232307434082
1780626347459894800,0.217894775390625,-0.4498744606971741,0.6604357957839966,-1.2021716833114624
1780626347469890800,0.227890869140625,-0.5519635677337646,0.426217645406723,-0.8355951905250549
1780626347479885800,0.2378857421875,-0.57001793384552,0.29702529311180115,-0.3982708752155304
1780626347489880800,0.247880859375,-0.5519616603851318,0.21636611223220825,0.05290013924241066
1780626347499876900,0.257876953125,-0.5431556701660156,0.03212382644414902,0.4737251400947571
1780626347509871600,0.26787158203125,-0.5759217739105225,-0.2355106621980667,0.8199113607406616
1780626347519866600,0.27786669921875,-0.6597381234169006,-0.46529698371887207,1.0444347858428955
1780626347529863000,0.28786279296875,-0.790273129940033,-0.6721929907798767,1.1329759359359741
1780626347539858000,0.29785791015625,-0.898685097694397,-0.7761090397834778,1.1537635326385498
1780626347549853700,0.307853759765625,-0.8090583682060242,-0.9707708954811096,1.2588369846343994
1780626347559848700,0.3178486328125,-0.5393240451812744,-0.364257276058197,1.3266581296920776
1780626347569843700,0.32784375,-0.2832312285900116,0.022392133250832558,1.3411825895309448
1780626347579839700,0.33783984375,-0.027522211894392967,0.3750186264514923,1.3007371425628662
1780626347589834800,0.347834716796875,0.224196657538414,0.45234400033950806,1.213607668876648
1780626347599830000,0.357830078125,0.3993660807609558,0.3182421326637268,1.097938060760498
1780626347609825800,0.36782568359375,0.29407694935798645,0.09032242000102997,0.8325839042663574
1780626347619820800,0.37782080078125,0.049262139946222305,0.2398112416267395,0.5744722485542297
1780626347629815800,0.38781591796875,-0.14897704124450684,0.49958738684654236,0.43667876720428467
1780626347639811800,0.397811767578125,-0.23513641953468323,0.6336426734924316,0.4350728988647461
1780626347649806800,0.407806884765625,-0.1577216386795044,0.5823652148246765,0.5296201705932617
1780626347659801600,0.417801513671875,-0.1543562114238739,0.4845643639564514,0.6388670206069946
1780626347669798000,0.4277978515625,-0.31860578060150146,0.47674670815467834,0.648642361164093
1780626347679793000,0.43779296875,-0.49008965492248535,0.5244819521903992,0.609795331954956
1780626347689788000,0.447787841796875,-0.5664635896682739,0.5512152314186096,0.5697606801986694
1780626347699783700,0.45778369140625,-0.5926624536514282,0.5611893534660339,0.5476324558258057
1780626347709778700,0.46777880859375,-0.5980929136276245,0.3559517562389374,0.4929722547531128
1780626347719774700,0.477774658203125,-0.5975648164749146,0.08907560259103775,0.44158467650413513
1780626347729769700,0.487769775390625,-0.3902674615383148,-0.1292828619480133,0.4976319372653961
1780626347739764700,0.4977646484375,0.11822879314422607,0.006326904520392418,0.6276927590370178
1780626347749760800,0.5077607421875,0.41939470171928406,0.05411868542432785,0.5969593524932861
1780626347759755800,0.517755859375,0.4031568765640259,-0.014954659156501293,0.5826547145843506
1780626347769750800,0.527750732421875,0.29836663603782654,-0.22880731523036957,0.6080611348152161
1780626347779746800,0.537746826171875,0.21680758893489838,-0.6508874297142029,0.6817331910133362
1780626347789741800,0.547741943359375,0.11709713190793991,-1.2024794816970825,0.9016973376274109
1780626347799736800,0.55773681640625,-0.0021538957953453064,-1.679836392402649,1.164559006690979
1780626347809732900,0.56773291015625,-0.16764995455741882,-1.714384913444519,1.3266422748565674
1780626347819728000,0.577727783203125,-0.23753608763217926,-1.4709722995758057,1.430443286895752
1780626347829723000,0.587722900390625,-0.20166929066181183,-1.0099740028381348,1.3848679065704346
1780626347839719000,0.597718994140625,-0.12373986840248108,-0.5448701977729797,1.24185049533844
1780626347849714000,0.6077138671875,-0.05814893916249275,-0.22006157040596008,1.0839769840240479
1780626347859708700,0.617708740234375,0.03212662786245346,-0.11483155936002731,0.9670935273170471
1780626347869704700,0.62770458984375,0.18929779529571533,0.03488827869296074,0.8702825903892517
1780626347879699700,0.63769970703125,0.6115678548812866,0.7546895742416382,0.7032176852226257
1780626347889694700,0.64769482421875,1.0829943418502808,0.9071411490440369,0.34251517057418823
1780626347899690800,0.657690673828125,1.2538291215896606,0.5798876285552979,-0.06387174874544144
1780626347909685800,0.667685791015625,1.1833828687667847,0.2505875527858734,-0.38427674770355225
1780626347919681800,0.677681884765625,1.1231125593185425,0.11878371983766556,-0.5149911046028137
1780626347929676800,0.6876767578125,1.1785516738891602,0.18454405665397644,-0.3826531767845154
1780626347939671800,0.697671875,1.2018429040908813,0.17923611402511597,-0.12329939007759094
1780626347949667600,0.70766748046875,1.1155768632888794,-0.11392150074243546,0.07211289554834366
1780626347959662800,0.717662841796875,1.0335462093353271,-0.42785385251045227,0.11744096130132675
1780626347969657900,0.727657958984375,1.0467599630355835,-0.4544161558151245,0.0499449223279953
1780626347979654000,0.73765380859375,1.1471030712127686,-0.34242331981658936,-0.11382190883159637
1780626347989649000,0.74764892578125,1.1407043933868408,-0.1827986091375351,-0.3896995484828949
1780626347999644000,0.757643798828125,0.9168211817741394,-0.23087133467197418,-0.7645078301429749
1780626348009639700,0.7676396484375,0.8314329385757446,-0.21830976009368896,-0.988599419593811
1780626348019634700,0.777634765625,0.8459985256195068,-0.3618650436401367,-1.0334312915802002
1780626348029629700,0.787629638671875,0.8405209183692932,-0.12378937005996704,-0.9496558904647827
1780626348039626000,0.7976259765625,0.8135793209075928,0.06376614421606064,-0.8615577220916748
1780626348049621000,0.80762109375,0.8234717845916748,0.1397072970867157,-0.7968236207962036
1780626348059615700,0.81761572265625,0.9215860962867737,0.2689395546913147,-0.7187680006027222
1780626348069611800,0.82761181640625,1.0657750368118286,0.19914264976978302,-0.6632055044174194
1780626348079606800,0.837606689453125,1.1823259592056274,0.0021837707608938217,-0.6485403180122375
1780626348089601800,0.847601806640625,1.312241792678833,-0.12054774165153503,-0.6009014248847961
1780626348099597600,0.85759765625,1.401655912399292,-0.05355832353234291,-0.47497060894966125
1780626348109592800,0.8675927734375,1.4058781862258911,0.07789161801338196,-0.2879204750061035
1780626348119588900,0.8775888671875,1.2843810319900513,0.025468625128269196,-0.06786693632602692
1780626348129583900,0.887583984375,0.9535391926765442,-0.24729330837726593,0.17402541637420654
1780626348139579000,0.897578857421875,0.4464304447174072,-0.38519287109375,0.42245811223983765
1780626348149574700,0.90757470703125,-0.12011590600013733,-0.47964343428611755,0.6641499400138855
1780626348159569700,0.917569580078125,-0.5502760410308838,-0.5024192929267883,0.8151365518569946
1780626348169564700,0.927564697265625,-0.709922194480896,-0.6099802851676941,0.8658856749534607
1780626348179561000,0.93756103515625,-0.7653197050094604,-0.6280402541160583,0.8660425543785095
1780626348189556000,0.947555908203125,-0.9064067602157593,-0.6036657691001892,0.9050570726394653
1780626348199551000,0.957551025390625,-1.0076359510421753,-0.7681742906570435,1.0573997497558594
1780626348209546800,0.967546630859375,-1.188474416732788,-0.9782503247261047,1.1961854696273804
1780626348219541800,0.977541748046875,-1.3404748439788818,-0.9587277173995972,1.0047886371612549
1780626348229536800,0.987536865234375,-1.177433729171753,-0.7575466632843018,0.6267317533493042
1780626348239532800,0.99753271484375,-0.7662813663482666,-0.48208099603652954,0.2577342391014099
1780626348249527800,1.00752783203125,-0.5021690726280212,-0.22168633341789246,-0.03367416933178902
1780626348259522800,1.017522705078125,-0.3624702990055084,-0.22694581747055054,-0.20212896168231964
1780626348269518800,1.027518798828125,-0.2547937035560608,-0.4642893671989441,-0.26793256402015686
1780626348279513900,1.037513916015625,-0.1900661140680313,-0.6681807637214661,-0.24873757362365723
1780626348289508900,1.0475087890625,-0.239620178937912,-0.7628930807113647,-0.16306988894939423
1780626348299504600,1.057504638671875,-0.3542519509792328,-0.7621614933013916,-0.05458522215485573
1780626348309499600,1.067499755859375,-0.4373936057090759,-0.6244674921035767,0.061292555183172226
1780626348319494700,1.07749462890625,-0.42518219351768494,-0.33563461899757385,0.18877354264259338
1780626348329491000,1.087490966796875,-0.23799307644367218,-0.05326484143733978,0.25050243735313416
1780626348339486500,1.097486572265625,-0.000938979908823967,0.04720397666096687,0.21203653514385223
1780626348349482500,1.107482421875,0.1986285001039505,0.0413782112300396,0.12508371472358704
1780626348359477500,1.1174775390625,0.2956567704677582,-0.05788898840546608,0.028579799458384514
1780626348369472500,1.127472412109375,0.2700918912887573,-0.24722477793693542,-0.037010397762060165
1780626348379468500,1.137468505859375,0.1949305683374405,-0.26205646991729736,-0.0571281835436821
1780626348389463600,1.147463623046875,0.2877625524997711,-0.03866094350814819,-0.07396584004163742
1780626348399458300,1.157458251953125,0.6093003749847412,0.222421795129776,-0.13217401504516602
1780626348409454300,1.167454345703125,1.0180622339248657,0.3732726275920868,-0.3011217713356018
1780626348419449300,1.177449462890625,1.338720679283142,0.38831523060798645,-0.5051619410514832
1780626348429444600,1.187444580078125,1.5221929550170898,0.23603972792625427,-0.5779502391815186
1780626348439440400,1.1974404296875,1.6185802221298218,-0.1350930631160736,-0.4913271963596344
1780626348449435400,1.207435302734375,1.6834710836410522,-0.7631821036338806,-0.2890563905239105
1780626348459430400,1.217430419921875,1.6192518472671509,-1.5036004781723022,-0.1030748188495636
1780626348469426400,1.227426513671875,1.428880214691162,-2.1424272060394287,0.017831813544034958
1780626348479421400,1.23742138671875,0.21371710300445557,-1.5168530941009521,-0.2275606393814087
1780626348489416400,1.24741650390625,-0.20829132199287415,-1.6013625860214233,-0.5330736637115479
1780626348499412500,1.25741259765625,0.32126837968826294,-2.851569890975952,-0.46543043851852417
1780626348509407500,1.267407470703125,0.787331759929657,-3.3505642414093018,-0.39978212118148804
1780626348519402500,1.277402587890625,1.1664848327636719,-2.9846434593200684,-0.4361651539802551
1780626348529398500,1.2873984375,1.6181058883666992,-3.0012264251708984,-0.5121124982833862
1780626348539393500,1.2973935546875,2.0894863605499268,-3.326737642288208,-0.6008415222167969
1780626348549388300,1.30738818359375,2.4344699382781982,-3.551668643951416,-0.7223294377326965
1780626348559384300,1.31738427734375,2.605867624282837,-3.765265464782715,-0.8228275179862976
1780626348569379300,1.32737939453125,2.6580100059509277,-4.024694442749023,-0.8419233560562134
1780626348579374600,1.33737451171875,2.679445505142212,-4.291131496429443,-0.7469809055328369
1780626348589370400,1.347370361328125,2.6519739627838135,-4.5462965965271,-0.6035315990447998
1780626348599365400,1.357365478515625,2.574139356613159,-4.690884113311768,-0.527615487575531
1780626348609360400,1.3673603515625,2.5021185874938965,-4.606010913848877,-0.5445697903633118
1780626348619356400,1.3773564453125,2.480243444442749,-4.452943325042725,-0.5659334063529968
1780626348629351400,1.387351318359375,2.5373525619506836,-4.199122905731201,-0.5707003474235535
1780626348639347200,1.39734716796875,2.720050811767578,-4.057429790496826,-0.6158359050750732
1780626348649342500,1.407342529296875,2.9842069149017334,-4.220088005065918,-0.7082779407501221
1780626348659337500,1.41733740234375,3.1903393268585205,-4.644946575164795,-0.7698323726654053
1780626348669333500,1.42733349609375,3.138564109802246,-4.936437606811523,-0.6137645244598389
1780626348679328500,1.43732861328125,2.834942579269409,-4.723138332366943,-0.05557636171579361
1780626348689323500,1.447323486328125,2.574586868286133,-4.417913436889648,0.5887196063995361
1780626348699319300,1.4573193359375,2.480666160583496,-4.488344669342041,1.0415784120559692
1780626348709314300,1.467314208984375,2.630218505859375,-4.699720859527588,1.1272462606430054
1780626348719309300,1.477309326171875,2.919382333755493,-5.007165431976318,0.9859358072280884
1780626348729305600,1.4873056640625,3.1787803173065186,-5.245845794677734,0.9040848016738892
1780626348739300600,1.497300537109375,3.3548922538757324,-5.270265102386475,0.9768103957176208
1780626348749295400,1.50729541015625,3.5435869693756104,-5.120100498199463,1.2546956539154053
1780626348759291400,1.51729150390625,3.777928590774536,-4.727739334106445,1.6483936309814453
1780626348769286400,1.527286376953125,4.088149547576904,-4.177923202514648,1.986745834350586
1780626348779281400,1.537281494140625,4.46138334274292,-3.656254768371582,2.105447769165039
1780626348789277400,1.54727734375,4.8785858154296875,-3.1209962368011475,1.991146445274353
1780626348799272400,1.5572724609375,5.298795223236084,-2.6799099445343018,1.625322937965393
1780626348809267500,1.567267333984375,5.739157199859619,-2.503690242767334,1.0601426362991333
1780626348819263500,1.577263427734375,5.921377182006836,-2.4965639114379883,0.6203575730323792
1780626348829258500,1.587258544921875,5.596182346343994,-2.6119372844696045,0.6143141388893127
1780626348839253500,1.59725341796875,4.897202014923096,-2.9190242290496826,1.0400792360305786
1780626348849249300,1.607249267578125,4.114459037780762,-3.069493055343628,1.6012163162231445
1780626348859244300,1.617244384765625,3.414435625076294,-2.737109422683716,1.977996826171875
1780626348869239300,1.6272392578125,2.9176347255706787,-2.0915935039520264,2.0556318759918213
1780626348879235600,1.637235595703125,2.5776565074920654,-1.3597887754440308,1.9764118194580078
1780626348889230600,1.647230712890625,2.259308338165283,-0.5110480785369873,1.8194509744644165
1780626348899225600,1.6572255859375,1.8970811367034912,0.358418345451355,1.5802158117294312
1780626348909221400,1.667221435546875,1.5204631090164185,1.0952671766281128,1.266416072845459
1780626348919216400,1.67721630859375,1.1934833526611328,1.6369179487228394,0.9561445116996765
1780626348929211400,1.68721142578125,0.8577977418899536,2.092522144317627,0.7584125995635986
1780626348939207400,1.69720751953125,0.4239237606525421,2.5353333950042725,0.6341082453727722
1780626348949202400,1.707202392578125,-0.08264507353305817,2.8817145824432373,0.5562176704406738
1780626348959197400,1.717197509765625,-0.5842674374580383,2.998932361602783,0.5906558036804199
1780626348969193500,1.727193359375,-0.8413048386573792,2.925806999206543,0.6794304847717285
1780626348979188500,1.7371884765625,-0.8435370922088623,2.6772823333740234,0.7670327425003052
1780626348989183500,1.74718359375,-0.8008010387420654,2.403010368347168,0.8781603574752808
1780626348999179300,1.75717919921875,-0.8326992988586426,2.2120306491851807,0.9778134822845459
1780626349009174300,1.76717431640625,-0.8440711498260498,2.06022047996521,1.019407033920288
1780626349019170600,1.777170654296875,-0.8339706063270569,1.9108030796051025,1.0000958442687988
1780626349029165600,1.78716552734375,-0.9048818945884705,1.7375761270523071,0.9700280427932739
1780626349039160600,1.79716064453125,-1.123605728149414,1.5030821561813354,1.0181227922439575
1780626349049156400,1.80715625,-1.4932334423065186,1.1324412822723389,1.2424558401107788
1780626349059151400,1.8171513671875,-1.854701280593872,0.7017806768417358,1.6136260032653809
1780626349069146400,1.827146484375,-2.042868137359619,0.439848393201828,1.9484628438949585
1780626349079142400,1.837142333984375,-1.9844821691513062,0.3327730894088745,2.0597519874572754
1780626349089137400,1.847137451171875,-1.7223550081253052,0.2067410945892334,2.0187535285949707
1780626349099132400,1.85713232421875,-1.3868166208267212,0.18553169071674347,1.8623250722885132
1780626349109128400,1.86712841796875,-1.139477014541626,0.2096535712480545,1.6346091032028198
1780626349119123500,1.87712353515625,-1.0393896102905273,0.19938363134860992,1.447058916091919
1780626349129118500,1.887118408203125,-1.0947139263153076,0.14342685043811798,1.3972463607788086
1780626349139114500,1.897114501953125,-1.293213963508606,0.032524820417165756,1.5495972633361816
1780626349149109200,1.907109130859375,-1.5820342302322388,-0.06239655613899231,1.8624002933502197
1780626349159104300,1.917104248046875,-1.866852879524231,-0.07821386307477951,2.179555654525757
1780626349169100500,1.9271005859375,-1.9915237426757812,0.02860577404499054,2.3603601455688477
1780626349179095600,1.937095458984375,-1.86280357837677,0.0603831447660923,2.1390466690063477
1780626349189090600,1.947090576171875,-1.4612137079238892,0.07457323372364044,1.471054196357727
1780626349199086300,1.95708642578125,-1.0347236394882202,0.4252958297729492,0.6797901391983032
1780626349209081300,1.967081298828125,-0.7385380864143372,0.7498528361320496,0.16663265228271484
1780626349219076400,1.977076416015625,-0.6811214089393616,0.6865851283073425,0.1888841688632965
1780626349229072400,1.987072265625,-0.7979875206947327,0.23865057528018951,0.5900752544403076
1780626349239067400,1.9970673828125,-0.9706045389175415,-0.3121265470981598,1.0824657678604126
1780626349249062700,2.007062744140625,-1.13124418258667,-0.7832805514335632,1.4592487812042236
1780626349259058400,2.017058349609375,-1.201856255531311,-1.0427443981170654,1.5383800268173218
1780626349269053400,2.027053466796875,-1.2133561372756958,-1.1224358081817627,1.2821801900863647
1780626349279048400,2.03704833984375,-1.2418521642684937,-1.1142700910568237,0.9854016900062561
1780626349289044500,2.04704443359375,-1.2599729299545288,-1.1174906492233276,0.8030492067337036
1780626349299039500,2.05703955078125,-1.2801640033721924,-1.0276422500610352,0.7092803716659546
1780626349309034200,2.0670341796875,-1.3236663341522217,-0.7715673446655273,0.6271456480026245
1780626349319030500,2.077030517578125,-1.3639516830444336,-0.5083370208740234,0.5688716769218445
1780626349329025500,2.087025634765625,-1.3658000230789185,-0.4612099826335907,0.5245346426963806
1780626349339020500,2.0970205078125,-1.26541268825531,-0.5528663992881775,0.5024749040603638
1780626349349016600,2.1070166015625,-1.1511589288711548,-0.8461704850196838,0.4055817723274231
1780626349359011600,2.117011474609375,-1.0063923597335815,-1.0872588157653809,0.3525470495223999
1780626349369006600,2.127006591796875,-0.8082762360572815,-1.1386795043945312,0.476301372051239
1780626349379002600,2.137002685546875,-0.6400640606880188,-0.9309614896774292,0.670276403427124
1780626349388997600,2.14699755859375,-0.5486469268798828,-0.6271622776985168,0.715817928314209
1780626349398992600,2.15699267578125,-0.4409595727920532,-0.40769168734550476,0.5940062403678894
1780626349408988400,2.166988525390625,-0.344304621219635,-0.2361217439174652,0.4862900972366333
1780626349418983400,2.1769833984375,-0.3110595941543579,-0.17354224622249603,0.42029616236686707
1780626349428978400,2.186978515625,-0.25465747714042664,-0.21202194690704346,0.37253013253211975
1780626349438974700,2.196974609375,-0.1398448646068573,-0.2542983293533325,0.362609326839447
1780626349448969700,2.2069697265625,0.03461917117238045,-0.2503105700016022,0.35366031527519226
1780626349458965500,2.216965576171875,0.13384242355823517,-0.13450463116168976,0.30535590648651123
1780626349468960500,2.22696044921875,0.1429128646850586,0.035487085580825806,0.2248932123184204
1780626349478955500,2.23695556640625,0.06710997223854065,0.21792161464691162,0.23667903244495392
1780626349488951600,2.24695166015625,-0.041972409933805466,0.4318099915981293,0.2588781714439392
1780626349498946600,2.256946533203125,-0.08120796084403992,0.4763611853122711,0.29258739948272705
1780626349508941600,2.266941650390625,-0.01572130247950554,0.4152447283267975,0.26714566349983215
1780626349518937600,2.2769375,0.16034027934074402,-0.07381071895360947,0.24822179973125458
1780626349528932600,2.2869326171875,0.43633222579956055,-0.7312588095664978,0.3461274802684784
1780626349538927600,2.296927734375,0.6141927242279053,-1.0039371252059937,0.4884718358516693
1780626349548923400,2.30692333984375,0.8051272630691528,-1.2491793632507324,0.5437132716178894
1780626349558918400,2.31691845703125,0.953277587890625,-1.5333094596862793,0.6229279041290283
1780626349568913400,2.326913330078125,0.8664490580558777,-1.5900958776474,0.9054055213928223
1780626349578909700,2.33690966796875,0.6879206299781799,-1.3068718910217285,1.1971529722213745
1780626349588904700,2.34690478515625,0.5803120136260986,-1.1379033327102661,1.3466832637786865
1780626349598899700,2.356899658203125,0.6453602313995361,-1.1054884195327759,1.284427285194397
1780626349608895500,2.3668955078125,0.9351631999015808,-1.1290684938430786,1.0109913349151611
1780626349618890500,2.376890380859375,1.2876217365264893,-1.086613416671753,0.659678041934967
1780626349628885500,2.386885498046875,1.6896326541900635,-1.0935994386672974,0.35303813219070435
1780626349638881500,2.396881591796875,2.0897269248962402,-1.0944710969924927,0.16396859288215637
1780626349648876500,2.40687646484375,2.1649422645568848,-1.0672904253005981,0.2341965138912201
1780626349658871600,2.41687158203125,1.8272521495819092,-0.9584236145019531,0.4761931598186493
1780626349668867600,2.42686767578125,1.4425402879714966,-0.7734531760215759,0.6532411575317383
1780626349678862600,2.436862548828125,1.1201335191726685,-0.5059868097305298,0.7054545879364014
1780626349688857600,2.446857666015625,1.1697852611541748,-0.21030859649181366,0.5138428211212158
1780626349698853400,2.456853271484375,1.0642307996749878,-0.1399446725845337,0.3532049357891083
1780626349708848400,2.466848388671875,0.8352349996566772,-0.10178550332784653,0.3099513649940491
1780626349718843400,2.476843505859375,0.7186841368675232,0.05565338581800461,0.2765718400478363
1780626349728839700,2.486839599609375,0.869688093662262,0.006816245149821043,0.15321794152259827
1780626349738834700,2.496834716796875,1.2134811878204346,0.0181269571185112,-0.09695141017436981
1780626349748829700,2.50682958984375,1.318358302116394,0.22772330045700073,-0.2982393205165863
1780626349758825500,2.516825439453125,1.0956655740737915,-0.039883632212877274,-0.07818606495857239
1780626349768820500,2.526820556640625,0.7866366505622864,-0.5469335317611694,0.33803537487983704
1780626349778815500,2.5368154296875,0.600468099117279,-0.9434265494346619,0.64022296667099
1780626349788811500,2.5468115234375,0.6279251575469971,-1.27009916305542,0.8204663395881653
1780626349798806800,2.556806884765625,0.791101336479187,-1.3815410137176514,0.8920931220054626
1780626349808801500,2.566801513671875,0.9425306916236877,-1.4568694829940796,0.8636311292648315
1780626349818797600,2.576797607421875,1.1049240827560425,-1.5381145477294922,0.7616086602210999
1780626349828792600,2.58679248046875,1.1987828016281128,-1.537154197692871,0.6762501001358032
1780626349838787600,2.59678759765625,1.1552674770355225,-1.4070161581039429,0.6438729763031006
1780626349848783600,2.60678369140625,0.9798475503921509,-1.2567702531814575,0.6692852973937988
1780626349858778400,2.6167783203125,0.7435426115989685,-1.0864664316177368,0.7160951495170593
1780626349868773400,2.6267734375,0.5751646757125854,-0.9328740835189819,0.6865181922912598
1780626349878769700,2.636769775390625,0.4172360301017761,-0.8205467462539673,0.5800058841705322
1780626349888764700,2.6467646484375,0.15328861773014069,-0.5165374875068665,0.4382805824279785
1780626349898759700,2.656759765625,-0.1852995604276657,-0.12942838668823242,0.2565020024776459
1780626349908755500,2.66675537109375,-0.45257216691970825,0.20236237347126007,0.10031532496213913
1780626349918750500,2.67675048828125,-0.7368299961090088,0.5082498788833618,-0.10938624292612076
1780626349928746500,2.68674658203125,-1.103598713874817,0.8575236201286316,-0.3713923692703247
1780626349938741500,2.696741455078125,-1.4822924137115479,1.266806960105896,-0.601877748966217
1780626349948736800,2.70673681640625,-1.5100363492965698,0.804832935333252,-0.35204753279685974
1780626349958732500,2.716732666015625,-1.2935335636138916,-0.392890989780426,0.18664070963859558
1780626349968727600,2.7267275390625,-0.7253304719924927,-1.1537270545959473,0.48256611824035645
1780626349978722600,2.73672265625,-0.25506898760795593,-2.4736623764038086,0.44717004895210266
1780626349988718600,2.746718505859375,-0.026691125705838203,-2.963379144668579,0.16710376739501953
1780626349998713600,2.756713623046875,-0.1319802701473236,-3.005315065383911,-0.2137647569179535
1780626350008708400,2.766708251953125,-0.12950818240642548,-2.7075648307800293,-0.47192704677581787
1780626350018704600,2.77670458984375,0.09401758760213852,-1.8808183670043945,-0.822422981262207
1780626350028699600,2.78669970703125,0.4198969006538391,-0.48412638902664185,-1.1626728773117065
1780626350038694700,2.796694580078125,0.6769984364509583,0.7884161472320557,-1.2494608163833618
1780626350048690400,2.8066904296875,0.8075475692749023,1.413055419921875,-1.0135715007781982
1780626350058685400,2.816685546875,0.7525450587272644,1.3416837453842163,-0.6113577485084534
1780626350068680400,2.826680419921875,0.4251960813999176,0.6501041054725647,-0.1891860067844391
1780626350078676500,2.836676513671875,-0.0569271482527256,0.1484370231628418,0.19291317462921143
1780626350088671500,2.84667138671875,-0.4732514023780823,-0.07135162502527237,0.5119611620903015
1780626350098666800,2.856666748046875,-0.680476725101471,-0.1546126902103424,0.7189915776252747
1780626350108662500,2.86666259765625,-0.7373182773590088,-0.2616537809371948,0.8065842986106873
1780626350118657500,2.876657470703125,-0.6589065790176392,-0.3408713936805725,0.8105058073997498
1780626350128652500,2.886652587890625,-0.4897709786891937,-0.16248127818107605,0.6864124536514282
1780626350138648600,2.896648681640625,-0.22652548551559448,0.15199622511863708,0.4021250605583191
1780626350148643600,2.9066435546875,-0.015092488378286362,0.23572979867458344,0.11567191034555435
1780626350158638600,2.916638671875,0.004072417970746756,-0.00662104832008481,-0.023792510852217674
1780626350168634600,2.926634521484375,-0.03725288808345795,-0.1084221601486206,-0.07194583117961884
1780626350178629600,2.936629638671875,-0.006915224250406027,-0.012583245523273945,-0.05650775507092476
1780626350188624600,2.946624755859375,0.10239818692207336,0.1954825073480606,0.0075246659107506275
1780626350198620700,2.95662060546875,0.26579907536506653,0.43595850467681885,0.08177705854177475
1780626350208615400,2.966615478515625,0.49216994643211365,0.7114579081535339,0.18229204416275024
1780626350218610400,2.9766103515625,0.8182463049888611,1.0277607440948486,0.32893526554107666
1780626350228606500,2.9866064453125,1.2110817432403564,1.1847821474075317,0.49996232986450195
1780626350238601500,2.9966015625,1.6194530725479126,1.0766940116882324,0.6653555631637573
1780626350248596700,3.0065966796875,1.9366099834442139,0.881762683391571,0.7470362186431885
1780626350258592500,3.016592529296875,2.1996214389801025,0.6330466270446777,0.7933158278465271
1780626350268587500,3.02658740234375,2.404212474822998,0.33646005392074585,0.885472297668457
1780626350278582500,3.03658251953125,2.55670166015625,0.1317271590232849,0.9984713196754456
1780626350288578600,3.04657861328125,2.68058443069458,-0.018543165177106857,1.021596908569336
1780626350298573600,3.056573486328125,2.7536115646362305,-0.03596317023038864,0.8304003477096558
1780626350308568600,3.066568603515625,2.7354862689971924,0.10394192487001419,0.40018513798713684
1780626350318564600,3.076564697265625,2.6724913120269775,0.24200685322284698,-0.11799410730600357
1780626350328559600,3.0865595703125,2.5551953315734863,0.39727747440338135,-0.607598066329956
1780626350338554600,3.0965546875,2.378096103668213,0.5941365361213684,-0.9776421785354614
1780626350348550700,3.106550537109375,2.0922093391418457,0.8374319076538086,-1.1458607912063599
1780626350358545700,3.116545654296875,1.6299635171890259,1.1230530738830566,-1.0513161420822144
1780626350368540400,3.12654052734375,1.090633511543274,1.296105146408081,-0.7753683924674988
1780626350378536400,3.136536376953125,0.6057807207107544,1.0891937017440796,-0.4730590879917145
1780626350388531500,3.146531494140625,0.2735989987850189,0.7771622538566589,-0.26218441128730774
1780626350398526700,3.156526611328125,0.026612132787704468,0.5978926420211792,-0.1840834766626358
1780626350408522500,3.1665224609375,-0.13746115565299988,0.6440172791481018,-0.15911659598350525
1780626350418517500,3.176517578125,-0.23201030492782593,0.5447569489479065,-0.19341038167476654
1780626350428512500,3.186512451171875,-0.3206360638141632,0.5926302075386047,-0.21632377803325653
1780626350438508500,3.196508544921875,-0.30114251375198364,0.7317593693733215,-0.2146366685628891
1780626350448503600,3.206503662109375,-0.18980765342712402,0.8500590324401855,-0.21072813868522644
1780626350458498600,3.21649853515625,-0.16629114747047424,0.9074834585189819,-0.1913381963968277
1780626350468494600,3.22649462890625,-0.23980948328971863,0.9731823801994324,-0.18197761476039886
1780626350478489600,3.236489501953125,-0.2781462073326111,1.0034396648406982,-0.13450224697589874
1780626350488484600,3.246484619140625,-0.28838053345680237,0.9687004685401917,-0.03347247838973999
1780626350498480600,3.256480712890625,-0.3001578152179718,0.8635514378547668,0.09297574311494827
1780626350508475600,3.2664755859375,-0.2384025603532791,0.7267234921455383,0.22432240843772888
1780626350518471400,3.276471435546875,-0.08104994893074036,0.6182194352149963,0.3371514678001404
1780626350528466400,3.286466552734375,0.038806695491075516,0.5560351610183716,0.42369604110717773
1780626350538461400,3.29646142578125,0.05058399215340614,0.45819827914237976,0.4593501687049866
1780626350548457700,3.306457763671875,-0.016263768076896667,0.3186156153678894,0.43758299946784973
1780626350558452500,3.316452392578125,-0.102108895778656,0.17291969060897827,0.3741297125816345
1780626350568447500,3.326447509765625,-0.18775852024555206,0.006398072931915522,0.30421820282936096
1780626350578443500,3.336443603515625,-0.3115057647228241,-0.25417280197143555,0.25315767526626587
1780626350588438500,3.3464384765625,-0.4832007586956024,-0.5700448751449585,0.2108687311410904
1780626350598433500,3.35643359375,-0.6884204745292664,-0.6512308120727539,0.21510103344917297
1780626350608429600,3.3664296875,-0.8465175032615662,-0.5700192451477051,0.26862266659736633
1780626350618424600,3.376424560546875,-0.8265443444252014,-0.5433178544044495,0.38325124979019165
1780626350628419600,3.386419677734375,-0.5591960549354553,-0.6113765835762024,0.5897706747055054
1780626350638415600,3.39641552734375,-0.10373908281326294,-0.6340193152427673,0.8616802096366882
1780626350648410600,3.40641064453125,0.34532296657562256,-0.4660819470882416,1.0983728170394897
1780626350658405600,3.416405517578125,0.5882576107978821,-0.15458397567272186,1.1260316371917725
1780626350668401400,3.4264013671875,0.5812497735023499,0.034411340951919556,0.8652702569961548
1780626350678396400,3.436396484375,0.4056408703327179,0.052758656442165375,0.3689124286174774
1780626350688391400,3.446391357421875,0.1799248456954956,-0.03324100375175476,-0.2085169106721878
1780626350698387700,3.4563876953125,0.002295194659382105,-0.02596045657992363,-0.699753999710083
1780626350708382700,3.4663828125,-0.031148195266723633,-0.021590393036603928,-1.0329546928405762
1780626350718377500,3.47637744140625,0.05723785609006882,-0.07429514825344086,-1.2025583982467651
1780626350728373500,3.48637353515625,0.1814538687467575,-0.17195995151996613,-1.2530362606048584
1780626350738368500,3.496368408203125,0.3039208948612213,-0.2307196706533432,-1.189551830291748
1780626350748363500,3.506363525390625,0.48059549927711487,-0.35748380422592163,-1.0235215425491333
1780626350758359600,3.516359619140625,0.696336567401886,-0.521001935005188,-0.7360531091690063
1780626350768354600,3.5263544921875,0.9222372174263,-0.8042486310005188,-0.36927393078804016
1780626350778349600,3.536349609375,1.1828548908233643,-1.0779056549072266,0.02821032516658306
1780626350788345600,3.546345703125,1.445076823234558,-1.173770785331726,0.4059566557407379
1780626350798340600,3.556340576171875,1.6614139080047607,-1.1165519952774048,0.7424627542495728
1780626350808335600,3.566335693359375,1.7762174606323242,-1.0063191652297974,1.0081231594085693
1780626350818331400,3.576331298828125,1.7299375534057617,-0.9048057198524475,1.2478052377700806
1780626350828326400,3.586326416015625,1.482932686805725,-0.9181862473487854,1.4873404502868652
1780626350838321400,3.5963212890625,0.9863041043281555,-1.1642428636550903,1.710654854774475
1780626350848317700,3.606317626953125,0.4360755383968353,-1.446354866027832,1.9099643230438232
1780626350858312700,3.616312744140625,-0.008767430670559406,-1.695825219154358,2.0077199935913086
1780626350868307700,3.6263076171875,-0.5415851473808289,-2.2133877277374268,1.5675040483474731
1780626350878303500,3.636303466796875,-0.672042727470398,-2.095323085784912,-0.09361260384321213
1780626350888298500,3.646298583984375,-0.3880171477794647,-2.315047264099121,-1.3734697103500366
1780626350898293500,3.65629345703125,-0.3128052055835724,-2.2459027767181396,-1.5639954805374146
1780626350908289800,3.666289794921875,-0.3881481885910034,-1.991546869277954,-1.2078664302825928
1780626350918284500,3.676284423828125,-0.5394655466079712,-1.8089227676391602,-0.8340132832527161
1780626350928279600,3.686279541015625,-0.5579973459243774,-1.310370922088623,-0.8495478630065918
1780626350938275600,3.696275634765625,-0.2917206585407257,-0.48499444127082825,-1.2854969501495361
1780626350948270600,3.7062705078125,0.035232383757829666,0.2598745822906494,-1.5073925256729126
1780626350958265600,3.716265625,0.2539553940296173,0.5649950504302979,-1.4497404098510742
1780626350968261400,3.726261474609375,0.3565517067909241,0.36859819293022156,-1.2721165418624878
1780626350978256400,3.73625634765625,0.3794170916080475,-0.12129722535610199,-1.0548241138458252
1780626350988251400,3.74625146484375,0.456693172454834,-0.8987095952033997,-1.013905644416809
1780626350998247700,3.75624755859375,0.5122214555740356,-1.3094896078109741,-0.9510630369186401
1780626351008242700,3.76624267578125,0.6038883328437805,-1.116683006286621,-0.7391888499259949
1780626351018237700,3.77623779296875,0.8172917366027832,-0.6962817311286926,-0.5047475695610046
1780626351028233500,3.7862333984375,1.0199768543243408,-0.6085944175720215,-0.32370680570602417
1780626351038228500,3.796228515625,1.1969026327133179,-0.8246052861213684,-0.1860184222459793
1780626351048223500,3.806223388671875,1.2082078456878662,-1.0934847593307495,-0.09531765431165695
1780626351058219800,3.8162197265625,1.2376689910888672,-1.316348671913147,-0.06795234233140945
1780626351068214500,3.826214599609375,1.3311375379562378,-1.4089173078536987,-0.040018174797296524
1780626351078209500,3.83620947265625,1.4629513025283813,-1.2765696048736572,0.024766679853200912
1780626351088205600,3.84620556640625,1.5962759256362915,-1.1269595623016357,0.11691773682832718
1780626351098200600,3.85620068359375,1.677690863609314,-1.134859323501587,0.3474830389022827
1780626351108195600,3.866195556640625,1.768207311630249,-1.0873104333877563,0.6010679006576538
1780626351118191400,3.87619140625,1.9539340734481812,-1.0464410781860352,0.9152284860610962
1780626351128186400,3.886186279296875,2.2391932010650635,-1.1084486246109009,1.193122386932373
1780626351138182700,3.8961826171875,2.5605502128601074,-1.0944998264312744,1.3414567708969116
1780626351148177700,3.906177734375,2.853250026702881,-0.9853912591934204,1.374786615371704
1780626351158172700,3.916172607421875,3.050644874572754,-1.1240390539169312,1.3230855464935303
1780626351168168400,3.92616845703125,3.017608880996704,-1.5066900253295898,1.2166205644607544
1780626351178163500,3.93616357421875,2.8097267150878906,-1.7524393796920776,1.1151551008224487
1780626351188158500,3.946158447265625,2.4874908924102783,-1.6661410331726074,0.9989000558853149
1780626351198154500,3.956154541015625,2.2255234718322754,-1.252601146697998,0.7590810656547546
1780626351208149800,3.966149658203125,2.151886224746704,-0.8016695976257324,0.28353387117385864
1780626351218144800,3.976144775390625,2.181516408920288,-0.40020182728767395,-0.3069661557674408
1780626351228140500,3.986140625,2.112412929534912,-0.09781347960233688,-0.7864932417869568
1780626351238135600,3.996135498046875,1.6412112712860107,0.036430343985557556,-0.9184291958808899
1780626351248130600,4.006130615234375,1.0735085010528564,0.2624347507953644,-0.7280630469322205
1780626351258126600,4.016126708984375,0.7757145166397095,0.13901054859161377,-0.4923490881919861
1780626351268121600,4.02612158203125,0.766573429107666,-0.2629225552082062,-0.32845041155815125
1780626351278116400,4.036116455078125,0.9814133048057556,-0.5489194393157959,-0.21329745650291443
1780626351288112600,4.046112548828125,1.3657881021499634,-0.5315546989440918,-0.15630465745925903
1780626351298107600,4.056107666015625,1.8424081802368164,-0.34514570236206055,-0.12877343595027924
1780626351308102700,4.0661025390625,2.3425614833831787,-0.08585751056671143,-0.09007814526557922
1780626351318098400,4.076098388671875,2.792656660079956,0.08979687094688416,-0.012779362499713898
1780626351328093400,4.086093505859375,3.1538610458374023,0.190965935587883,0.09735814481973648
1780626351338088700,4.096088623046875,3.475452423095703,0.1686989814043045,0.20736561715602875
1780626351348085000,4.1060849609375,3.807981491088867,-0.029587309807538986,0.25363680720329285
1780626351358080000,4.116080078125,4.19569206237793,-0.33276158571243286,0.24786092340946198
1780626351368075000,4.126074951171875,4.620369911193848,-0.7294302582740784,0.21567875146865845
1780626351378070800,4.13607080078125,5.045416355133057,-1.1448559761047363,0.22196726500988007
1780626351388065800,4.146065673828125,5.4202470779418945,-1.5670167207717896,0.29413947463035583
1780626351398060800,4.156060791015625,5.656031608581543,-2.051619291305542,0.4658704996109009
1780626351408056800,4.166056884765625,5.739174842834473,-2.5347962379455566,0.7583398222923279
1780626351418051800,4.1760517578125,5.522392272949219,-3.097382068634033,1.0816329717636108
1780626351428046600,4.186046630859375,4.882174491882324,-3.5516574382781982,1.387897253036499
1780626351438043000,4.19604296875,3.9372925758361816,-3.732732057571411,1.59846830368042
1780626351448038000,4.206037841796875,2.743055820465088,-3.823976993560791,1.5008543729782104
1780626351458033000,4.216032958984375,1.3001757860183716,-3.9443776607513428,0.8591335415840149
1780626351468028700,4.226028564453125,-0.4611590802669525,-4.029994487762451,-0.12820644676685333
1780626351478023700,4.236023681640625,-2.2811412811279297,-3.5845959186553955,-1.2600398063659668
1780626351488018700,4.246018798828125,-3.599642276763916,-2.4803988933563232,-2.2701845169067383
1780626351498015000,4.256014892578125,-3.8469555377960205,-0.9287170767784119,-2.8352880477905273
1780626351508010000,4.266010009765625,-2.9535813331604004,0.6047548055648804,-2.7655627727508545
1780626351518005000,4.2760048828125,-1.3836969137191772,1.5059778690338135,-1.9911714792251587
1780626351528000800,4.286000732421875,0.5300553441047668,0.7961298823356628,-0.5945323705673218
1780626351537995800,4.295995849609375,1.1865553855895996,0.665220320224762,0.26324352622032166
1780626351547990800,4.30599072265625,0.8678359389305115,1.5113868713378906,0.3532794713973999
1780626351557986800,4.31598681640625,0.19200846552848816,2.248594045639038,0.10870863497257233
1780626351567981800,4.32598193359375,-0.42459172010421753,2.5151445865631104,-0.16081081330776215
1780626351577976600,4.3359765625,-0.7509365677833557,2.339540719985962,-0.3223797380924225
1780626351587972900,4.345972900390625,-0.7466734051704407,1.852127194404602,-0.37041348218917847
1780626351597968000,4.3559677734375,-0.5440832376480103,1.2820218801498413,-0.3581717312335968
1780626351607964000,4.3659638671875,-0.2744501829147339,0.6824091672897339,-0.3449763059616089
1780626351617959000,4.375958984375,-0.044181037694215775,-0.18977287411689758,-0.23219755291938782
1780626351627953700,4.38595361328125,0.08063705265522003,-0.7058598399162292,-0.21772167086601257
1780626351637949700,4.39594970703125,0.10672644525766373,-0.9353170394897461,-0.317805677652359
1780626351647945000,4.405945068359375,0.08464327454566956,-1.0033963918685913,-0.5020635724067688
1780626351657940000,4.41593994140625,0.07420874387025833,-0.9993962645530701,-0.6942492723464966
1780626351667935700,4.425935791015625,0.09219635277986526,-0.9680278301239014,-0.8021061420440674
1780626351677930800,4.4359306640625,0.12370713800191879,-0.9072822332382202,-0.7891471982002258
1780626351687925800,4.44592578125,0.14225193858146667,-0.8061993718147278,-0.6908568143844604
1780626351697921800,4.455921875,0.1346273124217987,-0.6178110837936401,-0.5580175518989563
1780626351707916800,4.465916748046875,0.08533406257629395,-0.346500426530838,-0.4162231385707855
1780626351717911800,4.475911865234375,0.003340653143823147,-0.060318201780319214,-0.28124773502349854
1780626351727907800,4.485907958984375,-0.09028461575508118,0.13438497483730316,-0.18215809762477875
1780626351737902800,4.49590283203125,-0.15628626942634583,0.20881792902946472,-0.13487473130226135
1780626351747897900,4.50589794921875,-0.17529256641864777,0.20700043439865112,-0.12036547809839249
1780626351757894000,4.515893798828125,-0.15403388440608978,0.18752367794513702,-0.1230587363243103
1780626351767889000,4.525888916015625,-0.11356127262115479,0.15275076031684875,-0.13617046177387238
1780626351777883600,4.535883544921875,-0.10592225939035416,0.06891658902168274,-0.1519118696451187
1780626351787879700,4.545879638671875,-0.13374797999858856,-0.051036637276411057,-0.15007384121418
1780626351797874700,4.555874755859375,-0.1468544602394104,-0.15068119764328003,-0.1257791519165039
1780626351807870000,4.565869873046875,-0.1253744214773178,-0.2568044662475586,-0.09682028740644455
1780626351817865700,4.57586572265625,-0.09680110961198807,-0.35618856549263,-0.09152406454086304
1780626351827860700,4.58586083984375,-0.08066210150718689,-0.3528653681278229,-0.09836767613887787
1780626351837855700,4.595855712890625,-0.09899982810020447,-0.24866920709609985,-0.12255557626485825
1780626351847851800,4.605851806640625,-0.12092767655849457,-0.07574272155761719,-0.14274704456329346
1780626351857846800,4.6158466796875,-0.11166094243526459,0.022481577470898628,-0.1466349959373474
1780626351867841800,4.625841796875,-0.08449672907590866,0.02835935354232788,-0.13423487544059753
1780626351877837800,4.635837890625,-0.05838043615221977,0.02895323932170868,-0.11570272594690323
1780626351887832800,4.645832763671875,-0.03269149735569954,0.045101016759872437,-0.09105134755373001
1780626351897827800,4.655827880859375,-0.0175373125821352,0.07077815383672714,-0.0844602957367897
1780626351907823900,4.665823974609375,-0.0249665305018425,0.08886486291885376,-0.10507449507713318
1780626351917819000,4.67581884765625,-0.05914607271552086,0.05391966179013252,-0.11467838287353516
1780626351927814000,4.68581396484375,-0.12381720542907715,-0.020995592698454857,-0.08378491550683975
1780626351937809700,4.6958095703125,-0.20188084244728088,-0.049199268221855164,-0.014633010141551495
1780626351947804700,4.7058046875,-0.2650104761123657,-0.022097192704677582,0.06991995871067047
1780626351957800000,4.715800048828125,-0.30562421679496765,0.03879252076148987,0.1535237729549408
1780626351967796000,4.7257958984375,-0.30642110109329224,0.09175243228673935,0.23209208250045776
1780626351977790700,4.735790771484375,-0.2522055506706238,0.08572490513324738,0.32554933428764343
1780626351987785700,4.74578564453125,-0.16669680178165436,-0.0008632382960058749,0.4039483666419983
1780626351997781800,4.75578173828125,-0.09630972892045975,-0.09232205152511597,0.41303879022598267
1780626352007776800,4.76577685546875,-0.06952740997076035,-0.1556200385093689,0.3278692066669464
1780626352017772800,4.775772705078125,-0.0824594497680664,-0.2173081785440445,0.17921662330627441
1780626352027767800,4.785767822265625,-0.12629742920398712,-0.29972416162490845,0.009406989440321922
1780626352037762800,4.7957626953125,-0.1932210773229599,-0.40928393602371216,-0.11579220741987228
1780626352047758800,4.8057587890625,-0.2517053484916687,-0.5147601366043091,-0.1441957950592041
1780626352057753900,4.81575390625,-0.28388965129852295,-0.5391315221786499,-0.049155570566654205
1780626352067748900,4.825748779296875,-0.27511438727378845,-0.43482694029808044,0.16088901460170746
1780626352077744600,4.83574462890625,-0.25025618076324463,-0.19760531187057495,0.418080598115921
1780626352087739600,4.84573974609375,-0.24980004131793976,0.08532440662384033,0.6189979910850525
1780626352097734700,4.855734619140625,-0.2622726857662201,0.3295469284057617,0.7121742367744446
1780626352107731000,4.86573095703125,-0.2679571509361267,0.5133599042892456,0.7070220112800598
1780626352117726000,4.875725830078125,-0.2632204592227936,0.6369068622589111,0.6465131640434265
1780626352127721000,4.885720947265625,-0.2541486918926239,0.7111284136772156,0.5758338570594788
1780626352137716700,4.895716796875,-0.26362982392311096,0.708105206489563,0.5147169828414917
1780626352147711700,4.905711669921875,-0.29881271719932556,0.6132343411445618,0.4737095236778259
1780626352157706800,4.915706787109375,-0.3410121202468872,0.45648816227912903,0.4725542366504669
1780626352167703000,4.925703125,-0.37760302424430847,0.2890620827674866,0.5172366499900818
1780626352177697800,4.93569775390625,-0.40289318561553955,0.1635819375514984,0.5897233486175537
1780626352187692800,4.94569287109375,-0.41988131403923035,0.13662579655647278,0.6644365191459656
1780626352197688800,4.955688720703125,-0.43428024649620056,0.21361485123634338,0.7195298671722412
1780626352207683800,4.965683837890625,-0.44174203276634216,0.3577255606651306,0.7410265207290649
1780626352217678800,4.975678955078125,-0.43503645062446594,0.5217509865760803,0.7404369115829468
1780626352227674600,4.985674560546875,-0.4155969023704529,0.6550394892692566,0.7295758128166199
1780626352237669600,4.995669677734375,-0.3782180845737457,0.7122897505760193,0.7108314037322998
1780626352247664600,5.00566455078125,-0.33204612135887146,0.6904160380363464,0.6888598799705505
1780626352257661000,5.015660888671875,-0.28010863065719604,0.5884371995925903,0.6695418357849121
1780626352267656000,5.025656005859375,-0.22732508182525635,0.4258567690849304,0.6603748202323914
1780626352277651000,5.03565087890625,-0.1779247671365738,0.251236230134964,0.6608952283859253
1780626352287646700,5.045646728515625,-0.13653801381587982,0.0957467183470726,0.6555401682853699
1780626352297641700,5.055641845703125,-0.10673485696315765,-0.01677929051220417,0.6395257711410522
1780626352307636700,5.06563671875,-0.08855929225683212,-0.09566248953342438,0.6119168996810913
1780626352317633000,5.075633056640625,-0.07497770339250565,-0.15832428634166718,0.5760270953178406
1780626352327627800,5.085627685546875,-0.07208415120840073,-0.22317998111248016,0.5389352440834045
1780626352337622800,5.095622802734375,-0.07474145293235779,-0.26728007197380066,0.5105632543563843
1780626352347617800,5.10561767578125,-0.0817442312836647,-0.2661837339401245,0.490925133228302
1780626352357612800,5.11561279296875,-0.09588214755058289,-0.20730949938297272,0.4767794907093048
1780626352367609000,5.125609130859375,-0.11927378922700882,-0.10307903587818146,0.4805721938610077
1780626352377604000,5.13560400390625,-0.14659330248832703,0.040762290358543396,0.4985080361366272
1780626352387599000,5.14559912109375,-0.17007075250148773,0.2130827009677887,0.526115894317627
1780626352397595000,5.155594970703125,-0.17563648521900177,0.39918091893196106,0.5516643524169922
1780626352407590000,5.16558984375,-0.1693846881389618,0.577006995677948,0.5537382960319519
1780626352417585000,5.1755849609375,-0.15583506226539612,0.7164953947067261,0.5249247550964355
1780626352427581000,5.185580810546875,-0.1376686543226242,0.8121468424797058,0.4628916382789612
1780626352437576000,5.195575927734375,-0.12126412987709045,0.8570435047149658,0.39305344223976135
1780626352447571000,5.205571044921875,-0.10407046973705292,0.8428512811660767,0.32290294766426086
1780626352457567000,5.21556689453125,-0.07938297092914581,0.7803236842155457,0.28471773862838745
1780626352467562000,5.22556201171875,-0.050447456538677216,0.6880912184715271,0.278100848197937
1780626352477557000,5.235556884765625,-0.023246727883815765,0.5831863880157471,0.2925453186035156
1780626352487552800,5.245552734375,-0.01281523797661066,0.47380009293556213,0.3060918152332306
1780626352497547800,5.2555478515625,-0.017214514315128326,0.3854265511035919,0.30732911825180054
1780626352507542800,5.265542724609375,-0.0336538702249527,0.30749285221099854,0.29732629656791687
1780626352517539000,5.2755390625,-0.052896808832883835,0.23534807562828064,0.2789829671382904
1780626352527534000,5.2855341796875,-0.07002375274896622,0.17256605625152588,0.2563132643699646
1780626352537529000,5.295529052734375,-0.07610401511192322,0.12033826857805252,0.2307991087436676
1780626352547524900,5.30552490234375,-0.07182302325963974,0.04619597643613815,0.2002761960029602
1780626352557520000,5.315519775390625,-0.05112254619598389,-0.05934989079833031,0.17343606054782867
1780626352567515000,5.325514892578125,-0.022913724184036255,-0.14501911401748657,0.15211699903011322
1780626352577511000,5.335510986328125,0.004536542575806379,-0.14801223576068878,0.13320162892341614
1780626352587506000,5.345505859375,0.012144127860665321,-0.049241457134485245,0.10883796960115433
1780626352597501000,5.3555009765625,0.006138167809695005,0.1304878294467926,0.08155281841754913
1780626352607497000,5.3654970703125,0.0007047210820019245,0.3535672724246979,0.05921715497970581
1780626352617492000,5.375491943359375,-0.003342484589666128,0.5494283437728882,0.04694370925426483
1780626352627487000,5.385487060546875,0.002909107133746147,0.6621770262718201,0.05399158596992493
1780626352637483000,5.39548291015625,0.024333437904715538,0.6562288403511047,0.08266770839691162
1780626352647477800,5.405477783203125,0.06026547774672508,0.5297445058822632,0.11546027660369873
1780626352657472800,5.41547265625,0.09886959940195084,0.32011833786964417,0.15454189479351044
1780626352667469000,5.425468994140625,0.12553352117538452,0.10676369071006775,0.18549643456935883
1780626352677464000,5.435464111328125,0.13478240370750427,-0.05877600237727165,0.19523827731609344
1780626352687459000,5.445458984375,0.1329556107521057,-0.160067617893219,0.1875545233488083
1780626352697454800,5.455454833984375,0.12495654076337814,-0.21496468782424927,0.17017421126365662
1780626352707449900,5.465449951171875,0.11700114607810974,-0.2100726217031479,0.15266738831996918
1780626352717444900,5.47544482421875,0.11209453642368317,-0.13035115599632263,0.132976233959198
1780626352727441000,5.48544091796875,0.10311099141836166,0.0070136794820427895,0.12127892673015594
1780626352737436000,5.495435791015625,0.08626090735197067,0.15887725353240967,0.12420041114091873
1780626352747431000,5.505430908203125,0.06924645602703094,0.3108726441860199,0.14303624629974365
1780626352757427000,5.515427001953125,0.052449896931648254,0.4347764849662781,0.19365841150283813
1780626352767422000,5.525421875,0.047909755259752274,0.5106108784675598,0.256742388010025
1780626352777417000,5.5354169921875,0.056164223700761795,0.5470452904701233,0.3055115342140198
1780626352787413000,5.5454130859375,0.06672406196594238,0.5784227252006531,0.3122037649154663
1780626352797407700,5.55540771484375,0.07443098723888397,0.6303642392158508,0.26507702469825745
1780626352807404000,5.565404052734375,0.05779384449124336,0.7148374319076538,0.18468667566776276
1780626352817399000,5.57539892578125,0.03254014998674393,0.8257964253425598,0.08906053751707077
1780626352827394000,5.58539404296875,0.009642728604376316,0.9212026596069336,-0.016496337950229645
1780626352837389800,5.595389892578125,0.0012356620281934738,0.9750693440437317,-0.10796154290437698
1780626352847384800,5.605384765625,0.01765482686460018,1.0158394575119019,-0.16417856514453888
1780626352857379800,5.6153798828125,0.06590091437101364,1.0714832544326782,-0.1674470603466034
1780626352867375900,5.6253759765625,0.12435723841190338,1.1609383821487427,-0.13775014877319336
1780626352877371000,5.635370849609375,0.16258718073368073,1.270967960357666,-0.0938388779759407
1780626352887366000,5.645365966796875,0.15912699699401855,1.3539177179336548,-0.05467017740011215
1780626352897362000,5.65536181640625,0.14000204205513,1.3714138269424438,-0.02595118060708046
1780626352907357000,5.66535693359375,0.12052543461322784,1.2953540086746216,-0.009757207706570625
1780626352917352000,5.67535205078125,0.10896626114845276,1.1272683143615723,-0.0068189422599971294
1780626352927348000,5.685347900390625,0.1129620224237442,0.8866934776306152,-0.014619252644479275
1780626352937343000,5.695343017578125,0.1373017132282257,0.6246275305747986,-0.036246251314878464
1780626352947338000,5.705337890625,0.15451779961585999,0.3949243724346161,-0.06565624475479126
1780626352957334000,5.715333984375,0.16121645271778107,0.20297037065029144,-0.09869275987148285
1780626352967329000,5.7253291015625,0.16420994699001312,0.07486634701490402,-0.11676479130983353
1780626352977324000,5.735323974609375,0.2001248002052307,-0.045297879725694656,-0.09111162275075912
1780626352987320000,5.745320068359375,0.254508376121521,-0.15683017671108246,-0.02565077506005764
1780626352997314800,5.755314697265625,0.3100390136241913,-0.29647329449653625,0.09830579161643982
1780626353007309800,5.765309814453125,0.4364657998085022,-0.42774587869644165,0.22070609033107758
1780626353017305900,5.775305908203125,0.5052433013916016,-0.41161033511161804,0.24397359788417816
1780626353027300900,5.78530078125,0.44795510172843933,-0.18895332515239716,0.1705837994813919
1780626353037295900,5.7952958984375,0.4052944481372833,0.12473082542419434,0.11390640586614609
1780626353047292000,5.8052919921875,0.40567195415496826,0.4784711003303528,0.08755408227443695
1780626353057287000,5.815286865234375,0.4636646807193756,0.8916919827461243,0.020695950835943222
1780626353067282000,5.825281982421875,0.5208197236061096,1.2823328971862793,-0.059479136019945145
1780626353077278000,5.83527783203125,0.5736661553382874,1.5346357822418213,-0.10970715433359146
1780626353087273000,5.84527294921875,0.5841408967971802,1.5652097463607788,-0.09193845093250275
1780626353097268000,5.85526806640625,0.5227084159851074,1.4091416597366333,-0.02914697304368019
1780626353107264000,5.865263916015625,0.35696884989738464,1.0835860967636108,0.07653045654296875
1780626353117259000,5.875259033203125,0.2219947874546051,0.7575064897537231,0.17416752874851227
1780626353127254000,5.88525390625,0.21520596742630005,0.5786696076393127,0.21575455367565155
1780626353137250000,5.89525,0.27667543292045593,0.5265683531761169,0.19074001908302307
1780626353147245000,5.9052451171875,0.34335318207740784,0.5502195954322815,0.13251514732837677
1780626353157239800,5.91523974609375,0.41510647535324097,0.6375435590744019,0.05388745665550232
1780626353167235800,5.92523583984375,0.3992941677570343,0.6988306045532227,-0.029008222743868828
1780626353177230800,5.93523095703125,0.2952788472175598,0.7951619029045105,-0.1195937842130661
1780626353187225900,5.945225830078125,0.19051872193813324,0.969322919845581,-0.1761348992586136
1780626353197222000,5.955221923828125,0.17132772505283356,1.1762194633483887,-0.1715920865535736
1780626353207217000,5.965216796875,0.20216016471385956,1.317297101020813,-0.11265864223241806
1780626353217212000,5.9752119140625,0.3019666373729706,1.2691689729690552,0.005108734592795372
1780626353227208000,5.9852080078125,0.40957126021385193,1.1465567350387573,0.09203528612852097
1780626353237203000,5.995202880859375,0.45987996459007263,1.068571925163269,0.09056282788515091
1780626353247198700,6.00519873046875,0.468159556388855,1.1138373613357544,0.012844506651163101
1780626353257194000,6.015194091796875,0.5117445588111877,1.233923077583313,-0.07001256197690964
1780626353267189000,6.02518896484375,0.5850760340690613,1.3889379501342773,-0.11658032983541489
1780626353277185000,6.03518505859375,0.6672806739807129,1.5272351503372192,-0.10816393792629242
1780626353287180000,6.045179931640625,0.7078789472579956,1.607645869255066,-0.049359388649463654
1780626353297175000,6.055175048828125,0.5936248302459717,1.5266389846801758,0.07294255495071411
1780626353307170800,6.0651708984375,0.402205228805542,1.4663305282592773,0.19483597576618195
1780626353317165800,6.075165771484375,0.31520748138427734,1.5543344020843506,0.27524131536483765
1780626353327160800,6.085160888671875,0.3366433084011078,1.696113109588623,0.3184404671192169
1780626353337157000,6.0951572265625,0.3533029854297638,1.7987110614776611,0.32769548892974854
1780626353347152100,6.105152099609375,0.34065356850624084,1.8762651681900024,0.29830557107925415
1780626353357147400,6.1151474609375,0.33484947681427,1.9033126831054688,0.24535657465457916
1780626353367143400,6.125143310546875,0.3537960350513458,1.791029691696167,0.20335471630096436
1780626353377138400,6.135138427734375,0.3827957212924957,1.4684317111968994,0.21504412591457367
1780626353387133400,6.145133544921875,0.4045732915401459,1.037236213684082,0.263103187084198
1780626353397129200,6.155129150390625,0.43897441029548645,0.6425469517707825,0.3140507638454437
1780626353407124200,6.165124267578125,0.49985453486442566,0.38469913601875305,0.385414183139801
1780626353417119200,6.175119140625,0.48860108852386475,0.17793981730937958,0.4951830208301544
1780626353427115500,6.185115478515625,0.44674062728881836,-0.030188675969839096,0.6244473457336426
1780626353437110500,6.195110595703125,0.40311217308044434,-0.08724796772003174,0.677609384059906
1780626353447105300,6.205105224609375,0.36586111783981323,-0.033778317272663116,0.6499230861663818
1780626353457101300,6.215101318359375,0.28959110379219055,0.06364411115646362,0.5808696746826172
1780626353467096300,6.225096435546875,0.2277582883834839,0.15406474471092224,0.5201362371444702
1780626353477091300,6.23509130859375,0.2196502983570099,0.23541127145290375,0.48991066217422485
1780626353487087400,6.24508740234375,0.2789836525917053,0.3437880873680115,0.4646274149417877
1780626353497082000,6.25508203125,0.3269200325012207,0.4241841435432434,0.4450094997882843
1780626353507077400,6.265077392578125,0.3227666914463043,0.46867653727531433,0.42211565375328064
1780626353517073400,6.275073486328125,0.319172739982605,0.49047210812568665,0.396308034658432
1780626353527068400,6.285068359375,0.31489086151123047,0.5047118067741394,0.3610362112522125
1780626353537063400,6.2950634765625,0.2853201627731323,0.541428804397583,0.30370715260505676
1780626353547059200,6.30505908203125,0.2059064358472824,0.5867089629173279,0.21304649114608765
1780626353557054200,6.31505419921875,0.11300872266292572,0.5107055306434631,0.1338784396648407
1780626353567049200,6.32504931640625,0.053739313036203384,0.3378365635871887,0.07264401018619537
1780626353577045500,6.33504541015625,0.02344399131834507,0.13589997589588165,0.03833051398396492
1780626353587040500,6.34504052734375,-0.023959212005138397,0.07694434374570847,0.00536404550075531
1780626353597035500,6.355035400390625,-0.07023084163665771,0.14153239130973816,-0.03487818315625191
1780626353607031300,6.36503125,-0.10163259506225586,0.18935641646385193,-0.06487665325403214
1780626353617026300,6.3750263671875,-0.16165012121200562,0.014374474063515663,-0.06212747469544411
1780626353627021300,6.385021240234375,-0.21098008751869202,-0.08926378935575485,-0.08776448667049408
1780626353637017300,6.395017333984375,-0.24393989145755768,-0.025202246382832527,-0.14348021149635315
1780626353647012400,6.405012451171875,-0.2538873851299286,0.09578847885131836,-0.19829551875591278
1780626353657007400,6.41500732421875,-0.22614151239395142,0.19725997745990753,-0.23233604431152344
1780626353667003400,6.42500341796875,-0.18313615024089813,0.2823996841907501,-0.24193230271339417
1780626353676998400,6.434998291015625,-0.14379805326461792,0.36252009868621826,-0.2351849228143692
1780626353686993400,6.444993408203125,-0.11662042140960693,0.4222821891307831,-0.22138778865337372
1780626353696989200,6.4549892578125,-0.09648292511701584,0.4222472906112671,-0.19479480385780334
1780626353706984200,6.464984130859375,-0.08384936302900314,0.3678254783153534,-0.15892226994037628
1780626353716979200,6.474979248046875,-0.0658506527543068,0.2985215187072754,-0.12723731994628906
1780626353726975500,6.4849755859375,-0.035573337227106094,0.2548275291919708,-0.1002044603228569
1780626353736970500,6.494970458984375,0.011320668272674084,0.23451265692710876,-0.0844382792711258
1780626353746965500,6.504965576171875,0.07384338229894638,0.18323734402656555,-0.07307031005620956
1780626353756961300,6.514961181640625,0.12223833799362183,0.046015314757823944,-0.06826543807983398
1780626353766956300,6.524956298828125,0.1303461194038391,-0.16241061687469482,-0.06667429208755493
1780626353776952300,6.534952392578125,0.10234590619802475,-0.36014872789382935,-0.05744616687297821
1780626353786947300,6.544947265625,0.06588094681501389,-0.45307657122612,-0.035728976130485535
1780626353796942300,6.5549423828125,0.03918435424566269,-0.4043881297111511,-0.014623424969613552
1780626353806938400,6.5649384765625,0.025038599967956543,-0.2623446583747864,0.0027359467931091785
1780626353816933400,6.574933349609375,0.022406864911317825,-0.0957852452993393,0.01994236372411251
1780626353826928400,6.584928466796875,0.028179200366139412,0.023528654128313065,0.04918147623538971
1780626353836924400,6.59492431640625,0.03765739127993584,0.08944162726402283,0.08113221824169159
1780626353846919400,6.60491943359375,0.04304487258195877,0.11756507307291031,0.10864205658435822
1780626353856914200,6.6149140625,0.04608966410160065,0.11642896384000778,0.1270362287759781
1780626353866910500,6.624910400390625,0.0484820231795311,0.07538910955190659,0.1404923051595688
1780626353876905500,6.634905517578125,0.05251751095056534,-0.004060709848999977,0.14434483647346497
1780626353886900500,6.644900390625,0.06028730422258377,-0.07432076334953308,0.13290904462337494
1780626353896896300,6.654896240234375,0.06228867173194885,-0.09810385853052139,0.11055819690227509
1780626353906891300,6.664891357421875,0.05356866121292114,-0.07907769829034805,0.0761420801281929
1780626353916886300,6.67488623046875,0.04005897790193558,-0.04672455042600632,0.043900784105062485
1780626353926882300,6.68488232421875,0.036363065242767334,-0.040955089032649994,0.022563891485333443
1780626353936877300,6.694877197265625,0.05064559727907181,-0.07100912928581238,0.01923627033829689
1780626353946872300,6.704872314453125,0.06680464744567871,-0.11966579407453537,0.026450153440237045
1780626353956868400,6.714868408203125,0.06908537447452545,-0.16397441923618317,0.02864246815443039
1780626353966863400,6.72486328125,0.04791632667183876,-0.18904119729995728,0.017265265807509422
1780626353976858400,6.7348583984375,0.016889967024326324,-0.1768609583377838,0.0021102812606841326
1780626353986854400,6.7448544921875,-0.008699677884578705,-0.12073159962892532,-0.003318571951240301
1780626353996849400,6.754849365234375,-0.03166411817073822,-0.036013517528772354,0.005484240595251322
1780626354006844200,6.76484423828125,-0.049961041659116745,0.05696982890367508,0.024995356798171997
1780626354016840400,6.77484033203125,-0.06158946827054024,0.13726946711540222,0.04107179492712021
1780626354026835500,6.78483544921875,-0.06129300221800804,0.17019200325012207,0.05426474288105965
1780626354036830500,6.79483056640625,-0.05660344287753105,0.1532052904367447,0.05680247023701668
1780626354046826200,6.804826171875,-0.05072735995054245,0.0979711040854454,0.05671147629618645
1780626354056821200,6.8148212890625,-0.041743986308574677,0.022231873124837875,0.05579854175448418
1780626354066816300,6.824816162109375,-0.03328549116849899,-0.06049780547618866,0.0496552549302578
1780626354076812300,6.834812255859375,-0.022820865735411644,-0.145350381731987,0.044518813490867615
1780626354086807300,6.844807373046875,-0.008700275793671608,-0.23533964157104492,0.045206353068351746
1780626354096802300,6.85480224609375,0.011049993336200714,-0.33377593755722046,0.04668200761079788
1780626354106798300,6.86479833984375,0.018768582493066788,-0.4035734534263611,0.03979542851448059
1780626354116793300,6.87479345703125,0.006486350670456886,-0.4086630344390869,0.020468339323997498
1780626354126788400,6.884788330078125,-0.013791397213935852,-0.34298384189605713,-0.005963712465018034
1780626354136784400,6.894784423828125,-0.02587229572236538,-0.2257208675146103,-0.029707390815019608
1780626354146779400,6.904779296875,-0.016542155295610428,-0.102515310049057,-0.03604935482144356
1780626354156774400,6.9147744140625,0.005813485011458397,-0.01859245076775551,-0.017809096723794937
1780626354166770400,6.9247705078125,0.03406821936368942,-0.0023594903759658337,0.005673058331012726
1780626354176765400,6.934765380859375,0.049548108130693436,-0.05211586132645607,0.0219444390386343
1780626354186760400,6.944760498046875,0.055422306060791016,-0.12908896803855896,0.02748967334628105
1780626354196756500,6.954756591796875,0.061927344650030136,-0.19749146699905396,0.030807174742221832
1780626354206751200,6.964751220703125,0.07317004352807999,-0.24530404806137085,0.029289880767464638
1780626354216746200,6.974746337890625,0.08047456294298172,-0.2556155323982239,0.02719716913998127
1780626354226742300,6.9847421875,0.07889251410961151,-0.22390113770961761,0.015330834314227104
1780626354236737300,6.9947373046875,0.06614342331886292,-0.16484127938747406,-0.002866811351850629
1780626354246732300,7.004732177734375,0.046425044536590576,-0.09578531980514526,-0.010877333581447601
1780626354256728300,7.014728271484375,0.027170388028025627,-0.031522445380687714,-0.007503641303628683
1780626354266723300,7.024723388671875,0.01652098074555397,0.011891858652234077,0.004937759600579739
1780626354276718300,7.03471826171875,0.007150116376578808,0.019997457042336464,0.018849313259124756
1780626354286714400,7.04471435546875,-0.0031177138444036245,-0.009688695892691612,0.031320009380578995
1780626354296709400,7.05470947265625,-0.0054027060978114605,-0.05755395442247391,0.037029560655355453
1780626354306704400,7.064704345703125,-0.004445255734026432,-0.0877254530787468,0.03660363331437111
1780626354316700400,7.074700439453125,-0.005980301648378372,-0.08614912629127502,0.03142192214727402
1780626354326695400,7.0846953125,-0.006170111708343029,-0.06908958405256271,0.02485758252441883
1780626354336690400,7.0946904296875,-0.001656852662563324,-0.06102047115564346,0.017562385648489
1780626354346687000,7.10468701171875,0.007750862278044224,-0.07096172124147415,0.020182225853204727
1780626354356682000,7.114681884765625,0.016924919560551643,-0.08610764890909195,0.02321130596101284
1780626354366677000,7.124677001953125,0.023138215765357018,-0.09670795500278473,0.022404903545975685
1780626354376673000,7.134673095703125,0.02435181848704815,-0.09789466112852097,0.016558997333049774
1780626354386668000,7.14466796875,0.02504313737154007,-0.08590422570705414,0.013458186760544777
1780626354396664000,7.1546640625,0.02776222676038742,-0.07058092951774597,0.01287761889398098
1780626354406659000,7.1646591796875,0.02875632792711258,-0.061935387551784515,0.009865052066743374
1780626354416654000,7.174654052734375,0.02736669033765793,-0.05282871052622795,0.00302632013335824
1780626354426650000,7.184650146484375,0.02254863642156124,-0.039306726306676865,-0.010733166709542274
1780626354436645000,7.19464501953125,0.015614829957485199,-0.013685520738363266,-0.023749366402626038
1780626354446640000,7.20464013671875,0.006051092874258757,0.027149083092808723,-0.03261547535657883
1780626354456636000,7.214635986328125,-0.0048630740493535995,0.06394518166780472,-0.030026882886886597
1780626354466631200,7.224631103515625,-0.014103297144174576,0.08571746945381165,-0.018233604729175568
1780626354476626200,7.234626220703125,-0.016622381284832954,0.07245253026485443,-0.003771841526031494
1780626354486622200,7.244622314453125,-0.010077446699142456,0.03453622758388519,0.0039056071545928717
1780626354496617000,7.254616943359375,-0.014538240619003773,0.0018389991018921137,0.0034046664368361235
1780626354506612000,7.264612060546875,-0.020799951627850533,0.0047072554007172585,0.0006279661320149899
1780626354516608000,7.27460791015625,-0.02801472134888172,0.04110920429229736,0.0017526191659271717
1780626354526603000,7.28460302734375,-0.03455602005124092,0.09017503261566162,0.004844638053327799
1780626354536598000,7.294597900390625,-0.03550277277827263,0.1297117918729782,0.008610880002379417
1780626354546594000,7.304593994140625,-0.031641922891139984,0.14103393256664276,0.013779276981949806
1780626354556589000,7.314589111328125,-0.01988273672759533,0.11709744483232498,0.019170846790075302
1780626354566584000,7.324583984375,-0.00998971238732338,0.06708783656358719,0.023966046050190926
1780626354576580000,7.334580078125,0.000193682499229908,0.008892437443137169,0.018495913594961166
1780626354586575000,7.3445751953125,0.010559352114796638,-0.04696624353528023,0.004413295537233353
1780626354596570000,7.354570068359375,0.015061158686876297,-0.09122159332036972,-0.01636335626244545
1780626354606566000,7.36456591796875,0.013922901824116707,-0.11325125396251678,-0.03669214993715286
1780626354616561200,7.37456103515625,0.0033128680661320686,-0.10421248525381088,-0.050312887877225876
1780626354626556200,7.38455615234375,-0.004339622799307108,-0.06543006747961044,-0.051019784063100815
1780626354636552200,7.39455224609375,-0.01116397324949503,-0.02455933392047882,-0.040190570056438446
1780626354646547200,7.404547119140625,-0.019856702536344528,-0.001287503750063479,-0.030211083590984344
1780626354656542000,7.4145419921875,-0.026981189846992493,-0.01037181168794632,-0.02260669507086277
1780626354666538000,7.4245380859375,-0.02509734407067299,-0.04413171485066414,-0.02536572888493538
1780626354676533000,7.434532958984375,-0.025373781099915504,-0.09729693084955215,-0.03673423081636429
1780626354686528000,7.444528076171875,-0.025197066366672516,-0.15263719856739044,-0.06019925698637962
1780626354696524000,7.45452392578125,-0.023550167679786682,-0.18018440902233124,-0.09227543324232101
1780626354706519000,7.46451904296875,-0.018457943573594093,-0.17508497834205627,-0.12217961996793747
1780626354716514000,7.47451416015625,-0.016900792717933655,-0.13584941625595093,-0.14676512777805328
1780626354726510000,7.484510009765625,-0.026131536811590195,-0.07469145953655243,-0.15387719869613647
1780626354736505000,7.494505126953125,-0.035747677087783813,-0.017894215881824493,-0.14558809995651245
1780626354746500000,7.5045,-0.0439070425927639,0.02441258169710636,-0.12499911338090897
1780626354756496000,7.514495849609375,-0.047602977603673935,0.04529149457812309,-0.10148180276155472
1780626354766491100,7.5244912109375,-0.04247746616601944,0.06242777779698372,-0.08448737114667892
1780626354776486100,7.534486083984375,-0.036182016134262085,0.07257229089736938,-0.08342024683952332
1780626354786482200,7.544482177734375,-0.03786800056695938,0.06679720431566238,-0.09740450233221054
1780626354796477200,7.554477294921875,-0.042267806828022,0.043270036578178406,-0.11944429576396942
1780626354806472000,7.564471923828125,-0.03831598907709122,0.010615171864628792,-0.14531707763671875
1780626354816468000,7.574468017578125,-0.03093264065682888,-0.033361077308654785,-0.16826793551445007
1780626354826463000,7.584462890625,-0.03076920658349991,-0.06989667564630508,-0.18958503007888794
1780626354836458000,7.5944580078125,-0.0367962084710598,-0.07819961756467819,-0.19080369174480438
1780626354846454000,7.6044541015625,-0.04078038036823273,-0.05103081464767456,-0.1716066598892212
1780626354856449000,7.614448974609375,-0.04435780644416809,-0.0005695075960829854,-0.1341056227684021
1780626354866444000,7.624444091796875,-0.0482093021273613,0.041627924889326096,-0.09640172868967056
1780626354876440000,7.634440185546875,-0.04999122396111488,0.061237577348947525,-0.0724434033036232
1780626354886435000,7.64443505859375,-0.05092225596308708,0.06241452693939209,-0.07521442323923111
1780626354896430000,7.65443017578125,-0.04596131667494774,0.049620699137449265,-0.10129395872354507
1780626354906425900,7.66442578125,-0.04142215847969055,0.02937382273375988,-0.1392543911933899
1780626354916421000,7.674421142578125,-0.03610728681087494,0.009112760424613953,-0.17624597251415253
1780626354926416100,7.684416015625,-0.027212917804718018,0.00031642941758036613,-0.20196136832237244
1780626354936412200,7.694412109375,-0.020921198651194572,0.0016818320145830512,-0.2124619483947754
1780626354946407200,7.7044072265625,-0.018222808837890625,0.017190823331475258,-0.20221862196922302
1780626354956402200,7.714402099609375,-0.02163192257285118,0.0442165806889534,-0.1787007749080658
1780626354966398000,7.72439794921875,-0.026657776907086372,0.07340320199728012,-0.14558491110801697
1780626354976393000,7.73439306640625,-0.029632793739438057,0.091195248067379,-0.11364294588565826
1780626354986388000,7.744387939453125,-0.028919685631990433,0.10119252651929855,-0.08610249310731888
1780626354996384300,7.75438427734375,-0.02812659554183483,0.1037110760807991,-0.07395980507135391
1780626355006379000,7.76437890625,-0.021505167707800865,0.08393700420856476,-0.07068616151809692
1780626355016374000,7.7743740234375,-0.016217993572354317,0.0472189299762249,-0.08024797588586807
1780626355026370000,7.7843701171875,-0.014821656048297882,0.011895013973116875,-0.09459983557462692
1780626355036365000,7.794364990234375,-0.01750958524644375,-0.008766588754951954,-0.11092634499073029
1780626355046360000,7.804360107421875,-0.0164543017745018,-0.013084055855870247,-0.1239934116601944
1780626355056355800,7.81435595703125,-0.015143226832151413,-0.012326653115451336,-0.12794554233551025
1780626355066351000,7.82435107421875,-0.013275498524308205,-0.0019799256697297096,-0.11964935809373856
1780626355076346000,7.83434619140625,-0.014241427183151245,0.008548082783818245,-0.10751093178987503
1780626355086342100,7.844342041015625,-0.016018692404031754,0.020861690863966942,-0.08352117985486984
1780626355096337200,7.854337158203125,-0.02659490332007408,0.0367911234498024,-0.061741314828395844
1780626355106332200,7.864332275390625,-0.04219529777765274,0.06778477877378464,-0.04755145683884621
1780626355116328000,7.874327880859375,-0.0630079060792923,0.11385560035705566,-0.0395212285220623
1780626355126323000,7.884322998046875,-0.07401479780673981,0.16108295321464539,-0.039019931107759476
1780626355136318000,7.89431787109375,-0.0813312977552414,0.1976683884859085,-0.039496373385190964
1780626355146314200,7.904314208984375,-0.07335499674081802,0.22404837608337402,-0.039495840668678284
1780626355156309200,7.914309326171875,-0.05887565389275551,0.22411468625068665,-0.045086346566677094
1780626355166304000,7.924303955078125,-0.0366058312356472,0.20998026430606842,-0.06017288938164711
1780626355176300000,7.934300048828125,-0.032891787588596344,0.3630041480064392,-0.00192289799451828
1780626355186295000,7.944294921875,-0.03954072669148445,0.5029855370521545,0.06851815432310104
1780626355196290000,7.9542900390625,-0.042015332728624344,0.655816376209259,0.16821785271167755
1780626355206286000,7.9642861328125,-0.04459557309746742,0.7090170979499817,0.20520560443401337
1780626355216281000,7.974281005859375,-0.029791593551635742,0.8354320526123047,0.2275141179561615
1780626355226276000,7.984276123046875,-0.02728351205587387,0.9767197370529175,0.22233682870864868
1780626355236272000,7.994272216796875,-0.03979664295911789,0.8655138611793518,0.08351530134677887
1780626355246267100,8.00426708984375,-0.041965924203395844,0.625940203666687,-0.09157706797122955
1780626355256262100,8.01426220703125,-0.031983330845832825,0.40174251794815063,-0.2321525514125824
1780626355266258000,8.0242578125,-0.016710910946130753,0.2347646802663803,-0.31082090735435486
1780626355276253000,8.0342529296875,0.0011141574941575527,0.13026463985443115,-0.3248802721500397
1780626355286248000,8.044248046875,-0.003556877840310335,0.10433445125818253,-0.287970632314682
1780626355296244200,8.054244140625,-0.04629635438323021,0.15617740154266357,-0.22008107602596283
1780626355306239200,8.0642392578125,-0.10923036187887192,0.2243395894765854,-0.16768327355384827
1780626355316234000,8.07423388671875,-0.1404133290052414,0.2534242570400238,-0.1711547076702118
1780626355326230000,8.08422998046875,-0.13821515440940857,0.2297467291355133,-0.24164468050003052
1780626355336225000,8.09422509765625,-0.13976751267910004,0.18010887503623962,-0.33013540506362915
1780626355346220300,8.10422021484375,-0.14103321731090546,0.11433213949203491,-0.3979952931404114
1780626355356215300,8.11421533203125,-0.1321856528520584,0.050629060715436935,-0.4287910461425781
1780626355366210300,8.124210205078125,-0.13096077740192413,0.026159970089793205,-0.43223515152931213
1780626355376206000,8.1342060546875,-0.15407301485538483,0.05808168277144432,-0.4136880934238434
1780626355386201000,8.144201171875,-0.20086483657360077,0.11373282968997955,-0.39243853092193604
1780626355396196000,8.154196044921875,-0.25675395131111145,0.19764289259910583,-0.364498496055603
1780626355406192000,8.164192138671876,-0.3155154883861542,0.29735657572746277,-0.3227735459804535
1780626355416187400,8.1741875,-0.3716520071029663,0.3825732171535492,-0.28584057092666626
1780626355426182100,8.18418212890625,-0.40683403611183167,0.4561062157154083,-0.294888973236084
1780626355436178200,8.19417822265625,-0.4113185405731201,0.5107929110527039,-0.37111905217170715
1780626355446173200,8.204173095703124,-0.38316982984542847,0.5097014904022217,-0.49080967903137207
1780626355456168200,8.214168212890625,-0.3302818536758423,0.4343987703323364,-0.611565113067627
1780626355466164200,8.224164306640626,-0.2738543748855591,0.32391074299812317,-0.6977667808532715
1780626355476159000,8.234158935546875,-0.20567265152931213,0.18355628848075867,-0.7995562553405762
1780626355486154000,8.244154052734375,-0.1415853649377823,0.10547573119401932,-0.8703964948654175
1780626355496150300,8.254150390625,-0.17967788875102997,0.19341278076171875,-0.7901168465614319
1780626355506145300,8.264145263671875,-0.2612125277519226,0.37001264095306396,-0.6410765647888184
1780626355516140300,8.274140380859375,-0.30296769738197327,0.5419015288352966,-0.519454836845398
1780626355526136000,8.284135986328126,-0.32595279812812805,0.5331694483757019,-0.42435625195503235
1780626355536131000,8.294131103515625,-0.3367673456668854,0.3663937747478485,-0.3434446156024933
1780626355546126000,8.3041259765625,-0.3005336821079254,0.11866635084152222,-0.31427520513534546
1780626355556122000,8.3141220703125,-0.2549012005329132,-0.13564902544021606,-0.3213520050048828
1780626355566117400,8.324117431640625,-0.21248602867126465,-0.4205991327762604,-0.3250373899936676
1780626355576112400,8.3341123046875,-0.1692168414592743,-0.6618248224258423,-0.3218570649623871
1780626355586108200,8.344108154296874,-0.1431402564048767,-0.7591117024421692,-0.3112756013870239
1780626355596103200,8.354103271484375,-0.14885087311267853,-0.6945201754570007,-0.2582259774208069
1780626355606098200,8.36409814453125,-0.16121834516525269,-0.5356184244155884,-0.17333939671516418
1780626355616094200,8.37409423828125,-0.1684674620628357,-0.3471722900867462,-0.08528169989585876
1780626355626089200,8.384089111328125,-0.1759030520915985,-0.18464581668376923,-0.016514182090759277
1780626355636084000,8.394083984375,-0.17651452124118805,-0.08085229992866516,0.029175277799367905
1780626355646080300,8.404080322265624,-0.18056939542293549,-0.026207605376839638,0.05859024450182915
1780626355656075300,8.4140751953125,-0.17719224095344543,-0.02574474737048149,0.07491809129714966
1780626355666070300,8.4240703125,-0.16530409455299377,-0.07406267523765564,0.07442886382341385
1780626355676066000,8.434066162109374,-0.1401369571685791,-0.15958769619464874,0.05566662922501564
1780626355686061000,8.44406103515625,-0.12064401060342789,-0.2615302801132202,0.043549247086048126
1780626355696056000,8.45405615234375,-0.12317987531423569,-0.37605020403862,0.04881111904978752
1780626355706052000,8.464052001953124,-0.14547638595104218,-0.5005800127983093,0.06461858004331589
1780626355716047400,8.47404736328125,-0.1818343847990036,-0.6245352625846863,0.07433991134166718
1780626355726042400,8.48404248046875,-0.2203117161989212,-0.7196901440620422,0.08168268948793411
1780626355736038100,8.4940380859375,-0.25962233543395996,-0.7300924062728882,0.10017834603786469
1780626355746033200,8.504033203125,-0.2880275249481201,-0.6445095539093018,0.13006646931171417
1780626355756028200,8.514028076171876,-0.31060314178466797,-0.5287262201309204,0.16719652712345123
1780626355766024200,8.524024169921875,-0.3321196138858795,-0.4209389090538025,0.20224826037883759
1780626355776019200,8.534019287109375,-0.3601509630680084,-0.33009448647499084,0.22036494314670563
1780626355786014200,8.54401416015625,-0.38513126969337463,-0.24306286871433258,0.23076006770133972
1780626355796010200,8.55401025390625,-0.409233957529068,-0.16384448111057281,0.20281684398651123
1780626355806005200,8.564005126953125,-0.41881564259529114,-0.10283896327018738,0.1274530291557312
1780626355816000300,8.574000244140626,-0.4109233617782593,-0.06453844159841537,0.042792197316884995
1780626355825996300,8.583996337890625,-0.4097064733505249,-0.04794815182685852,0.0035600156988948584
1780626355835991000,8.593990966796875,-0.41598594188690186,-0.0572923868894577,-0.013042663224041462
1780626355845986000,8.603986083984376,-0.4307420253753662,-0.1201481893658638,-0.024997591972351074
1780626355855982000,8.613982177734375,-0.45471951365470886,-0.24528107047080994,-0.017896538600325584
1780626355865977300,8.623977294921875,-0.49518969655036926,-0.39605507254600525,0.003974316641688347
1780626355875972400,8.633972412109374,-0.5417177677154541,-0.5283406972885132,0.03721562772989273
1780626355885968100,8.643968017578125,-0.5784441828727722,-0.6312439441680908,0.10161378979682922
1780626355895963100,8.653963134765625,-0.5994030237197876,-0.6827207207679749,0.17933788895606995
1780626355905958100,8.663958251953124,-0.6112762093544006,-0.6526575088500977,0.2387329339981079
1780626355915954200,8.6739541015625,-0.5992600321769714,-0.6119500398635864,0.27136385440826416
1780626355925949200,8.68394921875,-0.5527995228767395,-0.6332758069038391,0.29470035433769226
1780626355935944200,8.693944091796874,-0.48619648814201355,-0.7027057409286499,0.31724774837493896
1780626355945940200,8.703940185546875,-0.4184191823005676,-0.8474311828613281,0.31702178716659546
1780626355955935200,8.713935302734376,-0.3495655655860901,-1.0910509824752808,0.23911181092262268
1780626355965930200,8.72393017578125,-0.2755230665206909,-1.4004770517349243,0.054422929883003235
1780626355975926300,8.73392626953125,-0.19655369222164154,-1.6458714008331299,-0.16814009845256805
1780626355985921000,8.743921142578126,-0.1699398308992386,-1.746586561203003,-0.28316646814346313
1780626355995916000,8.753916015625,-0.20048707723617554,-1.6603224277496338,-0.20794175565242767
1780626356005912000,8.763912109375,-0.24504053592681885,-1.3274515867233276,0.04854905977845192
1780626356015907300,8.7739072265625,-0.2638520300388336,-0.7809144258499146,0.36318156123161316
1780626356025902300,8.78390234375,-0.28741729259490967,-0.112345851957798,0.6087149381637573
1780626356035898000,8.793898193359375,-0.3086338937282562,0.5227522850036621,0.7277145385742188
1780626356045893000,8.80389306640625,-0.29934409260749817,0.9785689115524292,0.7199340462684631
1780626356055888100,8.81388818359375,-0.27791523933410645,1.1617848873138428,0.6325945854187012
1780626356065884200,8.82388427734375,-0.2459208071231842,1.041327953338623,0.5128023624420166
1780626356075879200,8.833879150390626,-0.19868351519107819,0.6178001761436462,0.4109918773174286
1780626356085874200,8.843874267578125,-0.14590585231781006,-0.029355769976973534,0.3494800627231598
1780626356095870200,8.8538701171875,-0.09758546948432922,-0.7283439040184021,0.312441349029541
1780626356105865200,8.863865234375,-0.08251234889030457,-1.3204253911972046,0.28757575154304504
1780626356115860200,8.873860107421875,-0.1254584789276123,-1.6888684034347534,0.2581331729888916
1780626356125856300,8.883856201171875,-0.20018653571605682,-1.8258304595947266,0.2113722413778305
1780626356135851300,8.893851318359374,-0.24824142456054688,-1.7594735622406006,0.14128929376602173
1780626356145846000,8.903845947265625,-0.2579151391983032,-1.5375221967697144,0.0759664848446846
1780626356155842000,8.913842041015625,-0.24670377373695374,-1.2204886674880981,0.06835783272981644
1780626356165837300,8.92383740234375,-0.23168407380580902,-0.8420307636260986,0.11845774948596954
1780626356175832300,8.933832275390625,-0.22109907865524292,-0.45570728182792664,0.15935911238193512
1780626356185828000,8.943828125,-0.20377229154109955,-0.10632967203855515,0.1557028442621231
1780626356195823000,8.953822998046874,-0.17787864804267883,0.18307311832904816,0.09949897229671478
1780626356205818000,8.963818115234375,-0.15479956567287445,0.4034770131111145,0.013320592232048512
1780626356215814100,8.973814208984376,-0.14262118935585022,0.5171282291412354,-0.08172815293073654
1780626356225809200,8.98380908203125,-0.1452074944972992,0.513623058795929,-0.16578657925128937
1780626356235804200,8.99380419921875,-0.152360200881958,0.42366519570350647,-0.21406090259552002
1780626356245800200,9.00380029296875,-0.1533525288105011,0.2568720877170563,-0.20164817571640015
1780626356255795200,9.013795166015624,-0.15675446391105652,0.02600184455513954,-0.13837119936943054
1780626356265790200,9.023790283203125,-0.1622077375650406,-0.2287612408399582,-0.04441345855593681
1780626356275786200,9.0337861328125,-0.17392271757125854,-0.3901945948600769,0.0503961406648159
1780626356285781200,9.04378125,-0.2021048367023468,-0.43972301483154297,0.10527954250574112
1780626356295776300,9.0537763671875,-0.2531171441078186,-0.45085981488227844,0.0995689257979393
1780626356305772000,9.06377197265625,-0.3067501485347748,-0.45948344469070435,0.05683539807796478
1780626356315767300,9.073767333984375,-0.34646666049957275,-0.473555326461792,0.010625826194882393
1780626356325762300,9.08376220703125,-0.36317530274391174,-0.436225950717926,-0.004329419694840908
1780626356335758300,9.09375830078125,-0.37118610739707947,-0.30859315395355225,0.02632143348455429
1780626356345753900,9.10375390625,-0.38281840085983276,-0.1069585382938385,0.07783149182796478
1780626356355748900,9.113748779296875,-0.37699994444847107,0.13733987510204315,0.12700410187244415
1780626356365745000,9.123744873046874,-0.33125045895576477,0.35430943965911865,0.17150366306304932
1780626356375740000,9.133739990234375,-0.25426435470581055,0.4644588530063629,0.21036797761917114
1780626356385735000,9.14373486328125,-0.1811947077512741,0.4825509786605835,0.22794997692108154
1780626356395730700,9.153730712890624,-0.1281922161579132,0.4730741083621979,0.2096378207206726
1780626356405725700,9.1637255859375,-0.09768155217170715,0.45980769395828247,0.16159075498580933
1780626356415720700,9.173720703125,-0.09440905600786209,0.42977815866470337,0.1121172085404396
1780626356425717000,9.183717041015624,-0.10618723928928375,0.35126978158950806,0.10129154473543167
1780626356435711700,9.193711669921875,-0.11586969345808029,0.20872807502746582,0.14374606311321259
1780626356445706800,9.203706787109375,-0.09700731933116913,0.037343110889196396,0.22254490852355957
1780626356455702800,9.213702880859374,-0.06428799033164978,-0.09505967795848846,0.2941879332065582
1780626356465697800,9.22369775390625,-0.04016643762588501,-0.11588148027658463,0.31868723034858704
1780626356475692800,9.23369287109375,-0.03276817500591278,-0.04500038921833038,0.2926338016986847
1780626356485688800,9.243688720703124,-0.02236461266875267,0.061389632523059845,0.23760171234607697
1780626356495683800,9.253683837890625,-0.007047440856695175,0.15518136322498322,0.17939700186252594
1780626356505678800,9.263678955078126,0.021714571863412857,0.20914238691329956,0.12737800180912018
1780626356515675000,9.2736748046875,0.05469142645597458,0.2274036854505539,0.11455781757831573
1780626356525670000,9.283669921875,0.07359902560710907,0.20737113058567047,0.15366747975349426
1780626356535665000,9.293664794921876,0.08057650923728943,0.11405530571937561,0.211703360080719
1780626356545660700,9.30366064453125,0.07808637619018555,-0.02408762462437153,0.2518320679664612
1780626356555655700,9.31365576171875,0.07968720048666,-0.12873920798301697,0.2560345232486725
1780626356565650700,9.323650634765626,0.08239324390888214,-0.13392874598503113,0.22020471096038818
1780626356575647000,9.33364697265625,0.07553214579820633,-0.03187880665063858,0.16173075139522552
1780626356585642000,9.34364208984375,0.05931247025728226,0.11893917620182037,0.10498828440904617
1780626356595636700,9.35363671875,0.036860689520835876,0.2530311942100525,0.06900258362293243
1780626356605632800,9.3636328125,0.011179221794009209,0.31801190972328186,0.059036679565906525
1780626356615627800,9.373627685546875,-0.005380047485232353,0.29251694679260254,0.06397471576929092
1780626356625622800,9.383622802734376,-0.024084139615297318,0.22409579157829285,0.06224454194307327
1780626356635618800,9.393618896484375,-0.05711878836154938,0.18465012311935425,0.027198147028684616
1780626356645613800,9.40361376953125,-0.09181663393974304,0.2254858762025833,-0.021338941529393196
1780626356655608800,9.41360888671875,-0.12415780127048492,0.31143009662628174,-0.06058222055435181
1780626356665604900,9.42360498046875,-0.16137729585170746,0.3806651830673218,-0.0701356828212738
1780626356675600000,9.433599853515625,-0.20382969081401825,0.3958401381969452,-0.03792794793844223
1780626356685595000,9.443594970703124,-0.23231007158756256,0.3437539041042328,0.025844106450676918
1780626356695590700,9.453590576171875,-0.22141215205192566,0.2546709179878235,0.0806969627737999
1780626356705585700,9.463585693359375,-0.17891429364681244,0.14593051373958588,0.0837961807847023
1780626356715580700,9.47358056640625,-0.12425290793180466,0.037971820682287216,0.031825121492147446
1780626356725577000,9.483576904296875,-0.06969822198152542,-0.03484942764043808,-0.031231964007019997
1780626356735572000,9.493572021484376,-0.03640817478299141,-0.07148653268814087,-0.07527798414230347
1780626356745566700,9.503566650390624,-0.035424187779426575,-0.07487411051988602,-0.08448381721973419
1780626356755562800,9.513562744140625,-0.05701390281319618,-0.025052228942513466,-0.06768912822008133
1780626356765557800,9.523557861328126,-0.08484535664319992,0.09203150123357773,-0.050057053565979004
1780626356775552800,9.533552734375,-0.09387853741645813,0.2948687970638275,-0.03412974998354912
1780626356785548800,9.543548828125,-0.07685990631580353,0.5434530973434448,-0.014969104900956154
1780626356795543800,9.553543701171876,-0.04307930916547775,0.7740112543106079,-0.0034908803645521402
1780626356805538800,9.563538818359374,-0.013806220144033432,0.90668123960495,-0.01784611865878105
1780626356815534800,9.573534912109375,-0.0028875258285552263,0.8959830403327942,-0.054818782955408096
1780626356825529900,9.58352978515625,-0.02042359486222267,0.7214751243591309,-0.09357257187366486
1780626356835524900,9.59352490234375,-0.04777905344963074,0.4253230690956116,-0.09949997067451477
1780626356845520600,9.603520751953125,-0.07282468676567078,0.06561174243688583,-0.05798687785863876
1780626356855515600,9.613515625,-0.08894027024507523,-0.28325995802879333,0.026706170290708542
1780626356865510700,9.6235107421875,-0.08562730252742767,-0.5344719886779785,0.13006478548049927
1780626356875507000,9.6335068359375,-0.06908880174160004,-0.670807957649231,0.22493484616279602
1780626356885502000,9.643501953125,-0.046415865421295166,-0.7184069156646729,0.28580376505851746
1780626356895497000,9.6534970703125,-0.01547259371727705,-0.72258061170578,0.30274200439453125
1780626356905492700,9.66349267578125,0.028793709352612495,-0.6754098534584045,0.2721695303916931
1780626356915487700,9.67348779296875,0.09532932937145233,-0.586010754108429,0.20128633081912994
1780626356925482800,9.683482666015625,0.17223651707172394,-0.48715150356292725,0.10507199168205261
1780626356935477800,9.693477783203125,0.23968879878520966,-0.415519654750824,0.011107414960861206
1780626356945473800,9.703473876953124,0.2683986723423004,-0.3862585127353668,-0.06358865648508072
1780626356955468800,9.71346875,0.250428169965744,-0.3867543935775757,-0.11413013190031052
1780626356965464800,9.72346484375,0.19352534413337708,-0.3974633514881134,-0.1325550377368927
1780626356975459800,9.7334599609375,0.11348191648721695,-0.3797447979450226,-0.13151612877845764
1780626356985454800,9.743454833984375,0.03205426037311554,-0.34574419260025024,-0.11362075805664062
1780626356995450600,9.75345068359375,-0.02101481519639492,-0.35625916719436646,-0.08209025859832764
1780626357005445600,9.763445556640624,-0.04161890223622322,-0.41924428939819336,-0.04408952593803406
1780626357015440600,9.773440673828125,-0.04667118564248085,-0.4943656921386719,-0.019224124029278755
1780626357025436000,9.783435791015625,-0.04987712204456329,-0.5573171973228455,-0.018540047109127045
1780626357035432000,9.793431884765624,-0.05051601305603981,-0.617650032043457,-0.0315684974193573
1780626357045427000,9.803427001953125,-0.050593264400959015,-0.685563325881958,-0.03389778733253479
1780626357055422000,9.813421875,-0.05843547731637955,-0.8357083201408386,-0.007083216682076454
1780626357065417700,9.823417724609374,-0.062377795577049255,-1.0993231534957886,0.038560524582862854
1780626357075412700,9.833412841796875,-0.0400402657687664,-1.2921730279922485,0.04183994233608246
1780626357085407700,9.84340771484375,-0.003686056938022375,-1.1899323463439941,-0.027728397399187088
1780626357095404000,9.853404052734374,0.02058492787182331,-0.7541697025299072,-0.10540614277124405
1780626357105398800,9.863398681640625,0.021544914692640305,-0.1419329047203064,-0.144094780087471
1780626357115393800,9.873393798828126,-0.004014773294329643,0.3901621401309967,-0.15954457223415375
1780626357125389800,9.883389892578125,-0.051340252161026,0.6597470045089722,-0.177423894405365
1780626357135384800,9.893384765625,-0.12605230510234833,0.5973025560379028,-0.21116560697555542
1780626357145379800,9.9033798828125,-0.21099261939525604,0.2866857051849365,-0.23225516080856323
1780626357155375600,9.913375732421875,-0.2805493175983429,-0.16063401103019714,-0.20818260312080383
1780626357165370600,9.92337060546875,-0.32153111696243286,-0.5969244241714478,-0.13300786912441254
1780626357175366000,9.933365966796876,-0.33105936646461487,-0.8578130006790161,-0.03186792880296707
1780626357185362000,9.94336181640625,-0.3394390344619751,-0.8555341362953186,0.049001000821590424
1780626357195357000,9.95335693359375,-0.35448721051216125,-0.6254578232765198,0.0726621225476265
1780626357205352000,9.96335205078125,-0.35855069756507874,-0.28122928738594055,0.02983085624873638
1780626357215347700,9.97334765625,-0.34478694200515747,0.07201211154460907,-0.06791967153549194
1780626357225342700,9.9833427734375,-0.3299899697303772,0.3484005630016327,-0.17198073863983154
1780626357235337700,9.993337646484376,-0.3287273645401001,0.48840346932411194,-0.22568364441394806
1780626357245334000,10.003333984375,-0.34761670231819153,0.5189411640167236,-0.2256515920162201
1780626357255328800,10.013328857421875,-0.3762401044368744,0.47937461733818054,-0.1855611652135849
1780626357265323800,10.02332373046875,-0.39129599928855896,0.3817732036113739,-0.12859277427196503
1780626357275319800,10.03331982421875,-0.3764382004737854,0.25437235832214355,-0.10340353846549988
1780626357285314800,10.043314697265625,-0.32883405685424805,0.12918682396411896,-0.12285633385181427
1780626357295309800,10.053309814453126,-0.26938724517822266,0.08891848474740982,-0.15388108789920807
1780626357305305600,10.0633056640625,-0.22336237132549286,0.13728488981723785,-0.1709791123867035
1780626357315300600,10.073300537109375,-0.20669259130954742,0.21059294044971466,-0.16580352187156677
1780626357325295900,10.0832958984375,-0.22639986872673035,0.28370893001556396,-0.15141962468624115
1780626357335292000,10.0932919921875,-0.2668316960334778,0.37009841203689575,-0.14498914778232574
1780626357345286700,10.10328662109375,-0.31623074412345886,0.45361238718032837,-0.13492125272750854
1780626357355281700,10.11328173828125,-0.346927672624588,0.518112301826477,-0.10896368324756622
1780626357365277400,10.12327734375,-0.3482219874858856,0.5351322293281555,-0.0804380401968956
1780626357375272400,10.1332724609375,-0.3091965615749359,0.508414626121521,-0.07137849926948547
1780626357385267500,10.143267333984374,-0.23234346508979797,0.4374796748161316,-0.08370200544595718
1780626357395263700,10.153263671875,-0.14337392151355743,0.3413859009742737,-0.10701052844524384
1780626357405258800,10.1632587890625,-0.06363313645124435,0.25412043929100037,-0.13761869072914124
1780626357415253800,10.173253662109374,-0.005498195998370647,0.23572278022766113,-0.14415594935417175
1780626357425249500,10.18324951171875,0.023615621030330658,0.28953251242637634,-0.14060622453689575
1780626357435244500,10.19324462890625,0.03914477676153183,0.32639279961586,-0.11952249705791473
1780626357445239600,10.203239501953124,0.04121778905391693,0.3195774257183075,-0.09648420661687851
1780626357455235600,10.213235595703125,0.03225438669323921,0.27632901072502136,-0.07565029710531235
1780626357465230600,10.223230712890626,0.0044603655114769936,0.23771804571151733,-0.05089603736996651
1780626357475225600,10.2332255859375,-0.018356533721089363,0.25912028551101685,-0.03057505004107952
1780626357485221600,10.2432216796875,-0.020867936313152313,0.2946666181087494,-0.04101943597197533
1780626357495216600,10.253216552734376,0.0007976777851581573,0.2296026647090912,-0.09809444099664688
1780626357505211600,10.263211669921875,0.02382507175207138,0.11764088273048401,-0.18306632339954376
1780626357515207400,10.27320751953125,0.023867947980761528,0.09361064434051514,-0.21861420571804047
1780626357525202400,10.283202392578126,-0.017734214663505554,0.13674618303775787,-0.18129532039165497
1780626357535197400,10.293197509765625,-0.050783779472112656,0.2367960810661316,-0.10818622261285782
1780626357545193700,10.30319384765625,-0.06801491975784302,0.2525373697280884,-0.039266277104616165
1780626357555188700,10.313188720703126,-0.06654565036296844,0.08672736585140228,-0.019893378019332886
1780626357565183700,10.323183837890625,-0.02619718387722969,-0.18812203407287598,-0.057963620871305466
1780626357575179500,10.333179443359375,0.024873988702893257,-0.3604847192764282,-0.11817902326583862
1780626357585174500,10.343174560546874,0.06927308440208435,-0.33322036266326904,-0.1312868446111679
1780626357595169500,10.35316943359375,0.09670497477054596,-0.24909880757331848,-0.09063182026147842
1780626357605165600,10.36316552734375,0.10019565373659134,-0.12017190456390381,-0.04969876632094383
1780626357615160600,10.37316064453125,0.07235923409461975,0.053681377321481705,-0.050615694373846054
1780626357625155600,10.383155517578125,0.04469606280326843,0.18682658672332764,-0.07574892044067383
1780626357635151600,10.393151611328125,0.025677362456917763,0.3126998245716095,-0.096957266330719
1780626357645146600,10.403146728515624,0.014337172731757164,0.4117281138896942,-0.12429133802652359
1780626357655141600,10.4131416015625,0.008578885346651077,0.42447638511657715,-0.144834965467453
1780626357665137400,10.423137451171876,0.012750256806612015,0.3251412510871887,-0.13975337147712708
1780626357675132400,10.43313232421875,0.029704207554459572,0.1308271735906601,-0.09998253732919693
1780626357685127400,10.44312744140625,0.04123249650001526,-0.042287081480026245,-0.05189703032374382
1780626357695123700,10.453123779296876,0.023281726986169815,-0.07943977415561676,-0.021370811387896538
1780626357705118700,10.46311865234375,-0.02460000477731228,0.016589267179369926,-0.0024012038484215736
1780626357715113700,10.47311376953125,-0.07208176702260971,0.13318751752376556,-0.0075336480513215065
1780626357725109500,10.483109619140626,-0.07042086124420166,0.06989168375730515,-0.03403467684984207
1780626357735104500,10.4931044921875,-0.002880962798371911,-0.03812000900506973,-0.05941885709762573
1780626357745099500,10.503099609375,0.08936790376901627,-0.06949520111083984,-0.09578796476125717
1780626357755095600,10.513095458984376,0.14555342495441437,-0.04831082001328468,-0.15469549596309662
1780626357765090800,10.5230908203125,0.15017588436603546,0.017982441931962967,-0.19325050711631775
1780626357775085600,10.53308544921875,0.12067045271396637,0.14949306845664978,-0.19334425032138824
1780626357785080600,10.54308056640625,0.04389393329620361,0.3457905650138855,-0.16040398180484772
1780626357795076600,10.55307666015625,-0.05190369859337807,0.5098863244056702,-0.10614126920700073
1780626357805071600,10.563071533203125,-0.10864908248186111,0.5417759418487549,-0.07977774739265442
1780626357815066600,10.573066650390626,-0.09389863163232803,0.4493144154548645,-0.14471307396888733
1780626357825062400,10.5830625,-0.08618959784507751,0.3360706865787506,-0.2313993126153946
1780626357835057400,10.593057373046875,-0.11303240060806274,0.3058280944824219,-0.2743736803531647
1780626357845052700,10.603052734375,-0.11088499426841736,0.23644542694091797,-0.25117915868759155
1780626357855048700,10.613048583984375,-0.03965848311781883,0.1813928186893463,-0.15989957749843597
1780626357865043700,10.623043701171875,0.05966343730688095,0.08931701630353928,-0.102519191801548
1780626357875038700,10.633038818359376,0.1467224508523941,-0.08720182627439499,-0.11522860080003738
1780626357885034500,10.643034423828125,0.2014617621898651,-0.20842313766479492,-0.12009632587432861
1780626357895029500,10.653029541015625,0.21061372756958008,-0.16801606118679047,-0.10308964550495148
1780626357905024500,10.6630244140625,0.17729389667510986,0.004547818563878536,-0.04108876734972
1780626357915020800,10.673020751953125,0.1301061362028122,0.23342493176460266,0.042109984904527664
1780626357925015800,10.683015869140625,0.0904596745967865,0.4561634659767151,0.06576107442378998
1780626357935010600,10.693010498046876,0.06326986849308014,0.6274004578590393,0.0457487478852272
1780626357945006600,10.703006591796875,0.04511837661266327,0.6663843989372253,0.03698455169796944
1780626357955001600,10.713001708984375,0.050861749798059464,0.5528815388679504,0.03184598311781883
1780626357964996600,10.72299658203125,0.08188118785619736,0.38804253935813904,0.01221848651766777
1780626357974992600,10.73299267578125,0.11400317400693893,0.22828911244869232,0.0091715632006526
1780626357984987400,10.7429873046875,0.1282665878534317,0.059430815279483795,0.021693481132388115
1780626357994982400,10.752982421875,0.1308906078338623,-0.12531745433807373,0.06484627723693848
1780626358004978700,10.762978759765625,0.11954055726528168,-0.1946488916873932,0.1233336478471756
1780626358014973700,10.7729736328125,0.09303837269544601,-0.08153645694255829,0.15290191769599915
1780626358024968700,10.78296875,0.06348428875207901,0.17181812226772308,0.14887735247612
1780626358034964500,10.792964599609375,0.05495258793234825,0.4573691487312317,0.12557709217071533
1780626358044959500,10.80295947265625,0.06451061367988586,0.6520190238952637,0.09171722084283829
1780626358054954500,10.81295458984375,0.08266991376876831,0.6929712295532227,0.07258772850036621
1780626358064950800,10.82295068359375,0.10992234200239182,0.6161880493164062,0.06987547874450684
1780626358074945800,10.83294580078125,0.1356695294380188,0.419489324092865,0.04269365593791008
1780626358084940500,10.8429404296875,0.13908296823501587,0.1697259098291397,-0.023101331666111946
1780626358094936600,10.8529365234375,0.13048894703388214,-0.003981961868703365,-0.07168351858854294
1780626358104931600,10.862931640625,0.11475411802530289,-0.08478037267923355,-0.07995990663766861
1780626358114926600,10.872926513671874,0.1023927852511406,-0.05834636837244034,-0.05001213401556015
1780626358124922600,10.882922607421875,0.09530777484178543,0.030891498550772667,-0.017441583797335625
1780626358134917400,10.89291748046875,0.10000772029161453,0.09855656325817108,-0.017334524542093277
1780626358144912400,10.902912353515624,0.1001892238855362,0.1711297184228897,-0.04023859649896622
1780626358154908700,10.91290869140625,0.08745691925287247,0.20947737991809845,-0.06813786923885345
1780626358164903700,10.922903564453126,0.06803707033395767,0.18786202371120453,-0.07564052939414978
1780626358174898700,10.932898681640625,0.04047095775604248,0.1572636365890503,-0.07353236526250839
1780626358184894500,10.94289453125,0.02803739532828331,0.10097231715917587,-0.08074039965867996
1780626358194889500,10.952889404296876,0.045460861176252365,0.03790014237165451,-0.044327262789011
1780626358204884500,10.962884521484375,0.06929294019937515,-0.06036463379859924,0.00031415512785315514
1780626358214880800,10.972880859375,0.0777633860707283,-0.1744493991136551,-0.006525374948978424
1780626358224875800,10.982875732421874,0.07064273208379745,-0.25425201654434204,-0.048719875514507294
1780626358234870800,10.992870849609375,0.05826835334300995,-0.21112611889839172,-0.06585811823606491
1780626358244865500,11.002865478515625,0.03960641101002693,-0.12464269250631332,-0.08226780593395233
1780626358254861600,11.012861572265624,0.02568846568465233,-0.06580653786659241,-0.11458925902843475
1780626358264856600,11.022856689453125,0.018014075234532356,0.044026732444763184,-0.13600169122219086
1780626358274851600,11.0328515625,0.024853872135281563,0.14433017373085022,-0.12723536789417267
1780626358284847600,11.04284765625,0.0424293577671051,0.14863449335098267,-0.09580261260271072
1780626358294842400,11.05284228515625,0.06160971522331238,0.10081210732460022,-0.051766443997621536
1780626358304837600,11.062837646484375,0.07891520112752914,-0.01647733896970749,-0.035346370190382004
1780626358314833700,11.072833740234374,0.08609908074140549,-0.11750835180282593,-0.055688392370939255
1780626358324828700,11.08282861328125,0.06481566280126572,-0.12218503654003143,-0.1063043475151062
1780626358334823700,11.09282373046875,0.03620586171746254,0.007819036953151226,-0.1742786020040512
1780626358344819700,11.10281982421875,0.05928940325975418,0.06606356799602509,-0.19129665195941925
1780626358354814700,11.112814697265625,0.11810371279716492,-0.03414638713002205,-0.1517082303762436
1780626358364809700,11.122809814453126,0.1639207899570465,-0.1480744630098343,-0.09161914139986038
1780626358374806000,11.132805908203125,0.17889681458473206,-0.20165860652923584,-0.05295670032501221
1780626358384801000,11.142801025390625,0.17738407850265503,-0.17987535893917084,-0.03354589641094208
1780626358394795800,11.152795654296876,0.17520907521247864,-0.13316698372364044,-0.03770362585783005
1780626358404791800,11.162791748046875,0.1707453429698944,-0.033457688987255096,-0.04237223416566849
1780626358414786800,11.172786865234375,0.1525314450263977,0.037195444107055664,-0.0705290362238884
1780626358424781800,11.18278173828125,0.12727484107017517,-0.02119586057960987,-0.13549578189849854
1780626358434777900,11.19277783203125,0.11289297789335251,-0.0673242062330246,-0.16090500354766846
1780626358444772600,11.202772705078125,0.12169895321130753,-0.09958422929048538,-0.12403469532728195
1780626358454767600,11.212767578125,0.138488307595253,-0.15011611580848694,-0.07520511001348495
1780626358464764000,11.222763916015625,0.14412692189216614,-0.22630245983600616,-0.06907148659229279
1780626358474759000,11.232759033203125,0.13652999699115753,-0.2105695605278015,-0.11337769776582718
1780626358484754000,11.24275390625,0.1250331550836563,-0.09565258771181107,-0.15066736936569214
1780626358494749700,11.252749755859375,0.12081391364336014,0.09467314928770065,-0.18964140117168427
1780626358504744700,11.26274462890625,0.14057657122612,0.18803882598876953,-0.19848096370697021
1780626358514739700,11.27273974609375,0.19223684072494507,0.24372978508472443,-0.12485228478908539
1780626358524735700,11.28273583984375,0.24995234608650208,0.2811811864376068,-0.039951954036951065
1780626358534731000,11.29273095703125,0.289558082818985,0.20217211544513702,0.0013869646936655045
1780626358544726000,11.30272607421875,0.3122013807296753,0.011367522180080414,-0.009730667807161808
1780626358554721800,11.3127216796875,0.31638413667678833,-0.149682879447937,-0.051864806562662125
1780626358564716800,11.322716796875,0.30567872524261475,-0.19262729585170746,-0.10668686032295227
1780626358574711800,11.3327119140625,0.2930143177509308,-0.1100783422589302,-0.15740489959716797
1780626358584706800,11.342706787109375,0.2790733873844147,0.002634286880493164,-0.21011027693748474
1780626358594702800,11.352702880859376,0.2689424455165863,0.1662282794713974,-0.24827177822589874
1780626358604697600,11.362697509765624,0.2656967043876648,0.3667360246181488,-0.2681562900543213
1780626358614692900,11.37269287109375,0.2877543270587921,0.5140069723129272,-0.2670159339904785
1780626358624689000,11.38268896484375,0.34287771582603455,0.39229148626327515,-0.3072240352630615
1780626358634684000,11.392683837890624,0.41060829162597656,-0.010704181157052517,-0.32586297392845154
1780626358644679000,11.402678955078125,0.43727385997772217,-0.27056780457496643,-0.24087901413440704
1780626358654674700,11.4126748046875,0.41744154691696167,-0.15863196551799774,-0.08912624418735504
1780626358664669700,11.422669677734374,0.36895662546157837,0.17623686790466309,0.07094509154558182
1780626358674664700,11.432664794921875,0.30021804571151733,0.40691453218460083,0.1722906231880188
1780626358684661000,11.442660888671876,0.22381936013698578,0.4502224922180176,0.22525522112846375
1780626358694656000,11.452656005859374,0.15380272269248962,0.3717963695526123,0.2532216012477875
1780626358704650800,11.462650634765625,0.12158132344484329,0.20247586071491241,0.25175994634628296
1780626358714646800,11.472646728515626,0.1496363878250122,-0.07221987843513489,0.2103867083787918
1780626358724641800,11.482641845703125,0.22011959552764893,-0.31897589564323425,0.16788281500339508
1780626358734636800,11.49263671875,0.2735918462276459,-0.43897101283073425,0.14191380143165588
1780626358744632800,11.5026328125,0.2961791753768921,-0.41756317019462585,0.14471563696861267
1780626358754627600,11.512627685546875,0.2929477095603943,-0.2659965455532074,0.15173812210559845
1780626358764622800,11.522622802734375,0.2750954031944275,-0.06520745158195496,0.14494751393795013
1780626358774619000,11.532618896484376,0.26050180196762085,0.0335867665708065,0.11619681119918823
1780626358784614000,11.54261376953125,0.24746555089950562,-0.005074567161500454,0.048861805349588394
1780626358794609000,11.55260888671875,0.24297304451465607,-0.09895338863134384,0.0028522356878966093
1780626358804604700,11.562604736328124,0.2383784055709839,-0.17656023800373077,-0.023251447826623917
1780626358814599700,11.572599609375,0.2172456830739975,-0.19420473277568817,-0.0397968664765358
1780626358824594700,11.5825947265625,0.18267881870269775,-0.1283578872680664,-0.035557206720113754
1780626358834591000,11.592591064453124,0.14436285197734833,0.025988543406128883,-0.0033286947291344404
1780626358844586000,11.6025859375,0.11219008266925812,0.1881965845823288,0.025325410068035126
1780626358854581000,11.6125810546875,0.09148826450109482,0.2828136384487152,0.018048321828246117
1780626358864576800,11.62257666015625,0.08521083742380142,0.27862438559532166,0.008552022278308868
1780626358874571800,11.63257177734375,0.08567529171705246,0.1558276116847992,0.000679186312481761
1780626358884566800,11.64256689453125,0.08727265149354935,-0.044568441808223724,-0.022002337500452995
1780626358894561800,11.652561767578124,0.09605149179697037,-0.25978541374206543,-0.0470549575984478
1780626358904557800,11.662557861328125,0.10824635624885559,-0.3457486629486084,-0.032065264880657196
1780626358914552800,11.672552734375,0.12542322278022766,-0.3127337098121643,0.03971118479967117
1780626358924547800,11.6825478515625,0.11621326208114624,-0.25823402404785156,0.13055934011936188
1780626358934544000,11.6925439453125,0.07490923255681992,-0.19927750527858734,0.20721016824245453
1780626358944539000,11.702538818359375,0.03341318666934967,-0.14998239278793335,0.23343192040920258
1780626358954534000,11.712533935546874,0.030558547005057335,-0.10346974432468414,0.23584261536598206
1780626358964529700,11.72252978515625,0.04242870211601257,-0.01910540647804737,0.2467314749956131
1780626358974524700,11.732524658203126,0.04288863018155098,0.018789511173963547,0.23925545811653137
1780626358984519700,11.742519775390624,0.047715362161397934,-0.006558246444910765,0.20703616738319397
1780626358994516000,11.752515869140625,0.06647733598947525,-0.046234551817178726,0.17825698852539062
1780626359004511000,11.762510986328126,0.08435007184743881,-0.10210256278514862,0.15708743035793304
1780626359014506000,11.772506103515624,0.0848880335688591,-0.12451519072055817,0.11937041580677032
1780626359024501800,11.782501708984375,0.08601127564907074,-0.04742357134819031,0.07688678056001663
1780626359034496800,11.792496826171876,0.08839747309684753,0.07329805195331573,0.06498058885335922
1780626359044491800,11.80249169921875,0.0575530044734478,0.8764547109603882,0.28193020820617676
1780626359054487800,11.81248779296875,0.02615060657262802,2.33840012550354,0.6131365895271301
1780626359064482800,11.82248291015625,0.06500405073165894,2.9780187606811523,0.5619621872901917
1780626359074477800,11.832477783203124,0.2685806155204773,2.57460618019104,0.2513638734817505
1780626359084473900,11.842473876953125,0.5982891917228699,1.961221694946289,0.04208112880587578
1780626359094468900,11.85246875,0.8604851365089417,1.2591661214828491,-0.03964009881019592
1780626359104464000,11.8624638671875,0.8507478833198547,0.4969302713871002,-0.030555076897144318
1780626359114459600,11.872459716796875,0.5046575665473938,-0.22168220579624176,0.07020029425621033
1780626359124454700,11.88245458984375,0.07791990041732788,-0.8653095364570618,0.20572741329669952
1780626359134449700,11.89244970703125,-0.10842494666576385,-1.4033006429672241,0.28263628482818604
1780626359144444700,11.902444580078125,-0.08757968246936798,-1.7349954843521118,0.2755785882472992
1780626359154441000,11.91244091796875,-0.008117886260151863,-1.8191689252853394,0.18262094259262085
1780626359164436000,11.92243603515625,0.03357848525047302,-1.7129919528961182,0.043093930929899216
1780626359174430700,11.9324306640625,0.027203410863876343,-1.4597405195236206,-0.07583165913820267
1780626359184426800,11.9424267578125,-0.009753953665494919,-1.09774911403656,-0.10744071751832962
1780626359194421800,11.952421875,-0.05785543471574783,-0.6826501488685608,-0.023102931678295135
1780626359204416800,11.962416748046875,-0.09654159843921661,-0.25587326288223267,0.14086779952049255
1780626359214412800,11.972412841796874,-0.11029256135225296,0.18099647760391235,0.31541457772254944
1780626359224407800,11.98240771484375,-0.12803855538368225,0.5646232962608337,0.4162806570529938
1780626359234402800,11.99240283203125,-0.14128991961479187,0.8046861886978149,0.4203619360923767
1780626359244398800,12.00239892578125,-0.13902641832828522,0.8421585559844971,0.348480224609375
1780626359254393900,12.012393798828125,-0.1165940910577774,0.7385267019271851,0.2739149034023285
1780626359264388900,12.022388916015625,-0.07159961014986038,0.4855603277683258,0.20923346281051636
1780626359274384600,12.032384521484374,-0.009380973875522614,0.12014984339475632,0.1394471973180771
1780626359284379600,12.042379638671875,0.07024776935577393,-0.2186518907546997,0.06113382801413536
1780626359294374700,12.052374755859375,0.14462505280971527,-0.4327026903629303,-0.012361425906419754
1780626359304371000,12.062370849609374,0.18958278000354767,-0.5055633187294006,-0.08074722439050674
1780626359314366000,12.072365966796875,0.20961907505989075,-0.4532066583633423,-0.12692990899085999
1780626359324361000,12.08236083984375,0.21333523094654083,-0.29652610421180725,-0.1472630500793457
1780626359334356700,12.092356689453124,0.194980189204216,-0.08138131350278854,-0.1197560653090477
1780626359344351700,12.102351806640625,0.15038353204727173,0.0781443864107132,-0.04258759692311287
1780626359354346200,12.11234619140625,0.1159009262919426,0.10734408348798752,0.04507327824831009
1780626359364342500,12.122342529296875,0.10164982825517654,0.06359325349330902,0.1114620715379715
1780626359374337500,12.132337646484375,0.09393385052680969,0.04758259654045105,0.12539705634117126
1780626359384332500,12.14233251953125,0.07011000066995621,0.07164601236581802,0.09283015131950378
1780626359394327300,12.152327392578124,0.04584008455276489,0.1027168408036232,0.03522837162017822
1780626359404323300,12.1623232421875,0.04114668071269989,0.05760587751865387,-0.01966230571269989
1780626359414318300,12.172318359375,0.059596527367830276,-0.07136382162570953,-0.05616065859794617
1780626359424313300,12.182313232421874,0.08236155658960342,-0.1785181611776352,-0.0747205838561058
1780626359434309000,12.19230908203125,0.10178372263908386,-0.20085409283638,-0.0812985971570015
1780626359444304400,12.202304443359376,0.1260419338941574,-0.16654671728610992,-0.09559816867113113
1780626359454299400,12.21229931640625,0.14734908938407898,-0.1418035477399826,-0.12403407692909241
1780626359464295400,12.22229541015625,0.15600813925266266,-0.12926392257213593,-0.1397484987974167
1780626359474290400,12.23229052734375,0.1463206261396408,-0.1257898360490799,-0.12387871742248535
1780626359484285400,12.242285400390625,0.11976921558380127,-0.142930269241333,-0.0763668641448021
1780626359494281200,12.25228125,0.10652372241020203,-0.1440863460302353,-0.006667143665254116
1780626359504276200,12.262276123046876,0.09882491081953049,-0.08995535969734192,0.06284437328577042
1780626359514271200,12.272271240234375,0.09979749470949173,-0.0568152517080307,0.08943311125040054
1780626359524267500,12.282267578125,0.11438609659671783,-0.06707911193370819,0.05968382954597473
1780626359534262500,12.292262451171876,0.13159997761249542,-0.09325558692216873,-0.008529315702617168
1780626359544257300,12.30225732421875,0.1471826434135437,-0.14800724387168884,-0.07622003555297852
1780626359554253300,12.31225341796875,0.16447746753692627,-0.25932443141937256,-0.11748971045017242
1780626359564248300,12.322248291015624,0.1833583414554596,-0.40591302514076233,-0.12711641192436218
1780626359574243300,12.332243408203125,0.20661066472530365,-0.4565165340900421,-0.08125758171081543
1780626359584239400,12.3422392578125,0.21772004663944244,-0.3307375907897949,-0.03674577549099922
1780626359594234400,12.352234375,0.21226748824119568,-0.06715653091669083,-0.03527357801795006
1780626359604229400,12.3622294921875,0.1957073211669922,0.25769445300102234,-0.059081707149744034
