time,seconds_elapsed,z,y,x
1780625761849386000,0.052385986328125,-0.96063232421875,-0.3907012939453125,-0.1946563720703125
1780625761859415000,0.0624150390625,-0.9766387939453125,-0.359771728515625,-0.2187957763671875
1780625761869445000,0.072445068359375,-0.985137939453125,-0.34332275390625,-0.2384490966796875
1780625761879474000,0.082473876953125,-0.977264404296875,-0.3188629150390625,-0.25299072265625
1780625761889504000,0.09250390625,-0.96014404296875,-0.277374267578125,-0.264007568359375
1780625761899534000,0.1025341796875,-0.967803955078125,-0.2424468994140625,-0.281524658203125
1780625761909563100,0.112563232421875,-0.9371185302734375,-0.23797607421875,-0.296417236328125
1780625761919593000,0.122593017578125,-0.891143798828125,-0.2495269775390625,-0.2971343994140625
1780625761929622000,0.1326220703125,-0.8632659912109375,-0.252899169921875,-0.301239013671875
1780625761939651800,0.14265185546875,-0.829833984375,-0.263519287109375,-0.2750701904296875
1780625761949682000,0.152681884765625,-0.8271942138671875,-0.256683349609375,-0.2802276611328125
1780625761959711000,0.1627109375,-0.895660400390625,-0.1999664306640625,-0.3242645263671875
1780625761969740800,0.17274072265625,-0.9234161376953125,-0.22381591796875,-0.3160858154296875
1780625761979769900,0.182769775390625,-0.866668701171875,-0.28485107421875,-0.32440185546875
1780625761989800000,0.192800048828125,-0.7991943359375,-0.3504638671875,-0.3283843994140625
1780625761999830000,0.202830078125,-0.753387451171875,-0.4188995361328125,-0.337554931640625
1780625762009859000,0.212859130859375,-0.71923828125,-0.46893310546875,-0.3646240234375
1780625762019889000,0.222888916015625,-0.6638946533203125,-0.4781646728515625,-0.407867431640625
1780625762029918000,0.23291796875,-0.5926055908203125,-0.496185302734375,-0.45465087890625
1780625762039948000,0.242947998046875,-0.567901611328125,-0.535003662109375,-0.465240478515625
1780625762049978000,0.25297802734375,-0.597900390625,-0.5064239501953125,-0.4963836669921875
1780625762060007000,0.2630068359375,-0.654327392578125,-0.45721435546875,-0.4749298095703125
1780625762070037000,0.273037109375,-0.7765655517578125,-0.3587646484375,-0.4212646484375
1780625762080066000,0.283066162109375,-0.9087677001953125,-0.2968902587890625,-0.431060791015625
1780625762090095900,0.293095947265625,-0.9149017333984375,-0.4063568115234375,-0.4295501708984375
1780625762100125200,0.303125244140625,-0.8398590087890625,-0.5729217529296875,-0.3553314208984375
1780625762110154800,0.31315478515625,-0.8280487060546875,-0.66949462890625,-0.2792510986328125
1780625762120184800,0.323184814453125,-0.788330078125,-0.8049774169921875,-0.28717041015625
1780625762130214000,0.3332138671875,-0.6242523193359375,-0.7602691650390625,-0.315277099609375
1780625762140244000,0.343243896484375,-0.4857025146484375,-0.680389404296875,-0.32257080078125
1780625762150273000,0.35327294921875,-0.4551849365234375,-0.5977783203125,-0.314666748046875
1780625762160302800,0.363302734375,-0.4384002685546875,-0.457244873046875,-0.265533447265625
1780625762170333000,0.3733330078125,-0.4137420654296875,-0.31304931640625,-0.1997528076171875
1780625762180362000,0.383362060546875,-0.418487548828125,-0.2205047607421875,-0.1995086669921875
1780625762190392000,0.39339208984375,-0.5216522216796875,-0.24224853515625,-0.2672576904296875
1780625762200420900,0.4034208984375,-0.6699066162109375,-0.337982177734375,-0.3481597900390625
1780625762210451000,0.413450927734375,-0.759735107421875,-0.434051513671875,-0.4451141357421875
1780625762220481000,0.42348095703125,-0.83294677734375,-0.5272369384765625,-0.5259552001953125
1780625762230510000,0.433510009765625,-0.9014739990234375,-0.5614776611328125,-0.5379180908203125
1780625762240540000,0.443539794921875,-0.89373779296875,-0.4831390380859375,-0.543121337890625
1780625762250569000,0.45356884765625,-0.69586181640625,-0.17938232421875,-0.5649871826171875
1780625762260598800,0.463598876953125,-0.228179931640625,0.1893768310546875,-0.51336669921875
1780625762270628900,0.47362890625,0.03314208984375,0.224517822265625,-0.479400634765625
1780625762280658000,0.483657958984375,-0.211822509765625,0.0431060791015625,-0.672454833984375
1780625762290688000,0.49368798828125,-0.577056884765625,-0.2153167724609375,-0.8292236328125
1780625762300716800,0.503716796875,-0.7433013916015625,-0.50933837890625,-0.806121826171875
1780625762310747000,0.513746826171875,-0.6761932373046875,-0.5684356689453125,-0.726226806640625
1780625762320777000,0.52377685546875,-0.4202117919921875,-0.3292694091796875,-0.52581787109375
1780625762330806000,0.533805908203125,-0.1211700439453125,0.035919189453125,-0.22357177734375
1780625762340836000,0.543836181640625,0.1728973388671875,0.448699951171875,0.0812530517578125
1780625762350865000,0.553864990234375,0.3494110107421875,0.7680511474609375,0.223907470703125
1780625762360895700,0.563895751953125,0.3943023681640625,0.800811767578125,0.162017822265625
1780625762370924800,0.5739248046875,0.380615234375,0.5015716552734375,0.0794677734375
1780625762380954600,0.58395458984375,0.359100341796875,0.2359466552734375,0.0366058349609375
1780625762390984400,0.593984375,0.0728912353515625,0.341156005859375,-0.1322174072265625
1780625762401013500,0.604013427734375,-0.3733367919921875,0.760772705078125,-0.3342437744140625
1780625762411043600,0.614043701171875,-0.8770599365234375,1.2637786865234375,-0.61102294921875
1780625762421072600,0.62407275390625,-1.435394287109375,1.5173797607421875,-1.03985595703125
1780625762431102700,0.634102783203125,-1.686370849609375,1.1941070556640625,-1.534210205078125
1780625762441132500,0.644132568359375,-1.36627197265625,0.4976043701171875,-1.8478546142578125
1780625762451161600,0.65416162109375,-1.0191802978515625,-0.00067138671875,-2.0068511962890625
1780625762461191700,0.664191650390625,-0.9451446533203125,-0.143890380859375,-2.0974273681640625
1780625762471220700,0.674220703125,-1.0891265869140625,-0.0818023681640625,-2.0911712646484375
1780625762481250600,0.68425048828125,-1.3638916015625,-0.14544677734375,-2.0782318115234375
1780625762491280600,0.69428076171875,-1.5901336669921875,-0.392059326171875,-2.066802978515625
1780625762501309700,0.704309814453125,-1.72528076171875,-0.7034759521484375,-2.0801239013671875
1780625762511339800,0.71433984375,-1.718231201171875,-0.7975616455078125,-2.091796875
1780625762521368800,0.724368896484375,-1.495330810546875,-0.7585601806640625,-2.0870819091796875
1780625762531398700,0.734398681640625,-1.080230712890625,-1.2563934326171875,-2.637542724609375
1780625762541428500,0.744428466796875,-0.5207977294921875,-1.6385498046875,-2.79095458984375
1780625762551457500,0.75445751953125,0.07489013671875,-1.6031341552734375,-2.4913177490234375
1780625762561487600,0.764487548828125,0.2113189697265625,-1.051055908203125,-2.0081329345703125
1780625762571516700,0.7745166015625,0.2109375,-0.734283447265625,-1.4533233642578125
1780625762581546500,0.78454638671875,0.0251617431640625,-0.4679107666015625,-1.1245269775390625
1780625762591576600,0.79457666015625,-0.2500457763671875,-0.3383331298828125,-1.082122802734375
1780625762601605600,0.804605712890625,-0.373382568359375,-0.3686676025390625,-1.0887298583984375
1780625762611635700,0.8146357421875,-0.5422210693359375,-0.3540802001953125,-0.9945526123046875
1780625762621664500,0.82466455078125,-0.5759124755859375,-0.1715240478515625,-0.843170166015625
1780625762631694600,0.834694580078125,-0.4056854248046875,-0.0021514892578125,-0.5868072509765625
1780625762641724700,0.844724609375,0.2022857666015625,0.0430908203125,-0.2289581298828125
1780625762651753700,0.854753662109375,0.0413055419921875,0.42193603515625,-0.225311279296875
1780625762661783800,0.86478369140625,-1.12762451171875,0.662322998046875,-0.1310882568359375
1780625762671812600,0.8748125,-1.0095367431640625,0.46942138671875,-0.11383056640625
1780625762681842700,0.8848427734375,-1.091552734375,0.639068603515625,-0.148681640625
1780625762691872500,0.89487255859375,-1.0859222412109375,0.6091766357421875,-0.2228240966796875
1780625762701901600,0.904901611328125,-1.0376129150390625,0.4158477783203125,-0.500091552734375
1780625762711931600,0.914931640625,-0.7939453125,0.228973388671875,-0.7664337158203125
1780625762721960400,0.92496044921875,-0.00225830078125,-0.20245361328125,-1.058013916015625
1780625762731990500,0.934990478515625,0.2171630859375,-0.2393646240234375,-1.403411865234375
1780625762742020600,0.9450205078125,0.1439208984375,0.079345703125,-1.512542724609375
1780625762752049700,0.955049560546875,-0.0503387451171875,0.50927734375,-1.359466552734375
1780625762762079700,0.965079833984375,-0.3915252685546875,0.5301361083984375,-1.1661529541015625
1780625762772108500,0.975108642578125,-1.02459716796875,0.7114715576171875,-0.9321441650390625
1780625762782138600,0.985138671875,-0.51019287109375,0.48468017578125,-0.8256072998046875
1780625762792168700,0.995168701171875,-0.16986083984375,0.4224090576171875,-0.844512939453125
1780625762802197800,1.00519775390625,0.089111328125,0.1842193603515625,-0.8392181396484375
1780625762812227800,1.015227783203125,0.3271484375,-0.0145263671875,-0.7984771728515625
1780625762822256600,1.025256591796875,0.4852447509765625,0.0197601318359375,-0.7438201904296875
1780625762832286700,1.03528662109375,0.6086273193359375,0.083984375,-0.5468902587890625
1780625762842316500,1.045316650390625,0.6588134765625,0.2149810791015625,-0.3920745849609375
1780625762852345600,1.055345703125,0.4044342041015625,0.321014404296875,-0.4732513427734375
1780625762862375700,1.065375732421875,-0.094024658203125,0.365264892578125,-0.6893768310546875
1780625762872404500,1.075404541015625,-0.564361572265625,0.3785552978515625,-0.8412628173828125
1780625762882434600,1.0854345703125,-0.857269287109375,0.4378662109375,-0.8983154296875
1780625762892464600,1.095464599609375,-0.8964385986328125,0.4308319091796875,-0.8663330078125
1780625762902493700,1.10549365234375,-0.7635345458984375,0.328948974609375,-0.7747344970703125
1780625762912523800,1.115523681640625,-0.533172607421875,0.2503204345703125,-0.7003326416015625
1780625762922552600,1.125552490234375,-0.36651611328125,0.1975250244140625,-0.6903533935546875
1780625762932582700,1.135582763671875,-0.34332275390625,0.16278076171875,-0.798309326171875
1780625762942612700,1.14561279296875,-0.33148193359375,0.058349609375,-0.900146484375
1780625762952641800,1.155641845703125,-0.2253265380859375,-0.0026702880859375,-0.87115478515625
1780625762962671900,1.165671875,-0.277557373046875,0.0921478271484375,-0.8639068603515625
1780625762972700700,1.17570068359375,-0.4798583984375,0.1650238037109375,-1.0079345703125
1780625762982730800,1.185730712890625,-0.78790283203125,0.125396728515625,-1.2441558837890625
1780625762992760600,1.195760498046875,-1.17669677734375,0.0945587158203125,-1.417999267578125
1780625763002789600,1.20578955078125,-1.3868865966796875,0.100189208984375,-1.462188720703125
1780625763012819500,1.2158193359375,-1.3614349365234375,0.1844329833984375,-1.4525604248046875
1780625763022848500,1.2258486328125,-1.224517822265625,0.33563232421875,-1.356048583984375
1780625763032878600,1.235878662109375,-0.9365234375,0.5054931640625,-1.0387115478515625
1780625763042908700,1.24590869140625,-0.5352783203125,0.62042236328125,-0.716033935546875
1780625763052937700,1.255937744140625,-0.3899688720703125,0.7496185302734375,-0.517333984375
1780625763062967600,1.265967529296875,-0.4569091796875,0.9124755859375,-0.4590606689453125
1780625763072996600,1.27599658203125,-0.6610870361328125,1.0549163818359375,-0.5447540283203125
1780625763083026700,1.286026611328125,-0.9866943359375,1.126220703125,-0.6660614013671875
1780625763093056800,1.296056884765625,-1.230316162109375,1.09649658203125,-0.826995849609375
1780625763103085800,1.3060859375,-1.2640838623046875,1.0322265625,-0.9644012451171875
1780625763113115600,1.31611572265625,-1.1764984130859375,0.85888671875,-0.998992919921875
1780625763123144700,1.326144775390625,-0.9360198974609375,0.628753662109375,-1.0631866455078125
1780625763133174800,1.3361748046875,-0.710113525390625,0.4147796630859375,-1.2708587646484375
1780625763143204600,1.34620458984375,-0.6482696533203125,0.2057952880859375,-1.5789642333984375
1780625763153233400,1.3562333984375,-0.4984893798828125,-0.080963134765625,-1.9740447998046875
1780625763163263500,1.366263427734375,-0.304534912109375,-0.348052978515625,-2.349212646484375
1780625763173292500,1.37629248046875,-0.19537353515625,-0.585113525390625,-2.7123260498046875
1780625763183322600,1.386322509765625,-0.07647705078125,-0.811187744140625,-2.8103790283203125
1780625763193352700,1.396352783203125,0.2760467529296875,-0.863739013671875,-2.737152099609375
1780625763203381500,1.406381591796875,0.720306396484375,-0.7881927490234375,-2.4852447509765625
1780625763213411600,1.41641162109375,1.1394195556640625,-0.5443572998046875,-2.1292724609375
1780625763223440600,1.426440673828125,1.330810546875,-0.2614288330078125,-1.7099151611328125
1780625763233470700,1.436470703125,1.336181640625,0.079498291015625,-1.40106201171875
1780625763243500800,1.446500732421875,0.9922027587890625,0.398101806640625,-1.1811981201171875
1780625763253529600,1.456529541015625,0.8338165283203125,0.513092041015625,-1.0257110595703125
1780625763263559700,1.4665595703125,0.7957000732421875,0.66339111328125,-0.8434600830078125
1780625763273588700,1.476588623046875,0.63726806640625,1.0469818115234375,-0.4245452880859375
1780625763283618800,1.486618896484375,0.37255859375,1.164794921875,-0.1604766845703125
1780625763293648600,1.496648681640625,0.1601715087890625,1.1300048828125,-0.2586517333984375
1780625763303677400,1.506677490234375,-0.1109466552734375,1.195892333984375,-0.313720703125
1780625763313707500,1.51670751953125,-0.5469207763671875,1.391387939453125,-0.17474365234375
1780625763323736600,1.526736572265625,-0.9669189453125,1.3195953369140625,-0.378082275390625
1780625763333766700,1.5367666015625,-1.1166839599609375,1.2685546875,-0.468963623046875
1780625763343796700,1.546796630859375,-0.78173828125,1.1439361572265625,-0.6123199462890625
1780625763353825500,1.556825439453125,-0.51300048828125,1.2184295654296875,-0.7342376708984375
1780625763363855600,1.566855712890625,-0.26318359375,1.2507171630859375,-0.4111480712890625
1780625763373885700,1.5768857421875,-0.02691650390625,1.27862548828125,-0.307861328125
1780625763383914800,1.586914794921875,0.1741180419921875,1.005462646484375,-0.38958740234375
1780625763393944600,1.596944580078125,-0.0676116943359375,1.367889404296875,-0.2602996826171875
1780625763403973600,1.6069736328125,0.2235565185546875,0.988250732421875,-0.1962432861328125
1780625763414003700,1.617003662109375,0.407257080078125,0.625030517578125,-0.3578338623046875
1780625763424033500,1.627033447265625,0.3056793212890625,0.17889404296875,-0.509124755859375
1780625763434062600,1.6370625,0.2053680419921875,0.131011962890625,-0.8418426513671875
1780625763444092400,1.647092529296875,-0.1038970947265625,0.378509521484375,-0.9369049072265625
1780625763454121500,1.65712158203125,-0.4056549072265625,0.4979400634765625,-0.8517913818359375
1780625763464151600,1.667151611328125,-0.80914306640625,0.6168212890625,-0.81207275390625
1780625763474181600,1.677181640625,-0.6396331787109375,0.3831329345703125,-0.8447265625
1780625763484210400,1.68721044921875,-0.3875274658203125,0.4227752685546875,-0.991607666015625
1780625763494240500,1.697240478515625,-0.4947357177734375,0.620758056640625,-1.0838623046875
1780625763504270600,1.7072705078125,-0.5152130126953125,0.6415252685546875,-0.846038818359375
1780625763514299600,1.717299560546875,-0.356536865234375,0.792999267578125,-0.588165283203125
1780625763524329700,1.727329833984375,0.00921630859375,1.01055908203125,-0.31610107421875
1780625763534358500,1.737358642578125,-0.047607421875,1.2480621337890625,-0.1169281005859375
1780625763544388600,1.747388671875,0.135284423828125,1.18646240234375,-0.2220001220703125
1780625763554418700,1.757418701171875,0.498504638671875,1.029541015625,-0.4974365234375
1780625763564447700,1.76744775390625,0.110076904296875,1.0891876220703125,-0.855804443359375
1780625763574477600,1.7774775390625,-0.126953125,0.4811553955078125,-1.1530303955078125
1780625763584506600,1.787506591796875,0.15191650390625,0.219207763671875,-1.191864013671875
1780625763594536400,1.797536376953125,0.304168701171875,0.2841339111328125,-1.1038818359375
1780625763604566500,1.80756640625,0.0571441650390625,0.370147705078125,-1.156463623046875
1780625763614595600,1.817595703125,-0.153533935546875,0.5867767333984375,-1.30950927734375
1780625763624625700,1.827625732421875,-0.152069091796875,0.7121734619140625,-1.339080810546875
1780625763634654500,1.837654541015625,-0.0526275634765625,0.745513916015625,-1.254119873046875
1780625763644684500,1.8476845703125,0.0690155029296875,0.8079681396484375,-1.124664306640625
1780625763654714600,1.857714599609375,0.2358245849609375,0.90496826171875,-1.03857421875
1780625763664743700,1.86774365234375,0.2467041015625,0.8754730224609375,-0.8893585205078125
1780625763674773800,1.877773681640625,-0.070526123046875,0.6136016845703125,-0.237091064453125
1780625763684803600,1.887803466796875,-0.0997772216796875,0.6220703125,0.45611572265625
1780625763694832600,1.89783251953125,0.667327880859375,1.3846893310546875,-0.0713043212890625
1780625763704862700,1.90786279296875,0.1124420166015625,1.7814788818359375,-0.31793212890625
1780625763714891800,1.917891845703125,-0.43914794921875,1.609710693359375,-0.259521484375
1780625763724921600,1.927921630859375,-0.360504150390625,1.2169952392578125,-0.2594757080078125
1780625763734951400,1.937951416015625,-0.11688232421875,0.873992919921875,-0.3524932861328125
1780625763744980500,1.94798046875,0.040374755859375,0.69329833984375,-0.4336395263671875
1780625763755010600,1.958010498046875,0.2007598876953125,0.592620849609375,-0.4202117919921875
1780625763765040600,1.96804052734375,0.221343994140625,0.4542999267578125,-0.293304443359375
1780625763775069700,1.978069580078125,0.1057891845703125,0.319610595703125,-0.1790008544921875
1780625763785099500,1.988099609375,0.055145263671875,0.3799896240234375,-0.16827392578125
1780625763795128600,1.998128662109375,-0.1926727294921875,0.5574951171875,-0.2427825927734375
1780625763805158700,2.00815869140625,-0.53057861328125,0.51214599609375,-0.2938995361328125
1780625763815188700,2.018188720703125,-0.138153076171875,0.247344970703125,-0.3930816650390625
1780625763825217500,2.028217529296875,0.0952911376953125,0.22650146484375,-0.5228118896484375
1780625763835247600,2.03824755859375,-0.00628662109375,0.2790985107421875,-0.49267578125
1780625763845276700,2.048276611328125,-0.05023193359375,0.349273681640625,-0.385894775390625
1780625763855306800,2.058306640625,-0.078033447265625,0.4407501220703125,-0.2347869873046875
1780625763865336600,2.068336669921875,0.0084686279296875,0.494537353515625,-0.091064453125
1780625763875365400,2.078365478515625,0.0680999755859375,0.53533935546875,-0.003082275390625
1780625763885395500,2.0883955078125,0.1513519287109375,0.598541259765625,-0.009490966796875
1780625763895425500,2.098425537109375,0.2609405517578125,0.6807098388671875,-0.0258636474609375
1780625763905454600,2.10845458984375,0.1761016845703125,0.9889678955078125,-0.08526611328125
1780625763915484700,2.118484619140625,0.0651702880859375,1.5284271240234375,-0.20794677734375
1780625763925513500,2.128513427734375,0.1080322265625,1.7610321044921875,-0.19024658203125
1780625763935543600,2.13854345703125,0.1428375244140625,1.804931640625,-0.1124725341796875
1780625763945573600,2.14857373046875,0.1293487548828125,1.631683349609375,-0.0633544921875
1780625763955602700,2.158602783203125,0.0419921875,1.41015625,-0.028961181640625
1780625763965632800,2.1686328125,0.0316925048828125,1.2462615966796875,-0.025146484375
1780625763975661600,2.17866162109375,0.09796142578125,0.996856689453125,0.03265380859375
1780625763985691600,2.188691650390625,0.04791259765625,0.695037841796875,0.1593170166015625
1780625763995721500,2.198721435546875,-0.0831298828125,0.5827484130859375,0.2180633544921875
1780625764005750800,2.208750732421875,-0.1353302001953125,0.5305938720703125,0.3087615966796875
1780625764015780600,2.218780517578125,-0.19354248046875,0.5865631103515625,0.3580780029296875
1780625764025810400,2.228810546875,-0.2647705078125,0.754913330078125,0.37945556640625
1780625764035839500,2.238839599609375,-0.404266357421875,0.9412841796875,0.3908538818359375
1780625764045869600,2.24886962890625,-0.5847625732421875,1.0936431884765625,0.4031219482421875
1780625764055898600,2.258898681640625,-0.717926025390625,1.2908477783203125,0.39532470703125
1780625764065928700,2.2689287109375,-0.7986907958984375,1.47943115234375,0.3236236572265625
1780625764075958500,2.27895849609375,-0.715850830078125,1.3559417724609375,0.1698760986328125
1780625764085987600,2.288987548828125,-0.543914794921875,1.0910186767578125,0.0167999267578125
1780625764096017700,2.299017578125,-0.5764923095703125,1.2051849365234375,0.0563507080078125
1780625764106047700,2.3090478515625,-0.718994140625,1.1588134765625,0.1446380615234375
1780625764116076800,2.319076904296875,-0.598175048828125,1.1038360595703125,0.1663665771484375
1780625764126106600,2.329106689453125,-0.5119476318359375,1.089447021484375,0.061859130859375
1780625764136135700,2.3391357421875,-0.3472137451171875,1.0465240478515625,-0.03472900390625
1780625764146165500,2.34916552734375,0.0092620849609375,1.0354461669921875,-0.1446380615234375
1780625764156195600,2.359195556640625,0.2952117919921875,1.1246490478515625,-0.251190185546875
1780625764166224400,2.369224365234375,0.25189208984375,1.169647216796875,-0.292083740234375
1780625764176254500,2.37925439453125,0.0633697509765625,1.0995635986328125,-0.2940826416015625
1780625764186284500,2.389284423828125,-0.0487518310546875,0.947784423828125,-0.237884521484375
1780625764196313600,2.399313720703125,-0.17974853515625,0.8936309814453125,-0.1002197265625
1780625764206343700,2.40934375,-0.3122406005859375,0.9584197998046875,0.0350341796875
1780625764216372500,2.41937255859375,-0.4228515625,1.0721588134765625,0.1336517333984375
1780625764226402600,2.429402587890625,-0.4486846923828125,1.171051025390625,0.231414794921875
1780625764236432600,2.4394326171875,-0.39276123046875,1.2281646728515625,0.325164794921875
1780625764246461700,2.449461669921875,-0.29864501953125,1.2230224609375,0.373016357421875
1780625764256491800,2.45949169921875,-0.1902008056640625,1.237548828125,0.3617095947265625
1780625764266521600,2.469521484375,-0.1005096435546875,1.2203216552734375,0.325836181640625
1780625764276550700,2.479550537109375,-0.1024169921875,1.10906982421875,0.3183441162109375
1780625764286580500,2.48958056640625,-0.1524658203125,0.9930572509765625,0.3449249267578125
1780625764296609500,2.499609619140625,-0.2218475341796875,0.9201202392578125,0.38677978515625
1780625764306639600,2.5096396484375,-0.1912994384765625,0.800140380859375,0.4150848388671875
1780625764316669700,2.519669677734375,-0.14959716796875,0.7194061279296875,0.430084228515625
1780625764326698500,2.529698486328125,-0.144683837890625,0.677581787109375,0.4574432373046875
1780625764336728600,2.539728515625,-0.1515350341796875,0.639892578125,0.4997711181640625
1780625764346757600,2.549757568359375,-0.231170654296875,0.5414276123046875,0.5711669921875
1780625764356787500,2.559787353515625,-0.2681884765625,0.5634613037109375,0.6533050537109375
1780625764366817500,2.569817626953125,-0.05389404296875,0.69879150390625,0.64373779296875
1780625764376846600,2.5798466796875,0.218292236328125,0.8577728271484375,0.55621337890625
1780625764386876700,2.589876708984375,0.466949462890625,0.9135894775390625,0.4228973388671875
1780625764396906500,2.599906494140625,0.4697418212890625,0.93304443359375,0.3373870849609375
1780625764406935600,2.609935546875,0.2514190673828125,0.9748687744140625,0.342437744140625
1780625764416965400,2.61996533203125,0.0554046630859375,0.9378509521484375,0.3710784912109375
1780625764426995500,2.629995361328125,0.0749969482421875,0.8331451416015625,0.38128662109375
1780625764437024300,2.640024169921875,0.229888916015625,0.740631103515625,0.3856201171875
1780625764447054300,2.650054443359375,0.3604278564453125,0.7089996337890625,0.397552490234375
1780625764457083400,2.66008349609375,0.3791656494140625,0.7218170166015625,0.425079345703125
1780625764467113500,2.670113525390625,0.341766357421875,0.70611572265625,0.4382171630859375
1780625764477143600,2.6801435546875,0.287841796875,0.69384765625,0.450897216796875
1780625764487172400,2.69017236328125,0.2104034423828125,0.7022705078125,0.46783447265625
1780625764497202400,2.700202392578125,0.1204986572265625,0.7349395751953125,0.5060272216796875
1780625764507232500,2.710232421875,0.0591583251953125,0.7984619140625,0.561981201171875
1780625764517261600,2.720261474609375,0.0399322509765625,0.835296630859375,0.605987548828125
1780625764527291600,2.730291748046875,0.0451202392578125,0.843780517578125,0.643310546875
1780625764537320400,2.740320556640625,0.0198211669921875,0.780914306640625,0.7412567138671875
1780625764547350500,2.7503505859375,0.0359649658203125,0.51953125,1.0547027587890625
1780625764557380400,2.76038037109375,0.085968017578125,0.47430419921875,1.2240753173828125
1780625764567409400,2.770409423828125,0.2515411376953125,0.5616302490234375,1.1189727783203125
1780625764577439500,2.780439453125,0.3534393310546875,0.4870758056640625,0.9709014892578125
1780625764587469600,2.790469482421875,0.3333740234375,0.425384521484375,0.823516845703125
1780625764597498400,2.800498291015625,0.225128173828125,0.45263671875,0.715850830078125
1780625764607528400,2.810528564453125,0.1974945068359375,0.5175323486328125,0.6590728759765625
1780625764617557500,2.8205576171875,0.2280120849609375,0.606658935546875,0.6114044189453125
1780625764627587600,2.830587646484375,0.2409820556640625,0.6869659423828125,0.5480194091796875
1780625764637617700,2.84061767578125,0.23095703125,0.709014892578125,0.478363037109375
1780625764647646500,2.850646484375,0.2050323486328125,0.7321624755859375,0.459869384765625
1780625764657676500,2.860676513671875,0.1233062744140625,0.7945404052734375,0.544281005859375
1780625764667706400,2.870706298828125,0.043426513671875,0.834503173828125,0.670745849609375
1780625764677735700,2.880735595703125,0.0678253173828125,0.8012237548828125,0.7348480224609375
1780625764687765200,2.89076513671875,0.20513916015625,0.7462310791015625,0.720428466796875
1780625764697794600,2.900794677734375,0.297637939453125,0.705535888671875,0.6939849853515625
1780625764707824400,2.910824462890625,0.3116912841796875,0.677581787109375,0.669525146484375
1780625764717854500,2.9208544921875,0.291046142578125,0.6762237548828125,0.63861083984375
1780625764727883500,2.930883544921875,0.2425994873046875,0.6939544677734375,0.6173095703125
1780625764737913300,2.940913330078125,0.1809234619140625,0.7343902587890625,0.61175537109375
1780625764747943400,2.950943359375,0.1414337158203125,0.753692626953125,0.607147216796875
1780625764757972500,2.960972412109375,0.0850830078125,0.8036956787109375,0.609466552734375
1780625764768002600,2.97100244140625,0.055877685546875,0.8581390380859375,0.6278839111328125
1780625764778031600,2.981031494140625,0.04693603515625,0.89080810546875,0.665008544921875
1780625764788061400,2.9910615234375,0.03839111328125,0.892181396484375,0.697845458984375
1780625764798091500,3.001091552734375,0.01898193359375,0.882476806640625,0.720458984375
1780625764808120600,3.01112060546875,-0.0131683349609375,0.87078857421875,0.725616455078125
1780625764818150400,3.021150390625,-0.0442352294921875,0.8508453369140625,0.7235260009765625
1780625764828180500,3.031180419921875,-0.0668487548828125,0.8284912109375,0.7164459228515625
1780625764838209300,3.041209228515625,-0.0899505615234375,0.8099822998046875,0.7058868408203125
1780625764848239400,3.0512392578125,-0.0809478759765625,0.790313720703125,0.6924591064453125
1780625764858269400,3.06126953125,-0.0429229736328125,0.7501220703125,0.6674346923828125
1780625764868298500,3.071298583984375,-0.0056610107421875,0.6981048583984375,0.637939453125
1780625764878328600,3.08132861328125,-0.0065460205078125,0.69537353515625,0.629852294921875
1780625764888357400,3.091357421875,-0.00421142578125,0.74639892578125,0.645782470703125
1780625764898387500,3.101387451171875,0.0018310546875,0.805450439453125,0.6680450439453125
1780625764908417500,3.11141748046875,-0.0048675537109375,0.84088134765625,0.6738128662109375
1780625764918446600,3.121446533203125,-0.031402587890625,0.8489837646484375,0.65789794921875
1780625764928476700,3.1314765625,-0.0144195556640625,0.863311767578125,0.63348388671875
1780625764938506200,3.14150634765625,0.0340576171875,0.8660736083984375,0.5843963623046875
1780625764948535600,3.15153564453125,0.0604400634765625,0.8577728271484375,0.5298614501953125
1780625764958565400,3.1615654296875,0.044708251953125,0.85491943359375,0.4850006103515625
1780625764968594400,3.171594482421875,0.022064208984375,0.836639404296875,0.4541168212890625
1780625764978624500,3.18162451171875,-0.02386474609375,0.824005126953125,0.4266204833984375
1780625764988654300,3.191654296875,-0.0822906494140625,0.8140106201171875,0.4197235107421875
1780625764998683400,3.201683349609375,-0.1151123046875,0.825225830078125,0.444305419921875
1780625765008713500,3.21171337890625,-0.12054443359375,0.8439178466796875,0.49493408203125
1780625765018743600,3.22174365234375,-0.0942230224609375,0.8307342529296875,0.5446929931640625
1780625765028772400,3.2317724609375,-0.065399169921875,0.798248291015625,0.5730438232421875
1780625765038802400,3.241802490234375,-0.0670928955078125,0.8069610595703125,0.6024322509765625
1780625765048831500,3.25183154296875,-0.07550048828125,0.821929931640625,0.6217803955078125
1780625765058861600,3.261861572265625,-0.071197509765625,0.81915283203125,0.6184539794921875
1780625765068891600,3.2718916015625,-0.0650634765625,0.8076019287109375,0.5973968505859375
1780625765078920400,3.28192041015625,-0.065826416015625,0.794586181640625,0.5709381103515625
1780625765088950300,3.2919501953125,-0.069580078125,0.801513671875,0.5540008544921875
1780625765098980400,3.30198046875,-0.0682525634765625,0.823150634765625,0.553802490234375
1780625765109009400,3.312009521484375,-0.0673675537109375,0.850738525390625,0.5624847412109375
1780625765119039500,3.32203955078125,-0.070465087890625,0.868194580078125,0.5715179443359375
1780625765129069600,3.332069580078125,-0.0745697021484375,0.873260498046875,0.5637359619140625
1780625765139098400,3.342098388671875,-0.091888427734375,0.8726806640625,0.5453033447265625
1780625765149128400,3.35212841796875,-0.114013671875,0.8710174560546875,0.5336456298828125
1780625765159157500,3.362157470703125,-0.09173583984375,0.7320098876953125,0.479034423828125
1780625765169187600,3.3721875,-0.09716796875,0.7769775390625,0.494232177734375
1780625765179217700,3.3822177734375,-0.1669921875,0.9564056396484375,0.5345306396484375
1780625765189246500,3.39224658203125,-0.1113433837890625,0.8688812255859375,0.5142822265625
1780625765199276500,3.402276611328125,-0.1401519775390625,0.862548828125,0.5008392333984375
1780625765209306400,3.412306396484375,-0.1554412841796875,0.8523712158203125,0.482452392578125
1780625765219335700,3.422335693359375,-0.1723480224609375,0.788055419921875,0.4598236083984375
1780625765229365500,3.432365478515625,-0.2051239013671875,0.7409820556640625,0.46197509765625
1780625765239394300,3.442394287109375,-0.20208740234375,0.7506561279296875,0.491973876953125
1780625765249424400,3.45242431640625,-0.1812591552734375,0.8045501708984375,0.542205810546875
1780625765259454500,3.462454345703125,-0.1223602294921875,0.7855377197265625,0.5689697265625
1780625765269483500,3.4724833984375,-0.0264739990234375,0.755279541015625,0.594268798828125
1780625765279513300,3.482513427734375,0.00286865234375,0.7930145263671875,0.649627685546875
1780625765289543400,3.49254345703125,-0.0131683349609375,0.8356475830078125,0.6896209716796875
1780625765299572500,3.502572509765625,-0.0072784423828125,0.85003662109375,0.682647705078125
1780625765309602600,3.5126025390625,-0.0182342529296875,0.8585052490234375,0.63397216796875
1780625765319632600,3.522632568359375,-0.06158447265625,0.87188720703125,0.5723724365234375
1780625765329661400,3.532661376953125,-0.144744873046875,0.879852294921875,0.5189361572265625
1780625765339691500,3.54269140625,-0.1670074462890625,0.8637542724609375,0.49237060546875
1780625765349720600,3.552720458984375,-0.1588134765625,0.863433837890625,0.4963226318359375
1780625765359750100,3.562750244140625,-0.15203857421875,0.85986328125,0.5117645263671875
1780625765369780200,3.5727802734375,-0.1420135498046875,0.84454345703125,0.5312347412109375
1780625765379809000,3.58280908203125,-0.168182373046875,0.8446044921875,0.535400390625
1780625765389839000,3.592839111328125,-0.1774749755859375,0.8320770263671875,0.513946533203125
1780625765399869200,3.602869140625,-0.1858673095703125,0.7978515625,0.481964111328125
1780625765409898200,3.612898193359375,-0.1877593994140625,0.7463531494140625,0.452423095703125
1780625765419928300,3.62292822265625,-0.172607421875,0.6954193115234375,0.4315185546875
1780625765429958100,3.632958251953125,-0.18157958984375,0.690338134765625,0.4429168701171875
1780625765439987200,3.6429873046875,-0.1895599365234375,0.74951171875,0.484588623046875
1780625765450017300,3.653017333984375,-0.186370849609375,0.8203582763671875,0.5379791259765625
1780625765460046300,3.66304638671875,-0.2081146240234375,0.88409423828125,0.58892822265625
1780625765470076400,3.673076416015625,-0.1814727783203125,0.8886566162109375,0.6083831787109375
1780625765480106200,3.683106201171875,-0.1769561767578125,0.8422393798828125,0.6014404296875
1780625765490135300,3.69313525390625,-0.17822265625,0.7903289794921875,0.589813232421875
1780625765500165000,3.7031650390625,-0.107177734375,0.74688720703125,0.5781707763671875
1780625765510195200,3.7131953125,0.0811614990234375,0.68170166015625,0.5382537841796875
1780625765520224300,3.723224365234375,0.027069091796875,0.7632904052734375,0.5328521728515625
1780625765530254000,3.733254150390625,-0.239013671875,0.7765960693359375,0.58203125
1780625765540284200,3.7432841796875,-0.1769561767578125,0.7632293701171875,0.5568695068359375
1780625765550313200,3.753313232421875,-0.102508544921875,0.799041748046875,0.540435791015625
1780625765560343300,3.76334326171875,-0.125213623046875,0.8231658935546875,0.5806427001953125
1780625765570372000,3.7733720703125,-0.067626953125,0.729217529296875,0.5760040283203125
1780625765580402200,3.783402099609375,-0.1147003173828125,0.709869384765625,0.6820526123046875
1780625765590432300,3.793432373046875,-0.2581329345703125,0.784942626953125,0.846466064453125
1780625765600461300,3.80346142578125,-0.0806121826171875,0.6913909912109375,0.8536376953125
1780625765610491400,3.813491455078125,0.0811767578125,0.6910400390625,0.82574462890625
1780625765620521200,3.823521240234375,0.0926666259765625,0.725799560546875,0.74493408203125
1780625765630550300,3.83355029296875,-0.01702880859375,0.719879150390625,0.6774444580078125
1780625765640580000,3.843580078125,0.014556884765625,0.634185791015625,0.6165313720703125
1780625765650609200,3.853609130859375,0.053863525390625,0.573028564453125,0.6194610595703125
1780625765660639200,3.86363916015625,0.0715484619140625,0.5235137939453125,0.6750640869140625
1780625765670669300,3.87366943359375,0.0928497314453125,0.4883270263671875,0.7485504150390625
1780625765680698000,3.883697998046875,0.1282196044921875,0.4833221435546875,0.828216552734375
1780625765690728200,3.893728271484375,0.1820831298828125,0.51171875,0.89385986328125
1780625765700758300,3.90375830078125,0.247283935546875,0.5417327880859375,0.9092254638671875
1780625765710787300,3.913787353515625,0.295074462890625,0.62908935546875,0.9107208251953125
1780625765720817400,3.9238173828125,0.3340606689453125,0.7740936279296875,0.9049072265625
1780625765730847200,3.93384716796875,0.3436737060546875,0.8561859130859375,0.8417205810546875
1780625765740876300,3.943876220703125,0.3381805419921875,0.8336181640625,0.77532958984375
1780625765750906000,3.953906005859375,0.326934814453125,0.7627716064453125,0.7342681884765625
1780625765760935400,3.963935302734375,0.31988525390625,0.7081451416015625,0.7049560546875
1780625765770965200,3.97396533203125,0.32476806640625,0.6705780029296875,0.7000732421875
1780625765780995000,3.9839951171875,0.3257293701171875,0.63323974609375,0.7238006591796875
1780625765791024000,3.994024169921875,0.3092193603515625,0.592071533203125,0.761962890625
1780625765801054200,4.00405419921875,0.2970733642578125,0.568603515625,0.795074462890625
1780625765811084300,4.014084228515625,0.2714080810546875,0.56207275390625,0.8190460205078125
1780625765821113000,4.024113037109375,0.2509765625,0.5684967041015625,0.8300018310546875
1780625765831143200,4.03414306640625,0.26422119140625,0.57989501953125,0.836822509765625
1780625765841173200,4.04417333984375,0.2735137939453125,0.5835418701171875,0.8362274169921875
1780625765851202300,4.054202392578125,0.2777557373046875,0.58721923828125,0.8647003173828125
1780625765861232400,4.064232421875,0.2569122314453125,0.6162109375,0.8899993896484375
1780625765871261200,4.07426123046875,0.2106170654296875,0.6167755126953125,0.8714599609375
1780625765881291300,4.084291259765625,0.171295166015625,0.6217193603515625,0.8353424072265625
1780625765891321000,4.094321044921875,0.159942626953125,0.62237548828125,0.80035400390625
1780625765901350100,4.10435009765625,0.1699676513671875,0.62615966796875,0.77667236328125
1780625765911380200,4.114380126953125,0.1820068359375,0.6264801025390625,0.7656097412109375
1780625765921410300,4.124410400390625,0.177154541015625,0.6223297119140625,0.7680511474609375
1780625765931439000,4.134439208984375,0.161285400390625,0.618408203125,0.7861785888671875
1780625765941469200,4.14446923828125,0.1538848876953125,0.6144561767578125,0.8072662353515625
1780625765951499300,4.154499267578125,0.160919189453125,0.6241455078125,0.826019287109375
1780625765961528300,4.1645283203125,0.15899658203125,0.6281890869140625,0.8336181640625
1780625765971558400,4.174558349609375,0.140289306640625,0.606689453125,0.83221435546875
1780625765981587200,4.184587158203125,0.113861083984375,0.5657806396484375,0.8054351806640625
1780625765991617300,4.1946171875,0.093597412109375,0.5279388427734375,0.7652435302734375
1780625766001647400,4.2046474609375,0.076629638671875,0.49774169921875,0.739501953125
1780625766011676400,4.214676513671875,0.0584716796875,0.49066162109375,0.749176025390625
1780625766021706000,4.2247060546875,0.042999267578125,0.5059814453125,0.7752685546875
1780625766031736000,4.234736083984375,0.02496337890625,0.533447265625,0.8008880615234375
1780625766041765000,4.24476513671875,0.0132904052734375,0.550537109375,0.8052978515625
1780625766051795200,4.254795166015625,0.0319366455078125,0.5523223876953125,0.777435302734375
1780625766061825300,4.2648251953125,0.0618743896484375,0.5540618896484375,0.727264404296875
1780625766071854000,4.27485400390625,0.06060791015625,0.5548858642578125,0.6821746826171875
1780625766081884200,4.28488427734375,0.0379791259765625,0.549835205078125,0.6606903076171875
1780625766091914200,4.294914306640625,0.032470703125,0.5317840576171875,0.666107177734375
1780625766101943300,4.304943359375,0.0341033935546875,0.5047760009765625,0.69415283203125
1780625766111973400,4.314973388671875,0.050537109375,0.4682464599609375,0.7339630126953125
1780625766122002200,4.325002197265625,0.07476806640625,0.4308929443359375,0.7700653076171875
1780625766132032300,4.3350322265625,0.1065216064453125,0.4006500244140625,0.7945098876953125
1780625766142062000,4.34506201171875,0.150787353515625,0.3975067138671875,0.8022613525390625
1780625766152091400,4.35509130859375,0.186279296875,0.4204864501953125,0.796722412109375
1780625766162121200,4.365121337890625,0.2018280029296875,0.471649169921875,0.7764892578125
1780625766172151300,4.3751513671875,0.194915771484375,0.5352325439453125,0.7450408935546875
1780625766182180000,4.38518017578125,0.174713134765625,0.613922119140625,0.714630126953125
1780625766192210200,4.395210205078125,0.1556854248046875,0.6891632080078125,0.6921234130859375
1780625766202240300,4.405240234375,0.1314697265625,0.7248687744140625,0.6806488037109375
1780625766212269300,4.415269287109375,0.1258697509765625,0.728363037109375,0.6927032470703125
1780625766222299400,4.42529931640625,0.1483001708984375,0.7108154296875,0.7252197265625
1780625766232328200,4.435328125,0.1603546142578125,0.6793060302734375,0.7596893310546875
1780625766242358300,4.445358154296875,0.1635894775390625,0.6520233154296875,0.7958984375
1780625766252388400,4.455388427734375,0.1598968505859375,0.614532470703125,0.8233184814453125
1780625766262417400,4.46541748046875,0.15618896484375,0.5773468017578125,0.848052978515625
1780625766272447200,4.475447265625,0.15380859375,0.5317230224609375,0.858001708984375
1780625766282477000,4.48547705078125,0.168060302734375,0.4805908203125,0.852813720703125
1780625766292506000,4.495506103515625,0.1831207275390625,0.452606201171875,0.8233184814453125
1780625766302536200,4.5055361328125,0.1966400146484375,0.4365386962890625,0.7779083251953125
1780625766312566300,4.515566162109375,0.21728515625,0.4369354248046875,0.7375946044921875
1780625766322595000,4.525594970703125,0.25537109375,0.4603424072265625,0.7157135009765625
1780625766332625200,4.535625244140625,0.29278564453125,0.4978179931640625,0.7120361328125
1780625766342655200,4.5456552734375,0.32916259765625,0.528167724609375,0.7308807373046875
1780625766352684300,4.555684326171875,0.372467041015625,0.5561676025390625,0.77789306640625
1780625766362715000,4.56571484375,0.39874267578125,0.5789794921875,0.8314361572265625
1780625766372744000,4.575743896484375,0.4088592529296875,0.602325439453125,0.8698883056640625
1780625766382773800,4.585773681640625,0.370269775390625,0.642486572265625,0.8908538818359375
1780625766392803800,4.595803955078125,0.3001708984375,0.668426513671875,0.8985748291015625
1780625766402832600,4.60583251953125,0.26324462890625,0.6559295654296875,0.882110595703125
1780625766412862700,4.61586279296875,0.265716552734375,0.60540771484375,0.8441009521484375
1780625766422892800,4.625892822265625,0.2532958984375,0.520294189453125,0.791961669921875
1780625766432921900,4.635921875,0.2507476806640625,0.45269775390625,0.7527618408203125
1780625766442952000,4.645951904296875,0.25177001953125,0.4173583984375,0.7386932373046875
1780625766452982000,4.65598193359375,0.24468994140625,0.401641845703125,0.75164794921875
1780625766463010800,4.6660107421875,0.2672882080078125,0.3985595703125,0.8121795654296875
1780625766473041000,4.676041015625,0.305206298828125,0.40130615234375,0.863006591796875
1780625766483070000,4.686070068359375,0.3331298828125,0.4096832275390625,0.8830718994140625
1780625766493100000,4.69610009765625,0.358734130859375,0.437652587890625,0.86297607421875
1780625766503129900,4.7061298828125,0.385223388671875,0.4901580810546875,0.808502197265625
1780625766513159000,4.716158935546875,0.4055328369140625,0.5395050048828125,0.731903076171875
1780625766523188700,4.726188720703125,0.4412994384765625,0.57025146484375,0.6692657470703125
1780625766533218800,4.73621875,0.4696197509765625,0.593597412109375,0.6480255126953125
1780625766543248000,4.746247802734375,0.494598388671875,0.58795166015625,0.652740478515625
1780625766553277700,4.756277587890625,0.493072509765625,0.554443359375,0.6853790283203125
1780625766563307800,4.766307861328125,0.4669952392578125,0.523651123046875,0.7444915771484375
1780625766573336800,4.7763369140625,0.4441375732421875,0.4879150390625,0.8040924072265625
1780625766583367000,4.786366943359375,0.436492919921875,0.4472808837890625,0.84442138671875
1780625766593397000,4.79639697265625,0.449493408203125,0.4426116943359375,0.8615570068359375
1780625766603425800,4.80642578125,0.4565887451171875,0.474884033203125,0.8571014404296875
1780625766613456000,4.816455810546875,0.451690673828125,0.5255889892578125,0.8353729248046875
1780625766623485000,4.82648486328125,0.450592041015625,0.562286376953125,0.8115234375
1780625766633515000,4.836514892578125,0.4485626220703125,0.5723724365234375,0.791473388671875
1780625766643544800,4.846544921875,0.4630584716796875,0.5765228271484375,0.7798004150390625
1780625766653573600,4.85657373046875,0.475128173828125,0.5818939208984375,0.773223876953125
1780625766663603700,4.866603759765625,0.455352783203125,0.5793609619140625,0.770355224609375
1780625766673633800,4.8766337890625,0.4032745361328125,0.5630340576171875,0.774139404296875
1780625766683662800,4.886662841796875,0.36083984375,0.546051025390625,0.7719573974609375
1780625766693693000,4.89669287109375,0.3682403564453125,0.536956787109375,0.75653076171875
1780625766703723000,4.906722900390625,0.3831939697265625,0.5322418212890625,0.7461395263671875
1780625766713751800,4.916751708984375,0.3988189697265625,0.5211334228515625,0.74652099609375
1780625766723782000,4.926781982421875,0.4126129150390625,0.51025390625,0.7543487548828125
1780625766733811000,4.93681103515625,0.4027557373046875,0.501373291015625,0.766265869140625
1780625766743841000,4.946841064453125,0.3953399658203125,0.4918365478515625,0.78106689453125
1780625766753870800,4.956870849609375,0.3985748291015625,0.48968505859375,0.7898712158203125
1780625766763900000,4.96689990234375,0.401123046875,0.501373291015625,0.7888031005859375
1780625766773929700,4.9769296875,0.4093170166015625,0.517333984375,0.779693603515625
1780625766783959800,4.986959716796875,0.4052734375,0.5263671875,0.75384521484375
1780625766793988900,4.99698876953125,0.3983001708984375,0.5248260498046875,0.7223663330078125
1780625766804018700,5.007018798828125,0.3930816650390625,0.5129852294921875,0.6970977783203125
1780625766814048800,5.017048828125,0.39605712890625,0.508148193359375,0.6901397705078125
1780625766824077800,5.027077880859375,0.410064697265625,0.506500244140625,0.6980743408203125
1780625766834108000,5.03710791015625,0.4125518798828125,0.4920654296875,0.7025909423828125
1780625766844138000,5.047137939453125,0.40966796875,0.4841766357421875,0.6998138427734375
1780625766854166800,5.057166748046875,0.40478515625,0.4832916259765625,0.6978302001953125
1780625766864196900,5.06719677734375,0.4032440185546875,0.4871673583984375,0.694183349609375
1780625766874226000,5.077225830078125,0.39508056640625,0.4960174560546875,0.6895294189453125
1780625766884256000,5.087256103515625,0.39093017578125,0.5098114013671875,0.6843719482421875
1780625766894285800,5.097285888671875,0.3960418701171875,0.52880859375,0.68365478515625
1780625766904315000,5.10731494140625,0.399200439453125,0.546051025390625,0.691497802734375
1780625766914344700,5.1173447265625,0.388641357421875,0.54791259765625,0.6989288330078125
1780625766924374800,5.127374755859375,0.3789215087890625,0.5305023193359375,0.7039031982421875
1780625766934403800,5.13740380859375,0.3743438720703125,0.5097808837890625,0.7161102294921875
1780625766944434000,5.147433837890625,0.3684234619140625,0.4993896484375,0.7411956787109375
1780625766954464000,5.157464111328125,0.3697662353515625,0.5108489990234375,0.7643280029296875
1780625766964492800,5.167492919921875,0.3686370849609375,0.5220489501953125,0.7701263427734375
1780625766974523000,5.17752294921875,0.3699188232421875,0.512359619140625,0.755401611328125
1780625766984553000,5.187552978515625,0.3733978271484375,0.4985198974609375,0.733612060546875
1780625766994582000,5.19758203125,0.3822174072265625,0.48016357421875,0.7241363525390625
1780625767004611800,5.20761181640625,0.3987884521484375,0.4616546630859375,0.7263336181640625
1780625767014641000,5.217640869140625,0.3965301513671875,0.4514312744140625,0.73162841796875
1780625767024670700,5.227670654296875,0.3992767333984375,0.447052001953125,0.7397308349609375
1780625767034700800,5.23770068359375,0.429046630859375,0.442138671875,0.7377166748046875
1780625767044729900,5.247729736328125,0.4587554931640625,0.4759063720703125,0.72119140625
1780625767054759700,5.257759765625,0.4872589111328125,0.524261474609375,0.701263427734375
1780625767064789800,5.267789794921875,0.504150390625,0.544036865234375,0.6546478271484375
1780625767074818800,5.27781884765625,0.50201416015625,0.550048828125,0.5962677001953125
1780625767084849000,5.287848876953125,0.4553375244140625,0.5634002685546875,0.565185546875
1780625767094879000,5.29787890625,0.4088897705078125,0.6061553955078125,0.5916748046875
1780625767104907800,5.30790771484375,0.3971099853515625,0.6404876708984375,0.6548919677734375
1780625767114937900,5.317937744140625,0.4124755859375,0.6385498046875,0.7161712646484375
1780625767124968000,5.327968017578125,0.3925628662109375,0.604400634765625,0.74298095703125
1780625767134997000,5.3379970703125,0.3675384521484375,0.5642547607421875,0.7314300537109375
1780625767145026800,5.34802685546875,0.366973876953125,0.5350189208984375,0.7267913818359375
1780625767155055900,5.358055908203125,0.412078857421875,0.491546630859375,0.75286865234375
1780625767165085700,5.368085693359375,0.44207763671875,0.454193115234375,0.720184326171875
1780625767175115800,5.37811572265625,0.4713592529296875,0.4847869873046875,0.6851959228515625
1780625767185144800,5.388144775390625,0.5162353515625,0.53387451171875,0.660369873046875
1780625767195175000,5.3981748046875,0.5529327392578125,0.5614471435546875,0.6403045654296875
1780625767205205000,5.408205078125,0.577423095703125,0.5627593994140625,0.62353515625
1780625767215233800,5.41823388671875,0.566070556640625,0.552734375,0.60809326171875
1780625767225263900,5.428263916015625,0.529754638671875,0.5864715576171875,0.6148834228515625
1780625767235294000,5.4382939453125,0.53521728515625,0.61920166015625,0.6482391357421875
1780625767245323000,5.448322998046875,0.5489501953125,0.629852294921875,0.67596435546875
1780625767255353900,5.458353759765625,0.5108642578125,0.635223388671875,0.691741943359375
1780625767265382700,5.468382568359375,0.4722137451171875,0.6409759521484375,0.712432861328125
1780625767275412700,5.478412841796875,0.4670257568359375,0.6541595458984375,0.751708984375
1780625767285442800,5.48844287109375,0.4655303955078125,0.6413116455078125,0.80096435546875
1780625767295471900,5.498471923828125,0.5034942626953125,0.6313018798828125,0.850860595703125
1780625767305502000,5.508501953125,0.534393310546875,0.6113128662109375,0.9014892578125
1780625767315531800,5.51853173828125,0.560943603515625,0.5840911865234375,0.9428558349609375
1780625767325560800,5.528560791015625,0.5554046630859375,0.5666351318359375,0.9456024169921875
1780625767335591000,5.5385908203125,0.51531982421875,0.560272216796875,0.905059814453125
1780625767345621000,5.54862109375,0.5425872802734375,0.5831146240234375,0.8268585205078125
1780625767355650000,5.558650146484375,0.599609375,0.5741424560546875,0.7417144775390625
1780625767365679600,5.5686796875,0.6370697021484375,0.52154541015625,0.664642333984375
1780625767375709200,5.578709228515625,0.6612091064453125,0.47918701171875,0.610687255859375
1780625767385738200,5.58873828125,0.6611480712890625,0.46588134765625,0.5919036865234375
1780625767395768000,5.59876806640625,0.646392822265625,0.4473876953125,0.625396728515625
1780625767405798100,5.608798095703125,0.6445770263671875,0.4490966796875,0.675750732421875
1780625767415826200,5.618826171875,0.642547607421875,0.443939208984375,0.7655792236328125
1780625767425856000,5.62885595703125,0.6297149658203125,0.3821563720703125,0.8042755126953125
1780625767435886000,5.638885986328125,0.5224456787109375,0.2574310302734375,0.990509033203125
1780625767445915000,5.648914794921875,0.4493408203125,-0.3022003173828125,2.07208251953125
1780625767455945000,5.658945068359375,0.3459930419921875,-0.7530670166015625,3.89898681640625
1780625767465974000,5.66897412109375,-0.1635894775390625,0.112274169921875,1.7843170166015625
1780625767476004000,5.679004150390625,-0.11663818359375,0.8097381591796875,-0.4109649658203125
1780625767486034200,5.6890341796875,-1.261962890625,1.4152069091796875,-1.1059417724609375
1780625767496063000,5.69906298828125,1.15289306640625,2.19244384765625,-1.589263916015625
1780625767506093000,5.709093017578125,3.3137054443359375,2.1977386474609375,-1.0813140869140625
1780625767516123100,5.719123046875,1.2473297119140625,0.9515380859375,0.3701171875
1780625767526152200,5.729152099609375,0.692047119140625,0.6950836181640625,0.825408935546875
1780625767536182300,5.739182373046875,0.4276580810546875,0.3532867431640625,0.6753692626953125
1780625767546212000,5.749212158203125,0.1714324951171875,0.0636444091796875,0.7356719970703125
1780625767556241200,5.7592412109375,-0.0164031982421875,0.140594482421875,0.7686004638671875
1780625767566271000,5.76927099609375,0.09710693359375,0.4415740966796875,0.669189453125
1780625767576301000,5.779301025390625,0.343780517578125,0.654632568359375,0.5594024658203125
1780625767586330000,5.789330078125,0.650634765625,0.6105804443359375,0.4524688720703125
1780625767596360200,5.799360107421875,0.78106689453125,0.50079345703125,0.3475189208984375
1780625767606390000,5.80939013671875,0.7902984619140625,0.483856201171875,0.313079833984375
1780625767616419000,5.819419189453125,0.6076507568359375,0.5439453125,0.3790283203125
1780625767626449200,5.82944921875,0.538482666015625,0.5855865478515625,0.347625732421875
1780625767636478200,5.839478271484375,0.4597930908203125,0.6114349365234375,0.360626220703125
1780625767646508000,5.849508056640625,0.4800872802734375,0.688079833984375,0.405975341796875
1780625767656538000,5.8595380859375,0.5474395751953125,0.747772216796875,0.4682159423828125
1780625767666567200,5.869567138671875,0.6313018798828125,0.7742156982421875,0.5023956298828125
1780625767676597000,5.879596923828125,0.6649017333984375,0.8253326416015625,0.5156402587890625
1780625767686627000,5.889626953125,0.6479339599609375,0.74951171875,0.5482177734375
1780625767696656000,5.89965576171875,0.6046295166015625,0.6725616455078125,0.586883544921875
1780625767706686000,5.90968603515625,0.4954681396484375,0.620147705078125,0.592193603515625
1780625767716716000,5.919716064453125,0.427978515625,0.5440216064453125,0.54742431640625
1780625767726745000,5.9297451171875,0.4641265869140625,0.5312042236328125,0.4810943603515625
1780625767736775200,5.939775146484375,0.5436859130859375,0.5487060546875,0.428680419921875
1780625767746805200,5.94980517578125,0.5658721923828125,0.588653564453125,0.3780059814453125
1780625767756834000,5.959833984375,0.592498779296875,0.6606597900390625,0.329376220703125
1780625767766864100,5.969864013671875,0.666473388671875,0.7083282470703125,0.3104248046875
1780625767776894200,5.979894287109375,0.60882568359375,0.7356719970703125,0.351593017578125
1780625767786923300,5.98992333984375,0.5407562255859375,0.668548583984375,0.4013214111328125
1780625767796953000,5.999953125,0.5373687744140625,0.7172088623046875,0.4796142578125
1780625767806982100,6.009982177734375,0.554595947265625,0.8893890380859375,0.5323486328125
1780625767817012000,6.020011962890625,0.5546417236328125,0.9134674072265625,0.5714874267578125
1780625767827042000,6.0300419921875,0.512542724609375,0.7951507568359375,0.5735015869140625
1780625767837071000,6.040071044921875,0.429779052734375,0.66326904296875,0.5832061767578125
1780625767847101200,6.05010107421875,0.484710693359375,0.621368408203125,0.56719970703125
1780625767857131000,6.060131103515625,0.54693603515625,0.6773529052734375,0.559600830078125
1780625767867160000,6.07016015625,0.563568115234375,0.7233734130859375,0.546630859375
1780625767877190100,6.080190185546875,0.6062469482421875,0.818695068359375,0.509613037109375
1780625767887220200,6.09022021484375,0.69366455078125,0.8344268798828125,0.495574951171875
1780625767897249000,6.1002490234375,0.698699951171875,0.8682708740234375,0.4973297119140625
1780625767907279000,6.110279052734375,0.5337371826171875,0.880462646484375,0.40478515625
1780625767917309000,6.120308837890625,0.435791015625,0.8179473876953125,0.3209991455078125
1780625767927338200,6.130338134765625,0.279083251953125,0.7601470947265625,0.301116943359375
1780625767937368000,6.1403681640625,0.1254119873046875,0.7314605712890625,0.2351837158203125
1780625767947398100,6.150398193359375,0.207183837890625,0.657958984375,0.169403076171875
1780625767957427000,6.160427001953125,0.3281097412109375,0.602447509765625,0.1570281982421875
1780625767967457000,6.17045703125,0.4720306396484375,0.6198883056640625,0.1085968017578125
1780625767977487000,6.180487060546875,0.5945892333984375,0.6892242431640625,0.06866455078125
1780625767987516200,6.19051611328125,0.73486328125,0.7383575439453125,0.0106353759765625
1780625767997546200,6.200546142578125,0.8961181640625,0.71142578125,0.0214691162109375
1780625768007575000,6.210574951171875,0.6552734375,0.6989898681640625,0.0669097900390625
1780625768017605000,6.220605224609375,0.4666595458984375,0.7067413330078125,0.470123291015625
1780625768027635200,6.23063525390625,0.4338531494140625,0.911712646484375,0.813751220703125
1780625768037664300,6.240664306640625,0.324371337890625,0.9714508056640625,0.753631591796875
1780625768047694000,6.250694091796875,0.1736907958984375,0.8055267333984375,0.585784912109375
1780625768057724000,6.260723876953125,0.1135406494140625,0.7531890869140625,0.6230621337890625
1780625768067753000,6.2707529296875,0.1299285888671875,0.7181243896484375,0.7205352783203125
1780625768077783000,6.280782958984375,0.16839599609375,0.628662109375,0.793609619140625
1780625768087813000,6.290813232421875,0.1894073486328125,0.5247344970703125,0.8539581298828125
1780625768097842000,6.300842041015625,0.1971588134765625,0.3756561279296875,0.9073486328125
1780625768107872000,6.3108720703125,0.1640167236328125,0.2556915283203125,0.9684906005859375
1780625768117902000,6.320902099609375,0.14532470703125,0.2276153564453125,0.95465087890625
1780625768127931100,6.33093115234375,0.1771240234375,0.2339324951171875,0.9189910888671875
1780625768137961200,6.340961181640625,0.25579833984375,0.282440185546875,0.888031005859375
1780625768147991300,6.3509912109375,0.2969970703125,0.3521270751953125,0.8390960693359375
1780625768158020000,6.36102001953125,0.312286376953125,0.4330596923828125,0.8059234619140625
1780625768168050200,6.37105029296875,0.31195068359375,0.540679931640625,0.7710418701171875
1780625768178080000,6.381080078125,0.3338623046875,0.611297607421875,0.7296295166015625
1780625768188109000,6.391109130859375,0.3617095947265625,0.6173858642578125,0.67559814453125
1780625768198139100,6.40113916015625,0.402374267578125,0.5940399169921875,0.6247711181640625
1780625768208168000,6.41116796875,0.4586334228515625,0.5731353759765625,0.5858917236328125
1780625768218198000,6.421197998046875,0.515625,0.567596435546875,0.5709075927734375
1780625768228228000,6.43122802734375,0.5706024169921875,0.5890960693359375,0.5804901123046875
1780625768238257200,6.441257080078125,0.6171112060546875,0.6139068603515625,0.575531005859375
1780625768248287200,6.451287353515625,0.66455078125,0.6239776611328125,0.56536865234375
1780625768258317000,6.461317138671875,0.68597412109375,0.643890380859375,0.538482666015625
1780625768268346000,6.47134619140625,0.676666259765625,0.65283203125,0.509429931640625
1780625768278376200,6.481376220703125,0.6373291015625,0.6474151611328125,0.4884490966796875
1780625768288406000,6.491406005859375,0.583526611328125,0.6207275390625,0.4838714599609375
1780625768298435300,6.501435302734375,0.57220458984375,0.5716400146484375,0.520263671875
1780625768308465000,6.51146484375,0.621246337890625,0.549957275390625,0.574005126953125
1780625768318495000,6.521494873046875,0.6724090576171875,0.5896453857421875,0.61407470703125
1780625768328524000,6.53152392578125,0.701507568359375,0.66455078125,0.643707275390625
1780625768338554000,6.54155419921875,0.7270050048828125,0.7269744873046875,0.662078857421875
1780625768348584200,6.551584228515625,0.733123779296875,0.7326812744140625,0.66485595703125
1780625768358613000,6.561613037109375,0.7169036865234375,0.6915435791015625,0.6688079833984375
1780625768368644000,6.57164404296875,0.6809844970703125,0.6370391845703125,0.6789093017578125
1780625768378674000,6.581673828125,0.6084747314453125,0.577423095703125,0.6921539306640625
1780625768388703000,6.591702880859375,0.5532989501953125,0.535186767578125,0.7047576904296875
1780625768398732800,6.60173291015625,0.5299072265625,0.5252227783203125,0.7244873046875
1780625768408761900,6.611761962890625,0.5094451904296875,0.5378875732421875,0.7433624267578125
1780625768418792000,6.6217919921875,0.5108489990234375,0.555450439453125,0.7509765625
1780625768428822000,6.631822021484375,0.5338897705078125,0.564697265625,0.746368408203125
1780625768438850800,6.641850830078125,0.5552520751953125,0.5567626953125,0.7278289794921875
1780625768448881000,6.651880859375,0.56817626953125,0.54669189453125,0.6954498291015625
1780625768458911000,6.661910888671875,0.5726776123046875,0.553924560546875,0.653350830078125
1780625768468940000,6.67193994140625,0.5796966552734375,0.6104888916015625,0.6323699951171875
1780625768478970000,6.68197021484375,0.6090545654296875,0.7081756591796875,0.666259765625
1780625768489000200,6.692000244140625,0.6323699951171875,0.7740325927734375,0.729705810546875
1780625768499029000,6.702029052734375,0.6136627197265625,0.764923095703125,0.7809906005859375
1780625768509059000,6.71205908203125,0.6004180908203125,0.71466064453125,0.830718994140625
1780625768519089000,6.7220888671875,0.6012420654296875,0.67681884765625,0.8865814208984375
1780625768529118000,6.732117919921875,0.5634307861328125,0.6350860595703125,0.9381256103515625
1780625768539147800,6.742147705078125,0.4387664794921875,0.551788330078125,0.979644775390625
1780625768549177900,6.752177734375,0.3101959228515625,0.44580078125,0.9798736572265625
1780625768559207000,6.76220703125,0.317657470703125,0.35479736328125,0.9191436767578125
1780625768569237000,6.772237060546875,0.3999481201171875,0.305145263671875,0.799896240234375
1780625768579267000,6.78226708984375,0.4675445556640625,0.33343505859375,0.669464111328125
1780625768589295900,6.7922958984375,0.45660400390625,0.372100830078125,0.56182861328125
1780625768599326000,6.802325927734375,0.3953704833984375,0.389678955078125,0.4622955322265625
1780625768609356000,6.81235595703125,0.36798095703125,0.357818603515625,0.37554931640625
1780625768619385000,6.822385009765625,0.366302490234375,0.3018798828125,0.324127197265625
1780625768629415000,6.832414794921875,0.3838043212890625,0.2584075927734375,0.3527069091796875
1780625768639445000,6.842445068359375,0.4062042236328125,0.2282257080078125,0.4387664794921875
1780625768649473800,6.852473876953125,0.4068145751953125,0.2263946533203125,0.5330047607421875
1780625768659503900,6.86250390625,0.426544189453125,0.26220703125,0.612640380859375
1780625768669534000,6.872533935546875,0.44830322265625,0.3060302734375,0.67059326171875
1780625768679563000,6.88256298828125,0.454376220703125,0.3278350830078125,0.7013702392578125
1780625768689593000,6.892593017578125,0.4352874755859375,0.3166046142578125,0.7056427001953125
1780625768699623000,6.902622802734375,0.4231414794921875,0.291290283203125,0.689910888671875
1780625768709652000,6.91265185546875,0.3987579345703125,0.2520904541015625,0.673492431640625
1780625768719682000,6.92268212890625,0.4005889892578125,0.2004852294921875,0.632171630859375
1780625768729712000,6.932712158203125,0.442352294921875,0.1883392333984375,0.5827178955078125
1780625768739741200,6.9427412109375,0.4925384521484375,0.231048583984375,0.531158447265625
1780625768749770800,6.952770751953125,0.5491180419921875,0.31671142578125,0.487274169921875
1780625768759800800,6.96280078125,0.600860595703125,0.412933349609375,0.467193603515625
1780625768769830000,6.972829833984375,0.648193359375,0.48028564453125,0.4606475830078125
1780625768779860000,6.98285986328125,0.681427001953125,0.510498046875,0.480987548828125
1780625768789890000,6.99289013671875,0.6914825439453125,0.522064208984375,0.537933349609375
1780625768799918800,7.0029189453125,0.670501708984375,0.5144805908203125,0.6352996826171875
1780625768809949000,7.012948974609375,0.620697021484375,0.4866943359375,0.7577056884765625
1780625768819979000,7.02297900390625,0.581146240234375,0.4477081298828125,0.8567657470703125
1780625768830008000,7.033008056640625,0.566131591796875,0.3928985595703125,0.91552734375
1780625768840038100,7.0430380859375,0.579193115234375,0.32940673828125,0.9184722900390625
1780625768850068000,7.05306787109375,0.605377197265625,0.3090057373046875,0.884796142578125
1780625768860097000,7.063096923828125,0.6335601806640625,0.3526611328125,0.8211517333984375
1780625768870126800,7.073126953125,0.6458587646484375,0.4293212890625,0.7751312255859375
1780625768880157000,7.083156982421875,0.6578826904296875,0.4962921142578125,0.7633209228515625
1780625768890186000,7.09318603515625,0.6719818115234375,0.53265380859375,0.775726318359375
1780625768900215800,7.1032158203125,0.6843109130859375,0.5410919189453125,0.807647705078125
1780625768910246000,7.113245849609375,0.6956787109375,0.535064697265625,0.8549957275390625
1780625768920275000,7.12327490234375,0.7001800537109375,0.4924774169921875,0.883697509765625
1780625768930305000,7.133304931640625,0.7083587646484375,0.4052734375,0.87493896484375
1780625768940334000,7.143333984375,0.7299346923828125,0.297149658203125,0.8216094970703125
1780625768950364000,7.153364013671875,0.7422027587890625,0.19940185546875,0.73834228515625
1780625768960394000,7.16339404296875,0.74566650390625,0.1663055419921875,0.660491943359375
1780625768970424000,7.173424072265625,0.7571258544921875,0.1989898681640625,0.6076507568359375
1780625768980453000,7.183453125,0.7618865966796875,0.2793121337890625,0.60235595703125
1780625768990483000,7.19348291015625,0.7537078857421875,0.3607635498046875,0.657470703125
1780625769000513000,7.203512939453125,0.7625732421875,0.4002532958984375,0.745849609375
1780625769010541800,7.213541748046875,0.762176513671875,0.3876953125,0.81103515625
1780625769020572000,7.223572021484375,0.744842529296875,0.371978759765625,0.838623046875
1780625769030602000,7.23360205078125,0.7598419189453125,0.386199951171875,0.8393402099609375
1780625769040631000,7.243631103515625,0.812408447265625,0.4109039306640625,0.8177032470703125
1780625769050661000,7.2536611328125,0.8541259765625,0.4054718017578125,0.7805633544921875
1780625769060691000,7.26369091796875,0.8578033447265625,0.3627471923828125,0.742095947265625
1780625769070720000,7.273719970703125,0.8434906005859375,0.31903076171875,0.71209716796875
1780625769080750000,7.28375,0.8335723876953125,0.310577392578125,0.7049713134765625
1780625769090780000,7.29377978515625,0.82080078125,0.3264007568359375,0.7354583740234375
1780625769100809000,7.30380908203125,0.7760467529296875,0.337249755859375,0.7752227783203125
1780625769110838800,7.3138388671875,0.7511444091796875,0.3476715087890625,0.7939300537109375
1780625769120868900,7.323868896484375,0.78515625,0.3830718994140625,0.806732177734375
1780625769130898000,7.33389794921875,0.8340301513671875,0.431671142578125,0.8333282470703125
1780625769140928000,7.343927978515625,0.851531982421875,0.4819183349609375,0.8677520751953125
1780625769150956800,7.353956787109375,0.8184051513671875,0.5456085205078125,0.9033050537109375
1780625769160987000,7.36398681640625,0.776824951171875,0.5843963623046875,0.9488067626953125
1780625769171017000,7.374016845703125,0.76123046875,0.5713958740234375,0.983734130859375
1780625769181046000,7.3840458984375,0.812591552734375,0.5451202392578125,1.021453857421875
1780625769191076000,7.394076171875,0.8861541748046875,0.512451171875,1.0671539306640625
1780625769201106200,7.404106201171875,0.915679931640625,0.4710540771484375,1.0879669189453125
1780625769211135000,7.414135009765625,0.9459686279296875,0.4335479736328125,1.0653228759765625
1780625769221165000,7.4241650390625,0.95111083984375,0.3740997314453125,0.9798431396484375
1780625769231195000,7.43419482421875,0.886627197265625,0.2874298095703125,0.852935791015625
1780625769241224000,7.444223876953125,0.81817626953125,0.219390869140625,0.71832275390625
1780625769251254000,7.45425390625,0.7666168212890625,0.1766510009765625,0.6030120849609375
1780625769261283800,7.464283935546875,0.677093505859375,0.13836669921875,0.510223388671875
1780625769271314000,7.47431396484375,0.5925750732421875,0.1107025146484375,0.4571990966796875
1780625769281343000,7.484343017578125,0.5705108642578125,0.1199493408203125,0.4507293701171875
1780625769291373000,7.494373046875,0.55938720703125,0.1509857177734375,0.4755401611328125
1780625769301403100,7.504403076171875,0.564239501953125,0.1778717041015625,0.529632568359375
1780625769311432000,7.514431884765625,0.6186676025390625,0.2005615234375,0.6094818115234375
1780625769321462000,7.5244619140625,0.727142333984375,0.217437744140625,0.6814117431640625
1780625769331491800,7.534491943359375,0.834075927734375,0.2056732177734375,0.74237060546875
1780625769341521200,7.544521240234375,0.88763427734375,0.1602783203125,0.7782135009765625
1780625769351551000,7.554551025390625,0.9069061279296875,0.0796966552734375,0.7475738525390625
1780625769361581000,7.5645810546875,0.8505096435546875,-0.0176544189453125,0.65625
1780625769371610000,7.574610107421875,0.8368682861328125,0.050384521484375,0.6237640380859375
1780625769381640200,7.58464013671875,0.8032989501953125,0.0723114013671875,0.584716796875
1780625769391670300,7.594670166015625,0.75872802734375,0.0929718017578125,0.5568084716796875
1780625769401699300,7.60469921875,0.74371337890625,0.1214141845703125,0.5482025146484375
1780625769411729400,7.6147294921875,0.7572479248046875,0.1488037109375,0.54833984375
1780625769421759500,7.624759521484375,0.7630157470703125,0.1416015625,0.548736572265625
1780625769431788300,7.634788330078125,0.7766876220703125,0.105194091796875,0.5454559326171875
1780625769441818000,7.644818115234375,0.7654266357421875,0.0793914794921875,0.5405731201171875
1780625769451848200,7.65484814453125,0.7151336669921875,0.02880859375,0.545501708984375
1780625769461877200,7.664877197265625,0.6844635009765625,-0.0211639404296875,0.508758544921875
1780625769471907300,7.6749072265625,0.69305419921875,-0.0585784912109375,0.4474029541015625
1780625769481937200,7.684937255859375,0.73577880859375,-0.1261138916015625,0.42547607421875
1780625769491966200,7.69496630859375,0.806396484375,-0.064208984375,0.4347991943359375
1780625769501996300,7.704996337890625,0.7454376220703125,-0.1430511474609375,0.446624755859375
1780625769512026400,7.7150263671875,0.64556884765625,-0.2482147216796875,0.39166259765625
1780625769522055200,7.72505517578125,0.57000732421875,-0.2686309814453125,0.35601806640625
1780625769532085200,7.735085205078125,0.5122222900390625,-0.3124847412109375,0.3013458251953125
1780625769542115300,7.745115234375,0.490692138671875,-0.322723388671875,0.2334442138671875
1780625769552144400,7.755144287109375,0.5042266845703125,-0.3240509033203125,0.24334716796875
1780625769562174200,7.76517431640625,0.5134429931640625,-0.320465087890625,0.1705780029296875
1780625769572204300,7.775204345703125,0.5732421875,-0.2812347412109375,0.0789337158203125
1780625769582233000,7.785233154296875,0.6382293701171875,-0.210662841796875,0.0363006591796875
1780625769592263200,7.79526318359375,0.7111053466796875,-0.166107177734375,-0.02667236328125
1780625769602293200,7.805293212890625,0.7414398193359375,-0.1393890380859375,-0.0194091796875
1780625769612322300,7.815322265625,0.698516845703125,-0.1905059814453125,0.011016845703125
1780625769622352400,7.825352294921875,0.655914306640625,-0.3013763427734375,0.049468994140625
1780625769632382200,7.83538232421875,0.585968017578125,-0.402099609375,0.1156158447265625
1780625769642411300,7.845411376953125,0.547607421875,-0.424560546875,0.1697845458984375
1780625769652441300,7.85544140625,0.562774658203125,-0.427581787109375,0.1569061279296875
1780625769662471200,7.86547119140625,0.560760498046875,-0.4202728271484375,0.090087890625
1780625769672500500,7.87550048828125,0.563140869140625,-0.3695068359375,0.0421142578125
1780625769682530000,7.885530029296875,0.5848541259765625,-0.29327392578125,0.04962158203125
1780625769692560100,7.89556005859375,0.71533203125,-0.2293701171875,0.1791534423828125
1780625769702589200,7.905589111328125,0.96392822265625,-0.02099609375,0.532135009765625
1780625769712619300,7.915619384765625,1.4016571044921875,0.483673095703125,1.40411376953125
1780625769722649300,7.9256494140625,1.6634063720703125,0.4668121337890625,1.8368682861328125
1780625769732678100,7.93567822265625,1.245513916015625,-0.057098388671875,1.0283050537109375
1780625769742708200,7.945708251953125,1.2509765625,-0.323638916015625,0.106170654296875
1780625769752738300,7.95573828125,0.9143829345703125,-0.7252349853515625,-0.5023345947265625
1780625769762767400,7.965767333984375,0.6259307861328125,-0.6379852294921875,-0.182891845703125
1780625769772797400,7.97579736328125,0.7323150634765625,-0.200225830078125,0.4555511474609375
1780625769782827300,7.9858271484375,0.7223968505859375,0.014678955078125,0.4557037353515625
1780625769792856300,7.995856201171875,0.8762664794921875,0.0373992919921875,0.3957672119140625
1780625769802886100,8.00588623046875,1.1397705078125,0.039306640625,0.52789306640625
1780625769812916200,8.015916259765625,1.272705078125,0.0751495361328125,0.5722503662109375
1780625769822945300,8.0259453125,1.1462554931640625,-0.0203857421875,0.4853057861328125
1780625769832975000,8.03597509765625,1.119720458984375,-0.2003326416015625,0.6055755615234375
1780625769843005200,8.046005126953125,1.0949554443359375,-0.4541168212890625,0.68670654296875
1780625769853034200,8.0560341796875,0.9471282958984375,-0.511962890625,0.5810546875
1780625769863064300,8.066064208984375,0.9092254638671875,-0.348388671875,0.5829010009765625
1780625769873094400,8.076094482421874,0.959442138671875,-0.2115936279296875,0.62017822265625
1780625769883123200,8.086123291015625,0.9658660888671875,-0.1446533203125,0.5295257568359375
1780625769893153300,8.0961533203125,0.898101806640625,-0.104400634765625,0.4362030029296875
1780625769903183000,8.10618310546875,0.84423828125,-0.0253753662109375,0.4835052490234375
1780625769913212400,8.11621240234375,0.8381195068359375,0.0432281494140625,0.5612335205078125
1780625769923242200,8.1262421875,0.857025146484375,0.0142974853515625,0.6067047119140625
1780625769933272300,8.136272216796876,0.877105712890625,-0.0596466064453125,0.6146697998046875
1780625769943301000,8.146301025390626,0.8669891357421875,-0.0926513671875,0.5730438232421875
1780625769953331200,8.156331298828125,0.8493499755859375,-0.076873779296875,0.5353240966796875
1780625769963361300,8.166361328125,0.8118896484375,-0.0673980712890625,0.503265380859375
1780625769973390300,8.176390380859376,0.7686920166015625,-0.0716705322265625,0.4765625
1780625769983420400,8.18642041015625,0.768310546875,-0.08807373046875,0.4337310791015625
1780625769993450200,8.1964501953125,0.7379608154296875,-0.09771728515625,0.420989990234375
1780625770003479300,8.206479248046875,0.738067626953125,-0.080352783203125,0.422698974609375
1780625770013509400,8.21650927734375,0.72906494140625,-0.0424346923828125,0.4245452880859375
1780625770023539200,8.226539306640625,0.7106475830078125,-0.0288543701171875,0.432159423828125
1780625770033568300,8.236568359375,0.6983642578125,-0.018402099609375,0.4662933349609375
1780625770043598000,8.24659814453125,0.673370361328125,-0.0390625,0.50787353515625
1780625770053628200,8.256628173828124,0.66839599609375,-0.064178466796875,0.54180908203125
1780625770063657200,8.2666572265625,0.66595458984375,-0.1169891357421875,0.5859375
1780625770073687300,8.276687255859375,0.6759796142578125,-0.16888427734375,0.6271209716796875
1780625770083717400,8.28671728515625,0.722412109375,-0.20660400390625,0.703643798828125
1780625770093746200,8.29674609375,0.7686309814453125,-0.2372283935546875,0.736907958984375
1780625770103776300,8.3067763671875,0.7713165283203125,-0.24749755859375,0.663360595703125
1780625770113806300,8.316806396484376,0.7754974365234375,-0.1931610107421875,0.5763702392578125
1780625770123836200,8.326836181640624,0.7649993896484375,-0.092681884765625,0.5219879150390625
1780625770133865500,8.336865478515625,0.729583740234375,-0.0110321044921875,0.48541259765625
1780625770143895000,8.34689501953125,0.6954498291015625,0.0018768310546875,0.4589385986328125
1780625770153925000,8.356925048828124,0.669677734375,-0.02227783203125,0.4351654052734375
1780625770163954200,8.3669541015625,0.655487060546875,-0.069976806640625,0.4310302734375
1780625770173984300,8.376984375,0.6694183349609375,-0.1313018798828125,0.46051025390625
1780625770184014300,8.387014404296876,0.7016143798828125,-0.167510986328125,0.491729736328125
1780625770194043100,8.397043212890624,0.7352142333984375,-0.15966796875,0.52203369140625
1780625770204073200,8.4070732421875,0.777587890625,-0.1318206787109375,0.586395263671875
1780625770214103300,8.417103271484375,0.798065185546875,-0.102386474609375,0.5994415283203125
1780625770224132400,8.42713232421875,0.8071136474609375,-0.0807342529296875,0.5565948486328125
1780625770234162400,8.437162353515625,0.7953033447265625,-0.0963134765625,0.535858154296875
1780625770244192300,8.447192138671875,0.77099609375,-0.1129302978515625,0.5360260009765625
1780625770254221300,8.45722119140625,0.759307861328125,-0.1427001953125,0.584716796875
1780625770264251100,8.467251220703124,0.7319488525390625,-0.190887451171875,0.5862884521484375
1780625770274281200,8.47728125,0.7099456787109375,-0.2234039306640625,0.5518951416015625
1780625770284310300,8.487310302734375,0.7678070068359375,-0.1903076171875,0.5245361328125
1780625770294340400,8.49734033203125,0.8193206787109375,-0.1215362548828125,0.497406005859375
1780625770304370200,8.5073701171875,0.8473968505859375,-0.07904052734375,0.469329833984375
1780625770314399200,8.517399169921875,0.881011962890625,-0.0539703369140625,0.47625732421875
1780625770324429300,8.52742919921875,0.9005126953125,-0.0216827392578125,0.5048675537109375
1780625770334459400,8.53745947265625,0.865631103515625,0.00048828125,0.5789337158203125
1780625770344488400,8.547488525390625,0.882843017578125,-0.3565216064453125,0.6117095947265625
1780625770354518300,8.557518310546875,0.8583984375,-0.2407684326171875,0.6389007568359375
1780625770364548000,8.567548095703126,0.847808837890625,-0.3111572265625,0.668609619140625
1780625770374577000,8.577576904296874,0.8197784423828125,-0.356231689453125,0.6737213134765625
1780625770384606700,8.587606689453125,0.8142852783203125,-0.374420166015625,0.65338134765625
1780625770394636800,8.59763671875,0.843048095703125,-0.3615875244140625,0.6388092041015625
1780625770404665900,8.607665771484376,0.874603271484375,-0.334442138671875,0.615325927734375
1780625770414696000,8.617696044921875,0.88262939453125,-0.3110504150390625,0.62078857421875
1780625770424725800,8.627725830078125,0.87799072265625,-0.286590576171875,0.6339874267578125
1780625770434754800,8.6377548828125,0.8632354736328125,-0.2765960693359375,0.580596923828125
1780625770444785000,8.647784912109374,0.868377685546875,-0.2686004638671875,0.5327606201171875
1780625770454815000,8.65781494140625,0.861480712890625,-0.299896240234375,0.534881591796875
1780625770464844000,8.667843994140625,0.850372314453125,-0.3455810546875,0.5606536865234375
1780625770474873900,8.677873779296876,0.8727264404296875,-0.3898468017578125,0.6026153564453125
1780625770484904000,8.687904052734375,0.8597869873046875,-0.425018310546875,0.6476287841796875
1780625770494933800,8.697933837890625,0.87078857421875,-0.46026611328125,0.683074951171875
1780625770504962800,8.707962890625,0.8760528564453125,-0.3984832763671875,0.748077392578125
1780625770514993000,8.717992919921874,0.83544921875,-0.223236083984375,0.7292938232421875
1780625770525023000,8.72802294921875,0.8130950927734375,-0.630828857421875,0.6943817138671875
1780625770535051800,8.7380517578125,0.8257904052734375,-0.44952392578125,0.6889495849609375
1780625770545081900,8.748081787109374,0.8501129150390625,-0.3354949951171875,0.7476654052734375
1780625770555112000,8.75811181640625,0.8746795654296875,-0.3551177978515625,0.76129150390625
1780625770565141000,8.76814111328125,0.9051666259765625,-0.3745269775390625,0.7857513427734375
1780625770575171000,8.778171142578126,0.905517578125,-0.46917724609375,0.79998779296875
1780625770585201000,8.788200927734374,0.9158477783203125,-0.50152587890625,0.846771240234375
1780625770595230000,8.79822998046875,0.89654541015625,-0.5512847900390625,0.874267578125
1780625770605259800,8.808259765625,0.8807220458984375,-0.5448150634765625,0.872039794921875
1780625770615289900,8.818289794921874,0.856536865234375,-0.5719451904296875,0.8708953857421875
1780625770625319000,8.82831884765625,0.837738037109375,-0.63201904296875,0.843231201171875
1780625770635348700,8.8383486328125,0.745513916015625,-0.415618896484375,0.76959228515625
1780625770645378800,8.84837890625,0.6987762451171875,-0.3521575927734375,0.7107391357421875
1780625770655407900,8.858407958984374,0.6353759765625,-0.274505615234375,0.65631103515625
1780625770665438000,8.86843798828125,0.5699005126953125,-0.1955413818359375,0.5946807861328125
1780625770675468000,8.878468017578125,0.50567626953125,-0.11468505859375,0.543975830078125
1780625770685496800,8.888496826171876,0.443115234375,-0.0501861572265625,0.5185394287109375
1780625770695527000,8.89852685546875,0.4185638427734375,-0.006256103515625,0.5053558349609375
1780625770705557000,8.908556884765625,0.4019622802734375,0.0149993896484375,0.475616455078125
1780625770715586000,8.9185859375,0.3824462890625,0.003204345703125,0.4721527099609375
1780625770725615900,8.928615966796874,0.3637542724609375,-0.028076171875,0.5031890869140625
1780625770735645700,8.938645751953125,0.33477783203125,-0.075531005859375,0.5431976318359375
1780625770745674800,8.9486748046875,0.3136138916015625,-0.1283721923828125,0.6016845703125
1780625770755704800,8.958704833984376,0.3397369384765625,-0.132720947265625,0.640106201171875
1780625770765735000,8.96873486328125,0.35858154296875,-0.092681884765625,0.6144866943359375
1780625770775765000,8.978764892578125,0.379241943359375,-0.0600128173828125,0.6097259521484375
1780625770785793800,8.988793701171875,0.4194793701171875,-0.05218505859375,0.6337890625
1780625770795823900,8.998823974609374,0.4704742431640625,-0.0556640625,0.6595458984375
1780625770805854000,9.00885400390625,0.5342559814453125,-0.057769775390625,0.7098236083984375
1780625770815883000,9.018883056640625,0.5616455078125,-0.0604248046875,0.725738525390625
1780625770825912800,9.028912841796876,0.5756072998046875,-0.0847930908203125,0.7299957275390625
1780625770835943000,9.03894287109375,0.5911712646484375,-0.1077117919921875,0.7535552978515625
1780625770845971700,9.0489716796875,0.592010498046875,-0.122955322265625,0.7762603759765625
1780625770856001800,9.059001708984376,0.552825927734375,-0.1480865478515625,0.7391204833984375
1780625770866031900,9.069031982421874,0.519561767578125,-0.19976806640625,0.709564208984375
1780625770876061000,9.07906103515625,0.512786865234375,-0.2400360107421875,0.691192626953125
1780625770886091000,9.089091064453125,0.517059326171875,-0.290191650390625,0.6747589111328125
1780625770896120800,9.099120849609376,0.538909912109375,-0.332275390625,0.65045166015625
1780625770906150000,9.10914990234375,0.5674285888671875,-0.3618927001953125,0.62811279296875
1780625770916180000,9.119179931640625,0.5845489501953125,-0.3715362548828125,0.6195831298828125
1780625770926210000,9.1292099609375,0.60491943359375,-0.350067138671875,0.6619873046875
1780625770936239000,9.139239013671874,0.61895751953125,-0.2939910888671875,0.6747589111328125
1780625770946268700,9.1492685546875,0.6299896240234375,-0.21539306640625,0.6470794677734375
1780625770956298800,9.159298828125,0.6492919921875,-0.1394500732421875,0.624542236328125
1780625770966327800,9.169327880859376,0.651214599609375,-0.0854949951171875,0.5476837158203125
1780625770976358000,9.17935791015625,0.631317138671875,-0.086273193359375,0.483856201171875
1780625770986388000,9.189387939453125,0.6390380859375,-0.1467437744140625,0.5094146728515625
1780625770996418000,9.19941796875,0.628265380859375,-0.2739410400390625,0.5080413818359375
1780625771006446800,9.20944677734375,0.615142822265625,-0.3512725830078125,0.5108642578125
1780625771016477000,9.219476806640625,0.6455230712890625,-0.3712615966796875,0.517852783203125
1780625771026507000,9.229507080078125,0.6892242431640625,-0.3531494140625,0.5109100341796875
1780625771036536000,9.2395361328125,0.7217254638671875,-0.2800445556640625,0.4855804443359375
1780625771046566000,9.24956591796875,0.755767822265625,-0.2168121337890625,0.464202880859375
1780625771056595700,9.259595703125,0.7723236083984375,-0.1971435546875,0.4369354248046875
1780625771066624800,9.269624755859375,0.754730224609375,-0.2588958740234375,0.3728790283203125
1780625771076654800,9.27965478515625,0.7612762451171875,-0.25335693359375,0.392425537109375
1780625771086685000,9.289684814453125,0.821075439453125,-0.3058929443359375,0.473480224609375
1780625771096713700,9.299713623046875,0.8547515869140625,-0.4102783203125,0.503753662109375
1780625771106743800,9.309743896484376,0.88201904296875,-0.51971435546875,0.473419189453125
1780625771116774000,9.31977392578125,0.842315673828125,-0.5440216064453125,0.3763275146484375
1780625771126803000,9.329802978515625,0.8265228271484375,-0.4492034912109375,0.3314666748046875
1780625771136833000,9.3398330078125,0.8351898193359375,-0.3934478759765625,0.3007354736328125
1780625771146863000,9.349863037109374,0.875762939453125,-0.3170013427734375,0.297454833984375
1780625771156892000,9.359891845703125,0.945892333984375,-0.2391510009765625,0.3344268798828125
1780625771166921700,9.369921630859375,0.96697998046875,-0.2860260009765625,0.315826416015625
1780625771176951800,9.379951904296876,0.95037841796875,-0.3775634765625,0.2480926513671875
1780625771186982000,9.38998193359375,0.94921875,-0.4696807861328125,0.241943359375
1780625771197011000,9.400010986328125,0.9963836669921875,-0.53106689453125,0.319122314453125
1780625771207040800,9.410040771484375,0.9740142822265625,-0.5959014892578125,0.3281402587890625
1780625771217070800,9.42007080078125,0.945159912109375,-0.5908050537109375,0.2824554443359375
1780625771227100000,9.430099853515625,1.0226898193359375,-0.5383758544921875,0.251739501953125
1780625771237130000,9.4401298828125,1.1057891845703125,-0.5747528076171875,0.2291259765625
1780625771247160000,9.45016015625,1.1461639404296875,-0.6160125732421875,0.2226409912109375
1780625771257188900,9.46018896484375,1.131011962890625,-0.64385986328125,0.2441558837890625
1780625771267219000,9.470218994140625,1.096588134765625,-0.6728057861328125,0.2591400146484375
1780625771277248800,9.480248779296875,1.0926361083984375,-0.695709228515625,0.2665863037109375
1780625771287277800,9.49027783203125,1.0844268798828125,-0.6983489990234375,0.2486419677734375
1780625771297308000,9.500307861328125,1.07568359375,-0.6859893798828125,0.168975830078125
1780625771307338000,9.510337890625,1.076446533203125,-0.673980712890625,0.0935516357421875
1780625771317366800,9.52036669921875,1.0836334228515625,-0.593170166015625,0.1965484619140625
1780625771327396900,9.53039697265625,1.203155517578125,-0.492401123046875,0.4400787353515625
1780625771337427000,9.540427001953125,1.2887725830078125,-0.481170654296875,0.5390777587890625
1780625771347456000,9.5504560546875,1.3417816162109375,-0.574615478515625,0.42767333984375
1780625771357485800,9.56048583984375,1.3616180419921875,-0.71710205078125,0.195404052734375
1780625771367516000,9.570515869140625,1.2781524658203125,-0.7637481689453125,0.0860443115234375
1780625771377545500,9.58054541015625,1.1073455810546875,-0.7034454345703125,0.1800689697265625
1780625771387574500,9.590574462890626,0.9806060791015625,-0.596923828125,0.30859375
1780625771397604400,9.600604248046874,0.86578369140625,-0.556549072265625,0.260955810546875
1780625771407634200,9.61063427734375,0.771575927734375,-0.593597412109375,0.155364990234375
1780625771417663200,9.620663330078125,0.7155914306640625,-0.6220703125,0.1262359619140625
1780625771427693300,9.630693359375,0.6497802734375,-0.603546142578125,0.07952880859375
1780625771437723400,9.640723388671875,0.6772918701171875,-0.48370361328125,0.0844573974609375
1780625771447752200,9.650752197265625,0.7038726806640625,-0.34100341796875,0.143951416015625
1780625771457782300,9.6607822265625,0.6605377197265625,-0.2886962890625,0.134490966796875
1780625771467812400,9.670812255859374,0.6161041259765625,-0.266876220703125,0.1117706298828125
1780625771477841400,9.68084130859375,0.587738037109375,-0.27484130859375,0.107421875
1780625771487871500,9.69087158203125,0.5391387939453125,-0.3725128173828125,0.0641326904296875
1780625771497901300,9.7009013671875,0.5333099365234375,-0.4547882080078125,0.002960205078125
1780625771507931100,9.71093115234375,0.53509521484375,-0.4919281005859375,-0.0550079345703125
1780625771517960200,9.720960205078125,0.5466766357421875,-0.4506683349609375,-0.1178436279296875
1780625771527990300,9.730990234375,0.5985107421875,-0.354522705078125,-0.1435546875
1780625771538020400,9.741020263671874,0.645660400390625,-0.2914581298828125,-0.1425628662109375
1780625771548049400,9.75104931640625,0.7034454345703125,-0.3094024658203125,-0.136444091796875
1780625771558079200,9.761079345703125,0.733062744140625,-0.3955078125,-0.1644744873046875
1780625771568109300,9.771109375,0.7364959716796875,-0.5043487548828125,-0.1944122314453125
1780625771578138400,9.781138427734374,0.7522125244140625,-0.57720947265625,-0.207855224609375
1780625771588168400,9.79116845703125,0.7561798095703125,-0.5995635986328125,-0.1669769287109375
1780625771598198500,9.801198486328126,0.7589263916015625,-0.5780487060546875,-0.1068115234375
1780625771608227300,9.811227294921874,0.8100433349609375,-0.5492401123046875,-0.05291748046875
1780625771618257400,9.82125732421875,0.8845672607421875,-0.50726318359375,-0.054779052734375
1780625771628287200,9.831287353515625,0.9153289794921875,-0.4425048828125,-0.1080322265625
1780625771638316300,9.84131640625,0.8436126708984375,-0.3913726806640625,-0.13372802734375
1780625771648346400,9.851346435546875,0.750091552734375,-0.36126708984375,-0.11944580078125
1780625771658376400,9.86137646484375,0.7222900390625,-0.3506622314453125,-0.1108551025390625
1780625771668405200,9.8714052734375,0.752105712890625,-0.3552703857421875,-0.1012115478515625
1780625771678435300,9.881435302734374,0.7925262451171875,-0.3755950927734375,-0.0579681396484375
1780625771688465400,9.89146533203125,0.794342041015625,-0.420654296875,0.01336669921875
1780625771698495500,9.90149560546875,0.789306640625,-0.457244873046875,0.0752716064453125
1780625771708524500,9.911524658203126,0.8389892578125,-0.4752197265625,0.14642333984375
1780625771718554400,9.921554443359375,0.94482421875,-0.4733734130859375,0.257781982421875
1780625771728584200,9.931584228515625,1.0207977294921875,-0.4454193115234375,0.3828582763671875
1780625771738613200,9.94161328125,1.0597991943359375,-0.478118896484375,0.4325714111328125
1780625771748643300,9.951643310546874,0.9348907470703125,-0.552398681640625,0.35064697265625
1780625771758673400,9.96167333984375,0.7572174072265625,-0.607391357421875,0.08087158203125
1780625771768702200,9.9717021484375,0.8304290771484375,-0.6100311279296875,-0.130279541015625
1780625771778732300,9.981732177734376,1.0423736572265625,-0.56036376953125,-0.099609375
1780625771788762400,9.991762451171875,1.103179931640625,-0.4428253173828125,0.025665283203125
1780625771798791400,10.00179150390625,1.0576629638671875,-0.30517578125,0.1068267822265625
1780625771808821500,10.011821533203126,1.028778076171875,-0.2222137451171875,0.0889739990234375
1780625771818851300,10.021851318359374,1.0090484619140625,-0.2296905517578125,-0.000213623046875
1780625771828880400,10.03188037109375,0.98974609375,-0.2982025146484375,-0.0283355712890625
1780625771838910500,10.041910400390625,0.99420166015625,-0.3758392333984375,0.0337982177734375
1780625771848940300,10.051940185546876,1.00164794921875,-0.4453887939453125,0.086822509765625
1780625771858970400,10.061970458984375,0.9479217529296875,-0.5180206298828125,0.067626953125
1780625771868999200,10.071999267578125,0.8128814697265625,-0.5777435302734375,-0.005096435546875
1780625771879029200,10.082029296875,0.72491455078125,-0.5911102294921875,-0.073089599609375
1780625771889059300,10.092059326171874,0.6915283203125,-0.5784759521484375,-0.1071319580078125
1780625771899088400,10.10208837890625,0.695587158203125,-0.5401458740234375,-0.09124755859375
1780625771909118500,10.112118408203125,0.7352752685546875,-0.49267578125,-0.0417938232421875
1780625771919148500,10.1221484375,0.7753143310546875,-0.468048095703125,0.0011138916015625
1780625771929177300,10.13217724609375,0.80426025390625,-0.4565277099609375,0.0194244384765625
1780625771939207400,10.14220751953125,0.8002166748046875,-0.464385986328125,0.0058746337890625
1780625771949237200,10.1522373046875,0.77691650390625,-0.4911956787109375,-0.028961181640625
1780625771959266300,10.162266357421874,0.7580413818359375,-0.4770050048828125,-0.037689208984375
1780625771969296400,10.17229638671875,0.753173828125,-0.4593658447265625,-0.0269775390625
1780625771979326200,10.182326171875,0.7583465576171875,-0.44146728515625,-0.0230255126953125
1780625771989356300,10.192356201171876,0.757110595703125,-0.42071533203125,-0.03143310546875
1780625771999385300,10.20238525390625,0.7304840087890625,-0.4256744384765625,-0.0552825927734375
1780625772009415400,10.21241552734375,0.7067413330078125,-0.4550933837890625,-0.046142578125
1780625772019445500,10.222445556640626,0.715240478515625,-0.5024261474609375,0.005462646484375
1780625772029474300,10.232474365234374,0.7612457275390625,-0.549224853515625,0.049530029296875
1780625772039504400,10.24250439453125,0.805572509765625,-0.5913848876953125,0.0290679931640625
1780625772049534200,10.2525341796875,0.845489501953125,-0.627655029296875,-0.0391387939453125
1780625772059563500,10.2625634765625,0.884674072265625,-0.6138763427734375,-0.0981903076171875
1780625772069593300,10.27259326171875,0.939422607421875,-0.589630126953125,-0.115264892578125
1780625772079623400,10.28262353515625,0.978759765625,-0.5824432373046875,-0.066131591796875
1780625772089652200,10.29265234375,0.95843505859375,-0.5698394775390625,-0.0074920654296875
1780625772099682300,10.302682373046874,0.924346923828125,-0.57391357421875,-0.024200439453125
1780625772109712400,10.31271240234375,0.874359130859375,-0.592498779296875,-0.0814666748046875
1780625772119742500,10.322742431640625,0.868896484375,-0.5994415283203125,-0.1562042236328125
1780625772129771300,10.332771240234376,0.89300537109375,-0.6067352294921875,-0.19989013671875
1780625772139801300,10.34280126953125,0.902313232421875,-0.6183013916015625,-0.2391510009765625
1780625772149831200,10.3528310546875,0.9663848876953125,-0.6051483154296875,-0.269012451171875
1780625772159860500,10.362860595703125,1.050537109375,-0.5940399169921875,-0.1975555419921875
1780625772169890300,10.372890380859374,1.1101226806640625,-0.6004180908203125,-0.1186370849609375
1780625772179920400,10.38292041015625,1.1047515869140625,-0.657135009765625,-0.1435394287109375
1780625772189949200,10.39294921875,1.119049072265625,-0.7566986083984375,-0.1854705810546875
1780625772199979300,10.402979248046876,1.137176513671875,-0.8359527587890625,-0.1917724609375
1780625772210009300,10.41300927734375,1.1174163818359375,-0.8994598388671875,-0.2172393798828125
1780625772220038400,10.423038330078125,1.128662109375,-0.927001953125,-0.243682861328125
1780625772230068500,10.433068359375,1.1610107421875,-0.916778564453125,-0.1931304931640625
1780625772240098300,10.443098388671874,1.193450927734375,-0.82342529296875,-0.1602020263671875
1780625772250127400,10.45312744140625,1.1798095703125,-0.6843719482421875,-0.1619873046875
1780625772260157400,10.463157470703125,1.1135101318359375,-0.58123779296875,-0.164825439453125
1780625772270187300,10.473187255859376,1.030670166015625,-0.51409912109375,-0.1967010498046875
1780625772280217300,10.48321728515625,0.9277191162109375,-0.4575958251953125,-0.230010986328125
1780625772290246100,10.49324609375,0.8240509033203125,-0.4102630615234375,-0.263946533203125
1780625772300276200,10.503276123046875,0.7640228271484375,-0.396331787109375,-0.2592926025390625
1780625772310306300,10.513306396484374,0.72967529296875,-0.3858642578125,-0.2415924072265625
1780625772320335400,10.52333544921875,0.713165283203125,-0.387359619140625,-0.25592041015625
1780625772330365400,10.533365478515625,0.730072021484375,-0.36248779296875,-0.268096923828125
1780625772340395500,10.5433955078125,0.7320709228515625,-0.35589599609375,-0.2501678466796875
1780625772350424300,10.55342431640625,0.7044525146484375,-0.36297607421875,-0.2593536376953125
1780625772360454400,10.563454345703125,0.7105560302734375,-0.3747711181640625,-0.2457427978515625
1780625772370485200,10.5734853515625,0.6874847412109375,-0.4202880859375,-0.15240478515625
1780625772380514000,10.58351416015625,0.656097412109375,-0.449005126953125,-0.12548828125
1780625772390544100,10.593544189453125,0.63372802734375,-0.4578399658203125,-0.1769256591796875
1780625772400574200,10.60357421875,0.6553192138671875,-0.431304931640625,-0.183990478515625
1780625772410604300,10.613604248046874,0.723114013671875,-0.40625,-0.1661224365234375
1780625772420633300,10.62363330078125,0.7489776611328125,-0.40277099609375,-0.1946868896484375
1780625772430663200,10.6336630859375,0.81390380859375,-0.4337921142578125,-0.1959686279296875
1780625772440693200,10.643693359375,0.83740234375,-0.4984588623046875,-0.13043212890625
1780625772450722300,10.653722412109374,0.8334808349609375,-0.572509765625,-0.08953857421875
1780625772460752100,10.663752197265625,0.8336334228515625,-0.656036376953125,-0.108245849609375
1780625772470782200,10.6737822265625,0.8280029296875,-0.74798583984375,-0.1292724609375
1780625772480811000,10.68381103515625,0.8334197998046875,-0.8125762939453125,-0.1156158447265625
1780625772490841000,10.693841064453125,0.8294525146484375,-0.8533935546875,-0.1154327392578125
1780625772500871200,10.70387109375,0.825958251953125,-0.87335205078125,-0.154083251953125
1780625772510900200,10.713900146484375,0.855438232421875,-0.84619140625,-0.190673828125
1780625772520930300,10.723930419921874,0.912078857421875,-0.7704925537109375,-0.206024169921875
1780625772530960400,10.73396044921875,0.9647216796875,-0.6717987060546875,-0.2089996337890625
1780625772540990200,10.743990234375,0.9603729248046875,-0.5628204345703125,-0.2042999267578125
1780625772551019300,10.754019287109376,0.908721923828125,-0.468292236328125,-0.211273193359375
1780625772561049300,10.76404931640625,0.87896728515625,-0.4405059814453125,-0.2209014892578125
1780625772571079200,10.7740791015625,0.8821868896484375,-0.434600830078125,-0.2027740478515625
1780625772581108200,10.784108154296876,0.8448486328125,-0.4413604736328125,-0.171356201171875
1780625772591138000,10.794137939453124,0.797393798828125,-0.4306488037109375,-0.1728057861328125
1780625772601168100,10.804168212890625,0.7365570068359375,-0.4180450439453125,-0.182098388671875
1780625772611197200,10.814197265625,0.6951141357421875,-0.4148406982421875,-0.1821441650390625
1780625772621227300,10.824227294921876,0.707427978515625,-0.4372711181640625,-0.19866943359375
1780625772631257300,10.83425732421875,0.7293243408203125,-0.4775238037109375,-0.2045440673828125
1780625772641286100,10.8442861328125,0.7639312744140625,-0.5186309814453125,-0.2286834716796875
1780625772651316200,10.854316162109376,0.845672607421875,-0.5504913330078125,-0.26812744140625
1780625772661346300,10.86434619140625,0.9098358154296875,-0.5643157958984375,-0.2762603759765625
1780625772671376100,10.874376220703125,0.91644287109375,-0.5932769775390625,-0.267913818359375
1780625772681405200,10.8844052734375,0.917449951171875,-0.61334228515625,-0.2487335205078125
1780625772691435300,10.894435302734376,0.9297027587890625,-0.599456787109375,-0.2440032958984375
1780625772701465000,10.904465087890625,0.8886260986328125,-0.5921478271484375,-0.2193450927734375
1780625772711494100,10.914494140625,0.842620849609375,-0.5648193359375,-0.1833038330078125
1780625772721524200,10.924524169921876,0.8554534912109375,-0.5296478271484375,-0.1576080322265625
1780625772731554300,10.93455419921875,0.8784942626953125,-0.4848175048828125,-0.1768341064453125
1780625772741583000,10.9445830078125,0.911529541015625,-0.4324951171875,-0.2288665771484375
1780625772751613200,10.95461328125,0.9214935302734375,-0.4107513427734375,-0.2852630615234375
1780625772761643300,10.964643310546874,0.911590576171875,-0.396392822265625,-0.3399200439453125
1780625772771672300,10.97467236328125,0.869964599609375,-0.4044342041015625,-0.335968017578125
1780625772781702400,10.984702392578125,0.8130950927734375,-0.4174041748046875,-0.341339111328125
1780625772791732200,10.994732177734376,0.75341796875,-0.4648590087890625,-0.3426666259765625
1780625772801762000,11.004761962890624,0.711822509765625,-0.5444793701171875,-0.3385772705078125
1780625772811791000,11.014791015625,0.6688232421875,-0.6076507568359375,-0.3441009521484375
1780625772821821200,11.0248212890625,0.664154052734375,-0.625274658203125,-0.302093505859375
1780625772831851300,11.034851318359374,0.73297119140625,-0.5825653076171875,-0.26995849609375
1780625772841880300,11.04488037109375,0.7974853515625,-0.54425048828125,-0.296630859375
1780625772851910100,11.05491015625,0.78009033203125,-0.5386810302734375,-0.3457183837890625
1780625772861940200,11.064940185546876,0.773529052734375,-0.5279998779296875,-0.427459716796875
1780625772871969300,11.07496923828125,0.7570953369140625,-0.5068206787109375,-0.4907989501953125
1780625772881999400,11.084999267578125,0.750030517578125,-0.4927825927734375,-0.5250396728515625
1780625772892029200,11.095029296875,0.7384490966796875,-0.48785400390625,-0.5593719482421875
1780625772902058200,11.105058349609376,0.723541259765625,-0.4906768798828125,-0.57470703125
1780625772912088000,11.115088134765625,0.7159271240234375,-0.5072479248046875,-0.53460693359375
1780625772922118100,11.1251181640625,0.675201416015625,-0.5294189453125,-0.4875946044921875
1780625772932148200,11.135148193359376,0.6821746826171875,-0.53448486328125,-0.4686737060546875
1780625772942177300,11.14517724609375,0.6902313232421875,-0.5438690185546875,-0.4466552734375
1780625772952207400,11.155207275390625,0.6901397705078125,-0.5685882568359375,-0.4268341064453125
1780625772962237200,11.1652373046875,0.7166290283203125,-0.5741729736328125,-0.3863983154296875
1780625772972266200,11.175266357421876,0.701019287109375,-0.585693359375,-0.3155517578125
1780625772982296300,11.18529638671875,0.6721649169921875,-0.609039306640625,-0.3054656982421875
1780625772992326100,11.195326171875,0.6646728515625,-0.60809326171875,-0.3843536376953125
1780625773002355500,11.20535546875,0.6781768798828125,-0.56573486328125,-0.4821319580078125
1780625773012385000,11.215385009765624,0.6870574951171875,-0.5091705322265625,-0.5548858642578125
1780625773022415000,11.2254150390625,0.6619415283203125,-0.472137451171875,-0.596893310546875
1780625773032444200,11.235444091796875,0.60711669921875,-0.4718170166015625,-0.586883544921875
1780625773042474200,11.24547412109375,0.5892486572265625,-0.496124267578125,-0.5472259521484375
1780625773052504300,11.25550439453125,0.620391845703125,-0.5315093994140625,-0.4784088134765625
1780625773062534400,11.265534423828125,0.6409912109375,-0.5893707275390625,-0.4281768798828125
1780625773072563200,11.275563232421876,0.6683349609375,-0.6202545166015625,-0.451202392578125
1780625773082593300,11.28559326171875,0.6883392333984375,-0.6327972412109375,-0.4915313720703125
1780625773092623400,11.295623291015625,0.677703857421875,-0.6355743408203125,-0.5322113037109375
1780625773102652400,11.30565234375,0.6602783203125,-0.6220550537109375,-0.5688323974609375
1780625773112682000,11.315681884765626,0.6163482666015625,-0.6132049560546875,-0.598602294921875
1780625773122712000,11.325712158203125,0.5979461669921875,-0.6207122802734375,-0.6145172119140625
1780625773132741000,11.3357412109375,0.6031341552734375,-0.6236419677734375,-0.5853729248046875
1780625773142771200,11.345771240234376,0.6081695556640625,-0.606292724609375,-0.538726806640625
1780625773152801300,11.35580126953125,0.6365203857421875,-0.5821533203125,-0.4945068359375
1780625773162830000,11.365830078125,0.656890869140625,-0.57696533203125,-0.4643096923828125
1780625773172860200,11.375860107421875,0.6528472900390625,-0.5833587646484375,-0.456268310546875
1780625773182890200,11.38589013671875,0.660308837890625,-0.574127197265625,-0.459014892578125
1780625773192920300,11.39592041015625,0.66943359375,-0.5767059326171875,-0.4535369873046875
1780625773202949400,11.405949462890625,0.6843109130859375,-0.5788726806640625,-0.4353485107421875
1780625773212979200,11.415979248046876,0.7150115966796875,-0.569061279296875,-0.430572509765625
1780625773223009000,11.426009033203124,0.714599609375,-0.5587158203125,-0.4419097900390625
1780625773233038000,11.4360380859375,0.69659423828125,-0.5775604248046875,-0.462677001953125
1780625773243068200,11.446068115234375,0.664398193359375,-0.6025238037109375,-0.4893341064453125
1780625773253098200,11.45609814453125,0.6065521240234375,-0.6236114501953125,-0.5079345703125
1780625773263127300,11.466127197265624,0.5682373046875,-0.630889892578125,-0.5103302001953125
1780625773273157000,11.4761572265625,0.548675537109375,-0.62481689453125,-0.5123443603515625
1780625773283187200,11.486187255859376,0.5665130615234375,-0.6241912841796875,-0.502838134765625
1780625773293216300,11.49621630859375,0.6289825439453125,-0.615478515625,-0.490203857421875
1780625773303246300,11.506246337890625,0.716949462890625,-0.6038818359375,-0.46685791015625
1780625773313276400,11.5162763671875,0.7772216796875,-0.59222412109375,-0.4224853515625
1780625773323306200,11.52630615234375,0.8053741455078125,-0.573394775390625,-0.3873748779296875
1780625773333335000,11.5363349609375,0.800048828125,-0.5476226806640625,-0.3536376953125
1780625773343365000,11.546365234375,0.7735595703125,-0.5238800048828125,-0.3280487060546875
1780625773353395200,11.556395263671876,0.7517242431640625,-0.5109100341796875,-0.3262481689453125
1780625773363424300,11.56642431640625,0.7401275634765625,-0.5201416015625,-0.3317413330078125
1780625773373453600,11.57645361328125,0.7235870361328125,-0.543731689453125,-0.339202880859375
1780625773383483600,11.586483642578125,0.6927947998046875,-0.5564727783203125,-0.3673095703125
1780625773393512400,11.596512451171876,0.6681976318359375,-0.5604705810546875,-0.4415130615234375
1780625773403542500,11.60654248046875,0.6805572509765625,-0.5783843994140625,-0.503204345703125
1780625773413572600,11.616572509765625,0.6944427490234375,-0.5789947509765625,-0.5272979736328125
1780625773423602700,11.626602783203126,0.688232421875,-0.5684051513671875,-0.529937744140625
1780625773433631700,11.6366318359375,0.7207794189453125,-0.5517425537109375,-0.51885986328125
1780625773443661600,11.64666162109375,0.7679290771484375,-0.527435302734375,-0.4663238525390625
1780625773453691400,11.65669140625,0.8166046142578125,-0.513336181640625,-0.367095947265625
1780625773463720400,11.666720458984376,0.836700439453125,-0.509124755859375,-0.2661895751953125
1780625773473750500,11.67675048828125,0.8122100830078125,-0.504302978515625,-0.228607177734375
1780625773483780600,11.686780517578125,0.80023193359375,-0.508270263671875,-0.2454376220703125
1780625773493809700,11.6968095703125,0.8118896484375,-0.503570556640625,-0.2698516845703125
1780625773503839500,11.706839599609374,0.8115997314453125,-0.5077667236328125,-0.2760467529296875
1780625773513869600,11.71686962890625,0.8065032958984375,-0.5178070068359375,-0.2725982666015625
1780625773523898600,11.726898681640625,0.7992401123046875,-0.5463714599609375,-0.3166656494140625
1780625773533928700,11.7369287109375,0.7836456298828125,-0.5592041015625,-0.39404296875
1780625773543958800,11.746958740234374,0.778411865234375,-0.5289306640625,-0.4430694580078125
1780625773553988600,11.756988525390625,0.762481689453125,-0.5227203369140625,-0.4585113525390625
1780625773564017400,11.767017333984375,0.7323455810546875,-0.50933837890625,-0.4645233154296875
1780625773574047500,11.777047607421874,0.7288360595703125,-0.464752197265625,-0.452789306640625
1780625773584077600,11.78707763671875,0.7444305419921875,-0.4337615966796875,-0.4022369384765625
1780625773594106600,11.797106689453125,0.7428131103515625,-0.4024505615234375,-0.3505859375
1780625773604136700,11.80713671875,0.748382568359375,-0.40631103515625,-0.329010009765625
1780625773614166500,11.81716650390625,0.7399749755859375,-0.4317626953125,-0.3183441162109375
1780625773624195600,11.827195556640625,0.7293548583984375,-0.4653472900390625,-0.3311767578125
1780625773634225700,11.8372255859375,0.7304840087890625,-0.5277252197265625,-0.37432861328125
1780625773644255700,11.847255859375,0.7971954345703125,-0.5722808837890625,-0.4277496337890625
1780625773654284800,11.857284912109375,0.826568603515625,-0.5856170654296875,-0.4626007080078125
1780625773664314600,11.867314697265625,0.8372344970703125,-0.5630645751953125,-0.4692535400390625
1780625773674344400,11.877344482421876,0.8347015380859375,-0.526123046875,-0.44500732421875
1780625773684374500,11.88737451171875,0.8347625732421875,-0.4800567626953125,-0.4040374755859375
1780625773694403600,11.897403564453125,0.8244781494140625,-0.4478759765625,-0.369415283203125
1780625773704433700,11.90743359375,0.840576171875,-0.446868896484375,-0.3455352783203125
1780625773714463700,11.917463623046874,0.87005615234375,-0.474273681640625,-0.337554931640625
1780625773724492500,11.927492431640625,0.867462158203125,-0.505279541015625,-0.3354034423828125
1780625773734522600,11.937522705078125,0.8322906494140625,-0.517303466796875,-0.3599700927734375
1780625773744552700,11.947552734375,0.805999755859375,-0.514617919921875,-0.3863525390625
1780625773754581800,11.957581787109374,0.7975006103515625,-0.5194854736328125,-0.379180908203125
1780625773764611600,11.967611572265625,0.8094329833984375,-0.5111541748046875,-0.33074951171875
1780625773774641400,11.977641357421875,0.7950592041015625,-0.49908447265625,-0.2572784423828125
1780625773784671500,11.98767138671875,0.789337158203125,-0.4716339111328125,-0.236175537109375
1780625773794700500,11.997700439453125,0.754119873046875,-0.4508819580078125,-0.290374755859375
1780625773804730600,12.007730712890625,0.673126220703125,-0.4161376953125,-0.3511505126953125
1780625773814760700,12.0177607421875,0.6623687744140625,-0.420379638671875,-0.3814239501953125
1780625773824789500,12.02778955078125,0.74078369140625,-0.4640960693359375,-0.3916168212890625
1780625773834819600,12.037819580078125,0.7950592041015625,-0.5284881591796875,-0.3490142822265625
1780625773844849700,12.047849609375,0.82354736328125,-0.5824127197265625,-0.3062896728515625
1780625773854878700,12.057878662109376,0.8631744384765625,-0.59912109375,-0.2664642333984375
1780625773864908800,12.06790869140625,0.857391357421875,-0.577667236328125,-0.2245635986328125
1780625773874938400,12.0779384765625,0.8426361083984375,-0.505889892578125,-0.185150146484375
1780625773884968400,12.087968505859376,0.8285369873046875,-0.405426025390625,-0.1853179931640625
1780625773894997500,12.09799755859375,0.848541259765625,-0.3092193603515625,-0.2548980712890625
1780625773905027600,12.108027587890625,0.860137939453125,-0.2826690673828125,-0.4037017822265625
1780625773915057700,12.1180576171875,0.8171234130859375,-0.2878265380859375,-0.4600372314453125
1780625773925086500,12.12808642578125,0.7725677490234375,-0.337493896484375,-0.3524932861328125
1780625773935116500,12.138116455078125,0.802093505859375,-0.41864013671875,-0.2929534912109375
1780625773945146600,12.148146728515625,0.8704833984375,-0.4803924560546875,-0.3537750244140625
1780625773955175700,12.15817578125,0.895538330078125,-0.5419158935546875,-0.428009033203125
1780625773965205800,12.168205810546874,0.8920440673828125,-0.6280517578125,-0.4814910888671875
1780625773975235600,12.178235595703125,0.8954620361328125,-0.6516571044921875,-0.4455413818359375
1780625773985264600,12.1882646484375,0.885772705078125,-0.5733184814453125,-0.302978515625
1780625773995294500,12.19829443359375,0.868377685546875,-0.493682861328125,-0.25909423828125
1780625774005324500,12.208324462890625,0.82305908203125,-0.424530029296875,-0.2811279296875
1780625774015354600,12.218354736328125,0.8038787841796875,-0.40234375,-0.3140106201171875
1780625774025383700,12.2283837890625,0.7833404541015625,-0.42706298828125,-0.3428955078125
1780625774035413500,12.23841357421875,0.795562744140625,-0.4875946044921875,-0.37835693359375
1780625774045443600,12.248443603515625,0.8388519287109375,-0.53564453125,-0.371612548828125
1780625774055472600,12.25847265625,0.8527069091796875,-0.55975341796875,-0.343719482421875
1780625774065502700,12.268502685546874,0.865264892578125,-0.5505828857421875,-0.31195068359375
1780625774075532800,12.27853271484375,0.8854217529296875,-0.5017547607421875,-0.275970458984375
1780625774085561600,12.2885615234375,0.8839111328125,-0.44085693359375,-0.255340576171875
1780625774095591400,12.29859130859375,0.868743896484375,-0.4226226806640625,-0.2454833984375
1780625774105621500,12.30862158203125,0.8437652587890625,-0.431060791015625,-0.2236175537109375
1780625774115651600,12.318651611328125,0.8064117431640625,-0.469390869140625,-0.173095703125
1780625774125680600,12.3286806640625,0.8143310546875,-0.51922607421875,-0.1263885498046875
1780625774135710500,12.33871044921875,0.8130950927734375,-0.543182373046875,-0.12060546875
1780625774145740500,12.348740478515625,0.7957305908203125,-0.562591552734375,-0.1482086181640625
1780625774155769600,12.35876953125,0.838409423828125,-0.582275390625,-0.175018310546875
1780625774165799700,12.368799560546876,0.85504150390625,-0.57647705078125,-0.1599578857421875
1780625774175829800,12.378829833984375,0.867156982421875,-0.556671142578125,-0.1165924072265625
1780625774185858600,12.388858642578125,0.8966064453125,-0.5429229736328125,-0.156036376953125
1780625774195888600,12.398888671875,0.803985595703125,-0.51458740234375,-0.296783447265625
1780625774205918500,12.40891845703125,0.745086669921875,-0.499969482421875,-0.3666839599609375
1780625774215948500,12.418948486328125,0.7581329345703125,-0.4952392578125,-0.317962646484375
1780625774225977600,12.4289775390625,0.7594757080078125,-0.52935791015625,-0.303802490234375
1780625774236007700,12.439007568359376,0.7659759521484375,-0.5487823486328125,-0.3303985595703125
1780625774246037500,12.44903759765625,0.7394866943359375,-0.55419921875,-0.354339599609375
1780625774256066600,12.459066650390625,0.734100341796875,-0.555450439453125,-0.3565521240234375
1780625774266096600,12.4690966796875,0.7374420166015625,-0.561431884765625,-0.3667144775390625
1780625774276126700,12.479126708984374,0.7731781005859375,-0.5462188720703125,-0.398345947265625
1780625774286155800,12.48915576171875,0.778594970703125,-0.52764892578125,-0.4323577880859375
1780625774296185600,12.499185546875,0.7778472900390625,-0.5052032470703125,-0.453582763671875
1780625774306215400,12.50921533203125,0.79437255859375,-0.4620208740234375,-0.4284820556640625
1780625774316245500,12.51924560546875,0.7935638427734375,-0.39971923828125,-0.380950927734375
1780625774326274600,12.529274658203125,0.786041259765625,-0.3838653564453125,-0.3787689208984375
1780625774336304600,12.5393046875,0.8014678955078125,-0.4071502685546875,-0.5729827880859375
1780625774346334700,12.549334716796874,0.817901611328125,-0.39971923828125,-0.612274169921875
1780625774356363500,12.559363525390625,0.8320770263671875,-0.4299774169921875,-0.397674560546875
1780625774366393600,12.5693935546875,0.841766357421875,-0.4706573486328125,-0.207763671875
1780625774376424000,12.579423828125,0.9069976806640625,-0.448944091796875,-0.0987396240234375
1780625774386453000,12.589452880859374,0.9718017578125,-0.4211883544921875,-0.108612060546875
1780625774396483000,12.599483154296875,0.981719970703125,-0.4034423828125,-0.1981353759765625
1780625774406512600,12.6095126953125,0.94708251953125,-0.388916015625,-0.28887939453125
1780625774416541700,12.619541748046874,0.90533447265625,-0.3859100341796875,-0.3106689453125
1780625774426571800,12.62957177734375,0.838409423828125,-0.40301513671875,-0.317138671875
1780625774436601900,12.639601806640625,0.8174285888671875,-0.4301300048828125,-0.3190765380859375
1780625774446632000,12.6496318359375,0.829742431640625,-0.4505615234375,-0.318359375
1780625774456660700,12.65966064453125,0.8687286376953125,-0.4676361083984375,-0.3278961181640625
1780625774466690800,12.66969091796875,0.895599365234375,-0.4645538330078125,-0.306671142578125
1780625774476721000,12.679720947265626,0.9129180908203125,-0.4323883056640625,-0.2572784423828125
1780625774486750000,12.68975,0.9201202392578125,-0.412506103515625,-0.1852264404296875
1780625774496780000,12.699780029296875,0.86676025390625,-0.4233245849609375,-0.1374664306640625
1780625774506809900,12.709809814453125,0.840850830078125,-0.4493408203125,-0.0861053466796875
1780625774516839000,12.7198388671875,0.8513031005859375,-0.459503173828125,-0.0928955078125
1780625774526868700,12.72986865234375,0.8724822998046875,-0.4957427978515625,-0.159027099609375
1780625774536898800,12.73989892578125,0.8664093017578125,-0.56231689453125,-0.1910400390625
1780625774546929000,12.749928955078126,0.86248779296875,-0.5880279541015625,-0.2185211181640625
1780625774556958000,12.7599580078125,0.8776702880859375,-0.53143310546875,-0.3008880615234375
1780625774566987800,12.76998779296875,0.9011688232421875,-0.49114990234375,-0.40142822265625
1780625774577017900,12.780017822265625,0.89276123046875,-0.459869384765625,-0.4034423828125
1780625774587047000,12.790046875,0.8851470947265625,-0.4519195556640625,-0.2901153564453125
1780625774597077000,12.800076904296875,0.8748931884765625,-0.479217529296875,-0.1521759033203125
1780625774607106800,12.81010693359375,0.88543701171875,-0.5502777099609375,-0.0167083740234375
1780625774617135900,12.820135986328125,0.91351318359375,-0.5955352783203125,0.0780181884765625
1780625774627165700,12.830165771484374,0.891265869140625,-0.6056671142578125,0.1109161376953125
1780625774637195800,12.84019580078125,0.840789794921875,-0.576202392578125,0.095428466796875
1780625774647225900,12.850225830078125,0.7669219970703125,-0.527801513671875,0.055084228515625
1780625774657255000,12.8602548828125,0.7479400634765625,-0.501495361328125,0.0390472412109375
1780625774667285000,12.870284912109375,0.741424560546875,-0.4499664306640625,0.0247650146484375
1780625774677314800,12.880314697265625,0.7646636962890625,-0.4105682373046875,-0.0342864990234375
1780625774687343900,12.89034375,0.8065643310546875,-0.352325439453125,-0.1175994873046875
1780625774697374000,12.9003740234375,0.826568603515625,-0.29962158203125,-0.1693572998046875
1780625774707403800,12.91040380859375,0.844879150390625,-0.26605224609375,-0.16351318359375
1780625774717432800,12.920432861328125,0.902435302734375,-0.2378997802734375,-0.1307525634765625
1780625774727462700,12.930462646484376,0.9863433837890625,-0.2279205322265625,-0.1206817626953125
1780625774737492700,12.94049267578125,0.9976348876953125,-0.256072998046875,-0.154876708984375
1780625774747522800,12.950522705078125,0.9657135009765625,-0.299591064453125,-0.1866607666015625
1780625774757551900,12.9605517578125,0.886932373046875,-0.284820556640625,-0.2094573974609375
1780625774767582000,12.97058203125,0.8168182373046875,-0.216796875,-0.224609375
1780625774777611800,12.98061181640625,0.757232666015625,-0.1442718505859375,-0.2024993896484375
1780625774787640800,12.990640869140625,0.73553466796875,-0.081298828125,-0.2135009765625
1780625774797671000,13.0006708984375,0.7589263916015625,-0.0941314697265625,-0.2264251708984375
1780625774807701000,13.010700927734375,0.7968292236328125,-0.126617431640625,-0.218414306640625
1780625774817730000,13.02072998046875,0.8363800048828125,-0.1774444580078125,-0.2115020751953125
1780625774827759600,13.030759521484375,0.865692138671875,-0.173797607421875,-0.212158203125
1780625774837789700,13.040789794921874,0.8814239501953125,-0.10809326171875,-0.2117767333984375
1780625774847819800,13.05081982421875,0.857421875,-0.0564422607421875,-0.210113525390625
1780625774857848800,13.060848876953125,0.775390625,-0.058868408203125,-0.2118377685546875
