time,seconds_elapsed,z,y,x
1780625761873206800,0.076206787109375,-0.5599649560570716,-0.3649585167855024,-0.2113008637294173
1780625761883235800,0.08623583984375,-0.47146366578340526,-0.10709785419404506,-0.31113851766213774
1780625761893266000,0.096265869140625,-0.345949280411005,0.3099576373144984,-0.38016909152939915
1780625761903296000,0.1062958984375,-0.42271103305220603,0.6280097337573767,-0.5441419485032558
1780625761913325000,0.116324951171875,-0.07154489477574826,0.6603671120047568,-0.6315564664535224
1780625761923355000,0.12635498046875,0.3285539089739323,0.5768041549161076,-0.608213000266999
1780625761933384000,0.136384033203125,0.588939121606946,0.597085310922563,-0.5716743908122182
1780625761943414000,0.1464140625,0.8601777366876602,0.5459978055030107,-0.24499153640717267
1780625761953444000,0.156444091796875,0.7411433609843253,0.7503717925786971,-0.2970809123456478
1780625761963473200,0.16647314453125,0.013876549661159514,1.355009126316011,-0.6017296295970678
1780625761973503000,0.1765029296875,-0.20874270367920397,1.0941548348665238,-0.4412386233896017
1780625761983532000,0.186531982421875,1.4070938260793686,-0.7129401798069477,-0.614691110239923
1780625761993561900,0.196561767578125,1.348071143746376,-0.6134329268723726,-0.5543102912962437
1780625762003592000,0.206592041015625,1.2860463569879532,-0.5108592721045017,-0.49474458812773225
1780625762013620700,0.216620849609375,1.5818378140449523,-0.8669497150406241,-0.7283288875967264
1780625762023650800,0.22665087890625,2.086201294389367,-0.826801829047501,-1.111532378385961
1780625762033680000,0.236679931640625,2.7229858707547185,-0.9788327576845883,-1.4580617967724798
1780625762043710000,0.2467099609375,2.801954778051376,-1.2491016509503126,-1.46674340813905
1780625762053740000,0.256739990234375,2.4201614463210106,-0.8743462550327181,-1.6617589074999093
1780625762063768800,0.266768798828125,1.7568080119818448,-0.3458648169979453,-1.2478446366265414
1780625762073799000,0.276798828125,0.436103598588705,0.6854863556921482,-0.6699424573406577
1780625762083828000,0.286827880859375,-0.8057283536195754,1.1391229806229473,-0.7531169996336102
1780625762093858000,0.296858154296875,-0.7361889534473419,-0.11084668533354997,-0.5950844924941658
1780625762103887000,0.30688720703125,-0.04214753537774086,-1.5823729438349603,0.21999475005567073
1780625762113917000,0.3169169921875,-0.010677461358904837,-2.587595111273229,0.867654940700531
1780625762123947000,0.326947021484375,0.5867231991231441,-3.757419519630074,0.6202627728924155
1780625762133976000,0.33697607421875,2.3022294789016247,-3.2016584450036287,0.29968174249380825
1780625762144006000,0.347005859375,3.5918998716056345,-2.493682609605789,0.1595896734535694
1780625762154035000,0.357034912109375,3.8711248092651367,-1.6859426239028572,0.20997662938833236
1780625762164064800,0.367064697265625,4.079803215536475,-0.3016790537908673,0.7066539391443133
1780625762174094800,0.3770947265625,4.308977297347784,1.0639219014272092,1.3485659415259956
1780625762184124000,0.3871240234375,4.131184443205595,1.8931518344044684,1.3169669804304838
1780625762194154000,0.397154052734375,2.940323384299874,1.5792951438248157,0.7112240235388279
1780625762204182800,0.407182861328125,1.4632541047185659,0.6608458354324102,0.03296469649076462
1780625762214212900,0.417212890625,0.5934434472888708,-0.2734071912914514,-0.862334037938714
1780625762224243000,0.427242919921875,-0.14582827460467815,-1.163588436576724,-1.5246660202756523
1780625762234272000,0.43727197265625,-0.766799195766449,-1.4388663901761174,-1.555146206474304
1780625762244302000,0.447302001953125,-0.5315151066422462,-0.5098495105400681,-1.6157374532982707
1780625762254331000,0.457330810546875,1.757296087759733,2.766786434036493,-1.75747875085026
1780625762264361000,0.46736083984375,6.333330915111303,6.163809045708179,-0.98930183698982
1780625762274391000,0.47739111328125,8.073267871791124,6.216821673971414,-0.5950237022176385
1780625762284420000,0.487420166015625,4.977829329103231,4.46345386557132,-2.3278417668029663
1780625762294450000,0.497449951171875,1.2838824569523333,1.9567443088710308,-3.3175887172117826
1780625762304479000,0.50747900390625,-0.2702659706562757,-0.7207686814755201,-2.779454192429781
1780625762314508800,0.5175087890625,0.581917260146141,-0.7969733847558498,-1.8173942903697489
1780625762324539000,0.527538818359375,3.182890031647682,1.776925209598243,0.344688466694951
1780625762334568000,0.53756787109375,6.131242993146181,5.4478761138260365,3.376324107035994
1780625762344598000,0.547597900390625,8.944895807775854,9.439026647919416,6.3221092638731
1780625762354626800,0.557626708984375,10.409722276377677,12.264916428309679,7.580886505663394
1780625762364657700,0.56765771484375,10.582354971277713,12.124335406708717,6.974705157354474
1780625762374686700,0.577686767578125,10.347821408259868,8.94621039750576,6.467962672919034
1780625762384716800,0.587716796875,9.792916658201813,6.593095950019359,6.172025085389614
1780625762394746600,0.59774658203125,6.579540302875637,7.896341279089451,4.644495200115442
1780625762404775700,0.607775634765625,2.0372633682191372,11.92149228246212,2.9318934096068143
1780625762414805800,0.6178056640625,-3.0935435227215287,16.312903532868624,0.3934422684699297
1780625762424834800,0.627834716796875,-8.69391146069467,17.78999385523796,-3.6405467058748004
1780625762434864600,0.63786474609375,-10.65291377762556,13.523118500560521,-8.045634599456191
1780625762444894500,0.64789453125,-7.4840996176034205,6.495764287558198,-10.51314991762638
1780625762454923500,0.657923583984375,-4.822110359603166,1.9813290072903036,-11.726290028357505
1780625762464953600,0.66795361328125,-4.827410804098844,0.9732530578561127,-12.199883691906928
1780625762474982700,0.677982666015625,-6.801026752793788,1.5262274243734777,-11.932593522191047
1780625762485012500,0.688012451171875,-9.688514034441113,0.4758182077310979,-11.657678848946095
1780625762495042600,0.69804248046875,-11.774571536445617,-2.3640900150090456,-11.533175686442851
1780625762505071600,0.708071533203125,-12.80675419152379,-5.5854871797055,-11.708777752542495
1780625762515101700,0.718101806640625,-12.375521998363732,-6.379833138567209,-11.77643265414238
1780625762525130800,0.728130859375,-9.612405192750693,-6.530164569810032,-12.293180399763584
1780625762535160600,0.73816064453125,-5.524575322625041,-11.765233214735984,-17.8104006834507
1780625762545190700,0.748190673828125,0.21218349178284404,-15.020213500082493,-18.544045797634123
1780625762555219700,0.7582197265625,5.364967528992891,-13.601728511416912,-15.190322229462861
1780625762565249800,0.768249755859375,5.919267298895121,-7.912839993947744,-10.164030190485715
1780625762575278600,0.778278564453125,5.394425094145536,-4.860985741442442,-4.698429619398713
1780625762585308700,0.78830859375,2.7963828231379386,-2.035649064890295,-1.7820184410840272
1780625762595338500,0.79833837890625,0.009792202956974506,-1.0118336945325135,-1.5174018744915723
1780625762605367600,0.808367431640625,-1.3805758215099573,-1.2775601220630108,-1.3785966303914785
1780625762615397600,0.818397705078125,-3.058277563551068,-0.8676302446506917,-0.4558177683621645
1780625762625426400,0.828426513671875,-2.9385189652264114,0.9778761876121163,1.1525070705920457
1780625762635456500,0.83845654296875,-0.8984370324552059,2.5569354768544432,3.773043205219507
1780625762645486600,0.848486572265625,5.398547142511606,3.048661593943834,7.071930436831712
1780625762655515600,0.858515625,1.3355024618133902,7.243111179357767,6.928586380258202
1780625762665545700,0.868545654296875,-8.899728632315993,8.562473530492186,8.050302591267227
1780625762675574500,0.878574462890625,-7.45228526019156,6.981282782179116,8.048277222919463
1780625762685604600,0.8886044921875,-8.267939964541792,8.49571703903675,7.791151888865232
1780625762695634700,0.898634765625,-8.166997710368037,7.725626985031366,6.837257173082232
1780625762705663700,0.908663818359375,-7.344922033059596,5.550415866324305,4.010137558636069
1780625762715693800,0.91869384765625,-4.20858186340183,3.3723926128059625,1.4645096577376127
1780625762725722600,0.92872265625,3.6199420170024035,-1.0131652353972196,-1.5664385848611593
1780625762735752700,0.938752685546875,5.2006853138089175,-1.0402964034289122,-4.881808749240636
1780625762745782500,0.948782470703125,4.661129231791198,2.42004132707268,-5.574139271739125
1780625762755811600,0.9588115234375,3.022268092536926,5.780677743372321,-4.059768143245577
1780625762765841700,0.968841552734375,-0.6228454828619957,5.911774312791228,-2.308908810535073
1780625762775870500,0.978870361328125,-5.247746340191364,7.004087903705239,-0.2650596341848373
1780625762785900500,0.988900634765625,0.6305313611894846,4.537922831100225,0.36283261067271233
1780625762795930600,0.9989306640625,4.028794328311085,3.7318385036498305,-0.15156301886439322
1780625762805959700,1.008959716796875,6.847241976001858,0.9229281343068927,-0.17494973967075347
1780625762815989800,1.01898974609375,9.362651848769188,-0.8926695549696684,-0.013270984983444213
1780625762826018600,1.0290185546875,10.880117436146735,-0.6434294942725449,0.5917132624953985
1780625762836048600,1.039048583984375,12.097034727329016,-0.11815043247565626,2.6020161430746316
1780625762846078700,1.04907861328125,12.150255445384978,1.022857923502475,3.991577235072851
1780625762856107800,1.059107666015625,9.031575143319367,1.7806803243480622,3.03285436848104
1780625762866137900,1.069137939453125,3.7580513877928254,1.904580552522093,1.0667863509476183
1780625762876166700,1.079166748046875,-0.9417804996192455,1.8065061088696122,-0.20511457630991933
1780625762886196700,1.08919677734375,-3.7396404095724223,2.1438282845802603,-0.584819411328435
1780625762896226600,1.0992265625,-4.045802161735296,1.6592264664128422,-0.12042787588834762
1780625762906255600,1.109255615234375,-2.744003524342179,0.4201934972733259,0.8037304578006267
1780625762916285700,1.11928564453125,-0.6228600959092379,-0.539092848420143,1.498992942097783
1780625762926314500,1.129314453125,0.6864572465509176,-1.2447282581716774,1.4389906010776756
1780625762936344600,1.139344482421875,0.6502391012221574,-1.862896689133346,0.2860474771559238
1780625762946374700,1.149374755859375,0.7662450690150261,-3.1941654588997364,-0.6302268252849579
1780625762956403700,1.15940380859375,1.5910913800805806,-3.8104245491087436,-0.262799872559309
1780625762966433500,1.16943359375,0.6042950961709023,-2.998500555719435,-0.35825580427646636
1780625762976462600,1.179462646484375,-1.687584253630042,-2.6287387303054333,-1.962021372491121
1780625762986492700,1.18949267578125,-5.104451383456587,-3.257977421335876,-4.279184216630458
1780625762996522800,1.199522705078125,-8.971744651734829,-3.699607966652512,-5.903083641335368
1780625763006551800,1.2095517578125,-10.778971768355369,-3.7461695190802216,-6.276414265146851
1780625763016581600,1.21958154296875,-10.276028091681003,-2.9893396364033222,-6.281687821635604
1780625763026610700,1.229610595703125,-8.772739498215913,-1.593438819989562,-5.207932216197252
1780625763036640800,1.239640869140625,-5.602991272214055,-0.1578776088386774,-2.0617185950398444
1780625763046670600,1.249670654296875,-1.8298709101051092,0.7745856118589639,0.8289934938728809
1780625763056699600,1.25969970703125,-0.8578501705229282,1.9350059397935866,2.573086985710263
1780625763066729500,1.2697294921875,-1.8097458214432,3.3358716851383448,2.819340797138214
1780625763076758500,1.279758544921875,-4.165573035019636,4.4880052462428806,1.80540048571527
1780625763086788600,1.28978857421875,-7.5082538156509395,4.837726446408033,0.44222880347073074
1780625763096818700,1.299818603515625,-9.63896703646183,4.300153939422965,-1.3472276786595583
1780625763106847500,1.309847412109375,-9.714618197512626,3.364225088441372,-2.794075422978401
1780625763116877600,1.319877685546875,-8.526898943763971,1.3642010252922772,-3.31060981810987
1780625763126906600,1.32990673828125,-5.867185229480266,-1.0402098941892386,-4.330494717150926
1780625763136936700,1.339936767578125,-3.652407531799376,-3.2092583986133336,-6.723340871044993
1780625763146966800,1.349966796875,-2.832821333219111,-5.3466784235864875,-10.066823031187058
1780625763156995600,1.35999560546875,-1.0366302821367979,-8.204016066163778,-14.019801947796344
1780625763167025700,1.370025634765625,1.115967438223958,-10.606355440068244,-17.788237951481342
1780625763177054700,1.3800546875,2.2490865022569895,-12.803296160024404,-21.044382604432105
1780625763187084800,1.390084716796875,3.970946534976363,-14.597876561039685,-21.647632575464247
1780625763197114600,1.400114501953125,7.811772652089595,-14.652202025467156,-20.575991185700893
1780625763207143400,1.410143310546875,12.429785503470898,-13.440587516868113,-17.793495141357184
1780625763217173500,1.420173583984375,16.360607533329723,-10.666219833922385,-14.008380390071869
1780625763227202600,1.43020263671875,17.965038287454842,-7.6838260711342095,-9.731979666680097
1780625763237232600,1.440232666015625,17.567973736834524,-4.064513876467943,-6.701476245239377
1780625763247262700,1.4502626953125,13.9095868383646,-1.0818044718593358,-4.400318779483437
1780625763257291500,1.46029150390625,12.62129708636403,0.09713292501866817,-2.7474083643496034
1780625763267321600,1.470321533203125,12.038674892818927,1.9578461326330898,-0.6238800866067409
1780625763277350700,1.4803505859375,10.049745639657974,5.884531501078605,3.9156408273398875
1780625763287380700,1.490380615234375,7.305279173979163,6.731468647921085,6.118192372915148
1780625763297410800,1.500410888671875,4.89802806263566,6.738797383373975,5.310633296737074
1780625763307439600,1.510439697265625,1.8278899654209613,7.6708409173548215,5.198580450484156
1780625763317469700,1.5204697265625,-3.079324443233013,9.846735342150925,6.855852567958832
1780625763327498800,1.530498779296875,-6.942219768813252,8.868322855705022,4.480458484125137
1780625763337528800,1.54052880859375,-8.30576846767664,8.203412839573621,3.92939930357933
1780625763347558700,1.55055859375,-4.8752755480796095,7.3078294429838655,2.328176405584812
1780625763357587500,1.56058740234375,-2.1387880984559655,8.52609697973132,1.8154355575174093
1780625763367617500,1.570617431640625,-0.14560206463336944,8.686457053035497,5.054759424048662
1780625763377647600,1.580647705078125,2.8549332117840645,8.161948025763035,5.615259217634796
1780625763387676400,1.590676513671875,3.584410684894025,6.714094319272041,5.003596223044395
1780625763397706500,1.60070654296875,1.7932529518038034,9.695799515274166,6.506478573796152
1780625763407735600,1.610735595703125,4.928512048226595,5.486855540561676,6.733970986130833
1780625763417765600,1.620765625,6.236619430375099,1.9466493235751985,5.107415493959188
1780625763427795700,1.630795654296875,5.276707646259665,-2.4458631660714745,3.377938556495309
1780625763437824500,1.640824462890625,4.028740552297235,-2.452538406051695,0.08739245224893093
1780625763447854600,1.6508544921875,0.8819926781326531,-0.14481032973378896,-0.49098845046460626
1780625763457883600,1.660883544921875,-2.2614397878736257,0.727719815787673,0.2928904749184847
1780625763467913700,1.670913818359375,-6.229409937387705,1.728021185697615,0.5252513700723648
1780625763477943600,1.680943603515625,-3.6496979805797336,-1.1192968749076126,0.17166180404126644
1780625763487972600,1.69097265625,-2.0555410754486916,-0.10003215359151363,-1.5999071392208337
1780625763498002400,1.70100244140625,-3.117957833009958,1.3864347766712306,-2.0174474916368723
1780625763508032500,1.711032470703125,-3.2566759833484884,1.5790084358379244,0.3697212011426687
1780625763518061600,1.7210615234375,-1.3423397604875267,3.140100691235065,2.887137153035402
1780625763528091600,1.731091552734375,1.998771432739496,5.1607443485647435,5.455842562660575
1780625763538120400,1.741120361328125,0.9965016853660345,7.248412208375334,7.122307455894351
1780625763548150500,1.751150634765625,3.4624159980803726,5.961078734186291,5.581842101201414
1780625763558180600,1.7611806640625,6.112299223223328,4.74114355648756,2.702031930053234
1780625763568209700,1.771209716796875,1.74496048393026,4.450976953575015,-1.0019155271083116
1780625763578239700,1.78123974609375,0.15326105495393275,-2.017043002489209,-3.8908991847932337
1780625763588268500,1.7912685546875,3.1060487840294835,-3.986744992610812,-4.086184441006183
1780625763598298600,1.801298583984375,3.9960722084045406,-3.6609102794677018,-3.5221342614620923
1780625763608328700,1.81132861328125,1.2106360189557075,-2.8582401443749665,-4.4454409467577936
1780625763618357800,1.821357666015625,-0.7530203343261033,-1.0190157149910926,-6.147670980855822
1780625763628387600,1.8313876953125,-0.7285499099362641,-0.24586042819619178,-6.550956597948074
1780625763638416600,1.841416748046875,0.09530165447089821,-0.25764614305794237,-5.979191898503899
1780625763648446500,1.851446533203125,1.1079799466013909,0.10671733044385909,-5.146325947111845
1780625763658476500,1.8614765625,2.4884710124373433,0.6596089871138334,-4.784059153628349
1780625763668505600,1.871505615234375,2.028224321717024,-0.14254793775975702,-3.81929905269891
1780625763678535700,1.88153564453125,-1.6217583210229873,-3.3425621226876974,3.551709900036454
1780625763688565500,1.8915654296875,-0.16402270573126151,-2.0253245086222886,8.173812651079892
1780625763698594600,1.901594482421875,6.549719749629497,5.4614738465458155,2.8303561121493575
1780625763708624600,1.911624755859375,0.06750935564935207,8.605633457782863,0.9224293179392814
1780625763718653700,1.92165380859375,-4.4211832883358,6.421960800200701,1.6164654753118752
1780625763728683800,1.931683837890625,-3.0443659425765275,2.5249931091487405,1.4366232874244451
1780625763738713600,1.941713623046875,-0.6414338634759187,-0.651293578711152,0.49691988634020084
1780625763748742700,1.95174267578125,1.0275053109169006,-2.2551965095698834,-0.2654021640121937
1780625763758772700,1.961772705078125,2.678340673342347,-3.259164877554774,0.004127601324021816
1780625763768802600,1.971802490234375,2.6261194877177476,-4.715679444885254,1.2295289354741572
1780625763778831400,1.981831298828125,1.5768395673662423,-5.910262154662608,2.189722166879475
1780625763788861400,1.991861328125,0.9864988353330642,-5.088522577440738,2.0598621535182
1780625763798890500,2.001890380859375,-1.8831161780804395,-3.4911370656520124,1.1333631019219756
1780625763808920600,2.011920654296875,-4.693340187305211,-4.47493241418004,0.5402732903763652
1780625763818950700,2.02195068359375,-0.3104530196160078,-7.002540089741349,-0.8555605982810258
1780625763828979500,2.0319794921875,1.0851999595165251,-7.020953698310255,-2.141913244739175
1780625763839009500,2.042009521484375,0.06823065566122531,-6.602451807385683,-1.9268162035971879
1780625763849038600,2.05203857421875,-0.5551373897701501,-5.927796057787537,-1.029872916831076
1780625763859068700,2.062068603515625,-0.7605681924223899,-5.100713950493931,0.22205124419406055
1780625763869098800,2.0720986328125,-0.012542688975203782,-4.685434528747201,1.3743619154311715
1780625763879127600,2.08212744140625,0.4342401062717661,-4.305409960255027,1.8688228643119333
1780625763889157600,2.09215771484375,1.2490098810136316,-3.6928140687286852,1.529709567400813
1780625763899187500,2.1021875,2.14317172036767,-2.9058167190641164,1.1547411132544279
1780625763909216800,2.112216796875,1.0047183095693588,0.705416214042902,0.1847616702415049
1780625763919246600,2.12224658203125,0.1393640470266342,5.678132730177045,-1.2105185300558805
1780625763929275400,2.132275390625,0.6635914078135043,7.628243300122022,-1.1428498921915888
1780625763939305500,2.142305419921875,1.0395499689757823,7.795236527830362,-0.7120459343809634
1780625763949335600,2.15233544921875,0.9351672189593314,5.906822827863693,-0.5206019368313253
1780625763959364600,2.162364501953125,0.2757189753651619,3.7876357941955328,-0.4590097693365067
1780625763969394700,2.172394775390625,0.5947141978770494,2.2264912240892647,-0.6400315954625606
1780625763979423500,2.182423583984375,1.46981127127707,-0.4454267227292061,-0.0909210282338783
1780625763989453600,2.19245361328125,1.0300520727902651,-3.1577357166469096,0.9497375961035489
1780625763999483600,2.202483642578125,0.10673530449196696,-4.0951206116557115,1.484277895785868
1780625764009512700,2.2125126953125,-0.19053886540345846,-4.502949132874607,2.3428069884836673
1780625764019542800,2.222542724609375,-0.6096440559834242,-3.772364575305581,2.828510776543617
1780625764029572600,2.232572509765625,-1.2684266752757132,-2.040642489263415,3.0770775410890576
1780625764039601700,2.2426015625,-2.7039965081244706,-0.23818156413137911,3.241703162883222
1780625764049631500,2.252631591796875,-4.409722567644715,1.2342992186158894,3.343038508027792
1780625764059660800,2.262660888671875,-5.654741333195567,3.2939655573010445,3.1455119026288387
1780625764069690600,2.272690673828125,-6.22123013806343,4.952386844810843,2.1593376961402595
1780625764079720400,2.282720458984375,-5.008346632441878,3.236067495083809,0.3077659724891186
1780625764089749500,2.29274951171875,-3.315436215353012,1.2516034046381712,-1.2028725453473628
1780625764099779600,2.302779541015625,-3.797363115222752,2.4101795660108327,-0.9975327819794416
1780625764109809700,2.3128095703125,-4.9781262662231915,1.843770840641856,-0.31924174461886284
1780625764119838700,2.322838623046875,-3.6242429290667175,1.4413701896905897,-0.5052708044476807
1780625764129868500,2.33286865234375,-2.934019900241494,1.3021744849681853,-1.6770362638697027
1780625764139897600,2.342897705078125,-1.0962538529723882,0.8575199156552553,-2.667874224385619
1780625764149927700,2.352927734375,2.4638895288884637,0.8539625154346228,-3.7770132778942584
1780625764159957800,2.362957763671875,4.818179449895024,1.7405302463978527,-4.692776415942609
1780625764169986600,2.372986572265625,3.968482775211334,2.0304589489012956,-4.989865803855658
1780625764180016600,2.3830166015625,2.100956964972615,1.1530617818653583,-4.920896312525868
1780625764190046500,2.39304638671875,1.0143424624830484,-0.2962368627369404,-4.270982789996266
1780625764200075500,2.403075439453125,-0.3482141566030681,-0.6629910307675599,-2.870787491258979
1780625764210105600,2.413105712890625,-1.6646867776453493,0.07047171258628368,-1.6240988927997648
1780625764220134400,2.423134521484375,-2.74939164712131,1.2025824763596058,-0.7184782324507832
1780625764230164500,2.43316455078125,-2.9578479350745677,2.1276520796746015,0.17974208851382134
1780625764240194600,2.443194580078125,-2.4240315657526255,2.622036602318287,0.9720056881435215
1780625764250223600,2.4532236328125,-1.5914118442066012,2.5694308012902733,1.249282706605643
1780625764260253700,2.463253662109375,-0.6057938102960586,2.752552741500735,0.9387927159801125
1780625764270283800,2.47328369140625,0.05803878586217761,2.5080665242671967,0.46285336608737704
1780625764280312600,2.4833125,-0.12276121420674026,1.370311032605171,0.279933670450747
1780625764290342700,2.4933427734375,-0.7955617643922567,0.3700099549561739,0.4031108450472355
1780625764300371700,2.503371826171875,-1.483791281312704,-0.3451835567355156,0.6309381884247064
1780625764310401800,2.51340185546875,-1.226323417431116,-1.4646967047423123,0.7085609418094158
1780625764320431600,2.523431640625,-1.0197896219730376,-2.1449048277705907,0.6960521733701228
1780625764330460700,2.533460693359375,-1.153826921018958,-2.465793316683173,0.8371998889431357
1780625764340490500,2.543490478515625,-1.4736387206107378,-2.8623879117041824,1.1454673812136054
1780625764350519600,2.55351953125,-2.5454911227762698,-3.7561604594796894,1.7961156477585434
1780625764360549400,2.56354931640625,-2.9163761070013043,-3.293312646350264,2.484026015727222
1780625764370579500,2.573579345703125,-0.8368493950050324,-1.8767688548803327,2.2062530304417014
1780625764380608500,2.5836083984375,1.5498948618173598,-0.32820553392767904,1.2581491730198264
1780625764390638600,2.593638671875,3.6651661833465097,0.10171616115570067,-0.08520750942528248
1780625764400668400,2.60366845703125,3.1285926242709157,0.4027566247820854,-0.8322118713974952
1780625764410697500,2.613697509765625,0.7693230151556432,0.798515353500843,-0.784442112223804
1780625764420727600,2.6237275390625,-1.086583084437996,0.38619302799403665,-0.5899529748246073
1780625764430757600,2.633757568359375,-0.7294669517159461,-0.6095481943935156,-0.5829416347578168
1780625764440786400,2.643786376953125,0.7718995876453817,-1.4095768750667572,-0.622048487265408
1780625764450816500,2.65381640625,1.8734942171238362,-1.5735954708784818,-0.5906280976071954
1780625764460845600,2.663845458984375,1.9201764733217654,-1.3764280541807412,-0.43838264943659305
1780625764470875400,2.67387548828125,1.5233129982315003,-1.5026865359187125,-0.4484589300319552
1780625764480905500,2.683905517578125,0.9865350026249885,-1.4911445666849612,-0.48096331553459165
1780625764490934300,2.693934326171875,0.22771920682787894,-1.2983926283419132,-0.47039632881283755
1780625764500964400,2.70396435546875,-0.5953377366028726,-0.8237702062666415,-0.25597791758477684
1780625764510994400,2.713994384765625,-1.085348574206978,-0.06447510251998902,0.081554832136631
1780625764521023500,2.7240234375,-1.1538789434671402,0.3877151229947805,0.284741655254364
1780625764531053600,2.734053466796875,-1.0840778236187993,0.5935702885389328,0.449171754476428
1780625764541082400,2.744082275390625,-1.2555329991720616,-0.11273147616684435,1.442429343354702
1780625764551112400,2.754112548828125,-1.0441244372844696,-2.6185008294075724,4.513252500224113
1780625764561142500,2.764142578125,-0.41427155987843867,-2.600467744588852,5.698149682289362
1780625764571171600,2.774171630859375,1.2747570473410188,-1.8920330595076083,4.471596547755599
1780625764581201700,2.78420166015625,2.1513665711306036,-2.729581615757942,3.0273119319230317
1780625764591231500,2.7942314453125,1.8199847452543674,-3.2219156356126066,1.600747681698203
1780625764601260500,2.804260498046875,0.8279366782963276,-2.8961048878669735,0.6334621539443731
1780625764611290400,2.814290283203125,0.7126772910870611,-2.2455822935283183,0.11956219896972178
1780625764621319400,2.8243193359375,1.0840051967740059,-1.3688409600526095,-0.3509714924871921
1780625764631349500,2.834349609375,1.2358546313643455,-0.6557517271637916,-0.9891127441585064
1780625764641379300,2.84437939453125,1.217567279523611,-0.514665094128251,-1.6455857713341713
1780625764651408400,2.854408447265625,0.9907027898289262,-0.24454525394439697,-1.6934867556720972
1780625764661438500,2.8644384765625,0.20758476581573485,0.36221126390397546,-0.757623371142149
1780625764671468500,2.874468505859375,-0.4491349295973778,0.6810831522971391,0.46947453779280185
1780625764681497600,2.88449755859375,0.014883096355199812,0.2475491119354963,0.9880553440600633
1780625764691527400,2.89452734375,1.395899062848091,-0.2839092960834503,0.8219383146643638
1780625764701556500,2.904556396484375,2.206775885272026,-0.7010854913622141,0.5873410387605429
1780625764711586600,2.914586669921875,2.283677923166752,-0.9565110357612371,0.35597616890668865
1780625764721616400,2.924616455078125,2.086277866756916,-0.9650000471651553,0.08354571369290352
1780625764731645700,2.934645751953125,1.5997522409200668,-0.7895937958985567,-0.07771452332139014
1780625764741675300,2.94467529296875,1.073388014234975,-0.4461082752525806,-0.07540332376956939
1780625764751705300,2.954705322265625,0.7602221554636954,-0.2898708348363638,-0.06466682569980621
1780625764761734400,2.964734375,0.2702946852941066,0.1923293290168047,0.025561726757884023
1780625764771764500,2.974764404296875,0.12273209771011025,0.6536643994957209,0.2774316245019436
1780625764781793300,2.984793212890625,0.15124270086884498,0.911570070272684,0.7006687272548675
1780625764791823400,2.9948232421875,0.13546994393123313,0.8496768009394406,1.0428221225142478
1780625764801853400,3.004853515625,0.010175347922509535,0.7435954303115606,1.28083008364439
1780625764811882500,3.014882568359375,-0.2736217108249664,0.5990244622915983,1.3328344116479158
1780625764821912600,3.02491259765625,-0.5307388615727424,0.38074703754782674,1.331032330662012
1780625764831942700,3.034942626953125,-0.7480231836259364,0.14599252525568007,1.280226272532344
1780625764841971500,3.044971435546875,-0.954735842782259,-0.04997837513387203,1.1904846268087625
1780625764852001500,3.05500146484375,-0.8281400919139384,-0.26728549354076386,1.0661690958321093
1780625764862031400,3.06503125,-0.43538697475194926,-0.7087298686355352,0.8284136481583118
1780625764872060400,3.075060302734375,-0.09642273092269897,-1.1923626956403255,0.5657856250345706
1780625764882090500,3.085090576171875,-0.1159410858631134,-1.158607141032815,0.5457452920466661
1780625764892119300,3.095119384765625,-0.04286766634583473,-0.6296984174966812,0.732154583364725
1780625764902149400,3.1051494140625,0.0186567696750164,-0.07817278848290443,0.9599433482974767
1780625764912179500,3.115179443359375,-0.046316345494985575,0.21708733817636966,0.9903957697063683
1780625764922208500,3.12520849609375,-0.2832639839172363,0.27175533243119715,0.8392652970403432
1780625764932238600,3.135238525390625,-0.04687397937774658,0.42912732983529567,0.5942009876579046
1780625764942268400,3.145268310546875,0.4257037851274013,0.39538755731880665,0.1037456211566925
1780625764952297500,3.15529736328125,0.6112175889104604,0.3184697373330593,-0.39740824949145315
1780625764962327600,3.16532763671875,0.44138884551525115,0.25550387033224103,-0.79721537681818
1780625764972356600,3.175356689453125,0.21013795742988586,0.07827683337926865,-1.0864438220977783
1780625764982386700,3.18538671875,-0.2689654094517231,-0.07270107907354831,-1.3242208970814942
1780625764992416300,3.195416259765625,-0.8052975609868764,-0.15356500633656978,-1.3390262520253657
1780625765002445600,3.205445556640625,-1.0716092410594225,-0.023932664251327514,-1.0527093102782965
1780625765012475400,3.215475341796875,-1.0747370176911353,0.13429974937438965,-0.5283779776602984
1780625765022505500,3.22550537109375,-0.7764414688587188,-0.051642508953809736,-0.06806932761967181
1780625765032534300,3.2355341796875,-0.4961784203231334,-0.32805764988958835,0.20395546940267084
1780625765042564400,3.245564453125,-0.5348007041841745,-0.2123755072236061,0.4903302788168192
1780625765052593400,3.255593505859375,-0.590673398053646,-0.0823696556508541,0.6544061577737331
1780625765062623500,3.26562353515625,-0.521440871873498,-0.12520225068330765,0.5819271970182657
1780625765072653600,3.275653564453125,-0.4569342051714658,-0.23939152444303036,0.37465924206674095
1780625765082682400,3.285682373046875,-0.4535036462008953,-0.35526772837638854,0.11526245594918727
1780625765092712400,3.29571240234375,-0.4724386482954025,-0.25972937907278537,-0.03641863633692265
1780625765102742500,3.305742431640625,-0.4353606712669134,-0.032571313259005544,-0.040835868257284164
1780625765112771600,3.315771484375,-0.41121231843829154,0.24802666631937026,0.041781040152907366
1780625765122801700,3.3258017578125,-0.41564124079644676,0.42315877681970593,0.10561199955046176
1780625765132831500,3.33583154296875,-0.4532780207514763,0.473597755202651,-0.013311901515722273
1780625765142860300,3.3458603515625,-0.5981892170438543,0.46844519474506374,-0.20043197145164013
1780625765152890400,3.355890380859375,-0.7998153301835059,0.46378363267481326,-0.33913550874292847
1780625765162919400,3.36591943359375,-0.44437282976210113,-1.1554343562155962,-0.9319722223103046
1780625765172949500,3.375949462890625,-0.6399801575362682,-0.07887479927241801,-0.6202876150727271
1780625765182979600,3.3859794921875,-1.1765022786855697,1.2707213620841502,-0.3303811244010925
1780625765193008400,3.39600830078125,-0.5748188263177871,0.4001917427301407,-0.5620756646007299
1780625765203038500,3.40603857421875,-0.9122726655840874,0.4399789787173271,-0.6834902134388685
1780625765213068500,3.416068603515625,-0.9752613289386033,0.24939094040989873,-0.8947481148093939
1780625765223097600,3.42609765625,-1.174471138184145,-0.39575288349986076,-1.0889923375368118
1780625765233127400,3.43612744140625,-1.4582657949119806,-0.7983937729477882,-1.0274830990850925
1780625765243156500,3.446156494140625,-1.3683973079383371,-0.6250438696891069,-0.6851087545514106
1780625765253186600,3.4561865234375,-1.1323761367112397,-0.12059972532391547,-0.20785949110388754
1780625765263216400,3.46621630859375,-0.4710129628738388,-0.4201882365763187,0.04028349507153034
1780625765273245700,3.47624560546875,0.4429880243401974,-0.6286158829569817,0.3218324917644262
1780625765283275300,3.486275146484375,0.5964461362361908,-0.2050865192592144,0.8793459630161523
1780625765293305300,3.496305419921875,0.4629314362922683,0.16272387982606887,1.2168477330774068
1780625765303334400,3.50633447265625,0.492727439619042,0.30831074689030646,1.0835738196194171
1780625765313364500,3.516364501953125,0.3654004518667236,0.381615637075901,0.5532809482485056
1780625765323394600,3.52639453125,-0.13241579879131168,0.5479810882747173,-0.06746727007329463
1780625765333423400,3.53642333984375,-0.9233785814881325,0.611352613466978,-0.5998030454486608
1780625765343453400,3.546453369140625,-1.0531523778706788,0.46783904554545874,-0.83651102989614
1780625765353482500,3.556482421875,-0.9834107331246137,0.5113438407510519,-0.8047305747538804
1780625765363512300,3.56651220703125,-0.8930214371472597,0.46812487674951553,-0.6805079827576875
1780625765373542400,3.57654248046875,-0.8390718202948569,0.355632470035553,-0.5347235472947359
1780625765383571200,3.5865712890625,-1.108128415161371,0.3925158012747764,-0.5575701698750257
1780625765393601300,3.596601318359375,-1.1928905189067125,0.26197803478240966,-0.8302198207974434
1780625765403631000,3.606631103515625,-1.3138187455326318,-0.07620294971466064,-1.1665636529952288
1780625765413660200,3.61666015625,-1.31055828243196,-0.5677724149376153,-1.4964076017796992
1780625765423690200,3.626690185546875,-1.1956529693573712,-1.0127923104315995,-1.704883763477206
1780625765433720000,3.636719970703125,-1.3385703249514103,-0.9604898762643337,-1.592362715190649
1780625765443749000,3.6467490234375,-1.432874748545885,-0.2863613654106855,-1.1940624852955342
1780625765453779200,3.656779296875,-1.4670967516213655,0.4137503124833107,-0.7074088491648435
1780625765463808300,3.666808349609375,-1.6901538118571042,1.053715272450447,-0.28205928430259225
1780625765473838300,3.67683837890625,-1.4459925887942313,1.0296686264306307,-0.17694062122702597
1780625765483868200,3.6868681640625,-1.5016361500829458,0.6060469082742929,-0.3126438076585531
1780625765493897200,3.696897216796875,-1.4954595072746275,0.12449965537190437,-0.46928690626621244
1780625765503927300,3.70692724609375,-0.758395524558425,-0.26995617405474187,-0.6290922682970762
1780625765513957400,3.716957275390625,1.229678573077917,-0.8810995286852121,-1.0907365508556366
1780625765523986400,3.726986328125,-0.06600478717214428,0.12107435709834098,-1.04421679174304
1780625765534016300,3.737016357421875,-2.3040841668576,0.09402794474065303,-0.6469248621076346
1780625765544046000,3.747046142578125,-1.5422025537490844,0.10079904631078243,-0.9852706817775965
1780625765554075100,3.7570751953125,-0.9031126230508089,0.46360769158601756,-1.1203437536120413
1780625765564105200,3.767105224609375,-1.2088041273534298,0.7118371870011091,-0.714271136149764
1780625765574134000,3.777134033203125,-0.3659650634795427,-0.3847182792663574,-0.9020289194673299
1780625765584164000,3.7871640625,-1.342380823150277,-0.12514496753811835,0.37415479967594145
1780625765594194200,3.797194091796875,-2.381170329147577,0.4323047908276319,1.6843553547114132
1780625765604223200,3.80722314453125,-0.5898971529841422,-0.39543081193864343,1.5979349623650312
1780625765614253300,3.81725341796875,0.7766893061399459,-0.21053484779298304,1.1846885077506304
1780625765624283400,3.827283447265625,0.530405684095621,0.17064473595321178,0.3370049264550209
1780625765634312200,3.837312255859375,-0.5238858904054388,0.05119418066442012,-0.3773731772005558
1780625765644342300,3.84734228515625,-0.15818327725436537,-0.7684510546267033,-0.9567653027832508
1780625765654371300,3.857371337890625,0.10467618000507355,-1.304495036870241,-0.8625508955597877
1780625765664401400,3.8674013671875,0.2130500089516863,-1.7528583975732326,-0.33384207850992675
1780625765674431200,3.87743115234375,0.34312837777137756,-2.0030881268948315,0.38303076457083224
1780625765684460300,3.887460205078125,0.6138952106218785,-1.946969349309802,1.0994891816318035
1780625765694490000,3.897489990234375,1.0490203926324844,-1.591262060472369,1.6445669496804476
1780625765704520200,3.907520263671875,1.5645792207300662,-1.2139011582314967,1.718200341168046
1780625765714549200,3.91754931640625,1.9050877713918686,-0.21037878044843672,1.7126251713842153
1780625765724579300,3.927579345703125,2.1634265728890893,1.2381389429092406,1.576553151640296
1780625765734609200,3.937609130859375,2.1408523375093935,1.9449241072177885,0.902687091115117
1780625765744638200,3.94763818359375,2.015217540627718,1.6442390329003334,0.2767623469382524
1780625765754668300,3.957668212890625,1.8532992780961095,0.9597089550197124,-0.12172142283022402
1780625765764697300,3.967697265625,1.7752946857869625,0.470065489423275,-0.39282442883253094
1780625765774727200,3.97772705078125,1.806251987978071,0.13796762423217296,-0.4173609041959047
1780625765784757200,3.98775732421875,1.7950750526644288,-0.2249631861180067,-0.1705997277677059
1780625765794786300,3.997786376953125,1.6358289319515227,-0.5998094751894474,0.18098492818176745
1780625765804816100,4.007816162109375,1.4925414278708398,-0.780898448267579,0.48721127001345155
1780625765814846200,4.01784619140625,1.2081062082171439,-0.8163432711362838,0.688250559708476
1780625765824875000,4.027875,1.0157200344465673,-0.7168237432420254,0.7801865006059407
1780625765834905000,4.037905029296875,1.1405027445435523,-0.6043149699151515,0.8315291498303413
1780625765844935200,4.04793505859375,1.2190261000297964,-0.5878694465488195,0.8390893559515475
1780625765854964200,4.057964111328125,1.2439128501355647,-0.4838286418378353,1.143401388594508
1780625765864994300,4.067994384765625,1.0257098058022558,-0.22899930976629257,1.3312714001148938
1780625765875023000,4.078023193359375,0.5903016421318054,-0.2175824282169342,1.1040578047215939
1780625765885053200,4.08805322265625,0.2574083887793124,-0.1684001718968153,0.7309376087903976
1780625765895083300,4.098083251953125,0.1911912648975849,-0.1625087757706642,0.39201252792775626
1780625765905112300,4.1081123046875,0.3127801473893225,-0.12439561047554015,0.1793804155945778
1780625765915142400,4.118142333984375,0.44377486386895176,-0.12957973511517046,0.08800152405798435
1780625765925172200,4.128172119140625,0.38993557552322744,-0.1727045910924673,0.12500117515325546
1780625765935201300,4.138201171875,0.2477987027823925,-0.21510054827332495,0.31209727969169615
1780625765945231000,4.148231201171875,0.22274726363420486,-0.2574929983228445,0.5222609560847282
1780625765955261200,4.15826123046875,0.3179261319756508,-0.15965747799277305,0.7019879931598901
1780625765965290200,4.168290283203125,0.30530148207172747,-0.1546001946032047,0.7703875756472349
1780625765975320300,4.1783203125,0.13407514683827756,-0.3996007910996675,0.7323048054903746
1780625765985349000,4.18834912109375,-0.09132343502230941,-0.8312930029869079,0.44588966406583785
1780625765995379200,4.198379150390625,-0.25118666472025214,-1.1980980244219301,0.059141340276598925
1780625766005409300,4.2084091796875,-0.39311537460312246,-1.4739192911177872,-0.14884733016490936
1780625766015438300,4.218438232421875,-0.5602958685118705,-1.508806480103731,-0.029519524472951888
1780625766025468200,4.22846826171875,-0.7125450430095195,-1.3372604113966227,0.2339946338355541
1780625766035498200,4.238498291015625,-0.8995313304979353,-1.071731406134367,0.46866322140991684
1780625766045527300,4.24852734375,-1.0185388181943447,-0.9175947373896837,0.4775280803889036
1780625766055557400,4.258557373046875,-0.8190671431422233,-0.9041653469741344,0.15777414846420287
1780625766065587200,4.268587158203125,-0.5727706616163254,-0.8714543329834937,-0.34267128165364263
1780625766075616000,4.278615966796875,-0.6475755080360919,-0.8659013750314712,-0.7709551464021206
1780625766085646000,4.28864599609375,-0.8839270071960985,-0.9090274000525475,-0.9499702358156442
1780625766095676200,4.29867626953125,-0.9393898050904274,-1.0809960780858994,-0.8778022407054901
1780625766105705200,4.308705322265625,-0.9598238135710359,-1.3433704187095163,-0.5876894138067961
1780625766115735300,4.3187353515625,-0.7997368581198155,-1.6889467741549014,-0.20712416256666183
1780625766125764000,4.32876416015625,-0.6001426526665687,-2.032969470417499,0.12109949153959751
1780625766135794200,4.338794189453125,-0.3056817135609686,-2.273034948599338,0.3241109580904245
1780625766145824300,4.34882421875,0.09774024326205254,-2.2374784820497036,0.37330782745778557
1780625766155853300,4.358853271484375,0.39719767548069357,-1.9516069459825753,0.2853670936763286
1780625766165883400,4.36888330078125,0.4800291034244001,-1.403060625040531,0.04366378515958786
1780625766175913200,4.378913330078125,0.3539924477435648,-0.7359744339138269,-0.2715437355071306
1780625766185942300,4.3889423828125,0.11200842258930206,0.06088613811731338,-0.5721440541505813
1780625766195972000,4.39897216796875,-0.10278013712540268,0.7920213153064251,-0.7875579061567783
1780625766206002200,4.409002197265625,-0.37107042379453775,1.099564584955573,-0.8910469222038984
1780625766216031200,4.41903125,-0.41917584466338154,1.1229285094082355,-0.7261854458272456
1780625766226061000,4.42906103515625,-0.2423778467774391,0.9303963512957095,-0.41227497923374173
1780625766236090000,4.439090087890625,-0.16998028069511054,0.653074616909027,-0.0714075321316719
1780625766246120200,4.4491201171875,-0.18870251682177186,0.40155601682066916,0.2559796711504459
1780625766256150300,4.459150390625,-0.2566331666231155,0.06629179655313491,0.5050274972110986
1780625766266179300,4.469179443359375,-0.35483050600290295,-0.25972178028821946,0.7072223866820335
1780625766276209200,4.479209228515625,-0.41806437629014254,-0.6829729115664959,0.7732499793410301
1780625766286239200,4.4892392578125,-0.33277737188786266,-1.1121434960216283,0.6685521720260381
1780625766296268300,4.499268310546875,-0.27675489428415895,-1.304002869439125,0.33157705618739125
1780625766306298400,4.50929833984375,-0.25862054104804993,-1.3949468766897917,-0.12954057214856146
1780625766316328200,4.519328125,-0.14605097744464873,-1.295644206416607,-0.5142471609771251
1780625766326357200,4.529357177734375,0.11317001371458173,-0.9829927999734878,-0.7060989356100559
1780625766336387000,4.539386962890625,0.37117373803853987,-0.5593669901639223,-0.7328975106865168
1780625766346417200,4.549417236328125,0.6473351964741945,-0.23444003951549527,-0.5115297187119722
1780625766356446200,4.5594462890625,0.9907678178891539,0.08975625877082348,-0.032848961156606675
1780625766366476800,4.569476806640625,1.1726993792712688,0.33915362892150874,0.46747313484251496
1780625766376505900,4.579505859375,1.2089242466017602,0.6161059454739093,0.8206792545139789
1780625766386536000,4.589535888671875,0.7443567700728774,1.0421662889540195,0.9961930578082799
1780625766396566000,4.59956591796875,0.047912967036664485,1.2704226713985205,1.043894135659933
1780625766406594800,4.6095947265625,-0.297151347233355,1.1189900009155274,0.8590718212723731
1780625766416625000,4.619625,-0.31019203059226275,0.5808727195292711,0.47288639206290245
1780625766426654700,4.62965478515625,-0.4949778123617172,-0.2501426355600357,-0.03377893548309803
1780625766436683800,4.639683837890625,-0.5287397967100144,-0.8744324720114469,-0.3743360014617443
1780625766446713900,4.6497138671875,-0.5668062002539634,-1.1693471462339162,-0.47395548259913917
1780625766456744000,4.659743896484375,-0.6759741387203335,-1.2749667445689439,-0.29532150145769115
1780625766466772700,4.669772705078125,-0.4414952284991741,-1.276195409581065,0.3257897049576044
1780625766476802800,4.679802734375,-0.13263649233728647,-1.2066706224560737,0.7863233959257602
1780625766486831900,4.689831787109375,0.07238251464366913,-1.0692997950732708,0.9327367769420146
1780625766496862000,4.699862060546875,0.2497849081635475,-0.7276186935007571,0.695714319717884
1780625766506891800,4.709891845703125,0.4260492375642061,-0.16189736587405204,0.1273953768134117
1780625766516920800,4.7199208984375,0.5538070179492235,0.32695465708374977,-0.6105687696129083
1780625766526951000,4.729950927734375,0.8216960303410887,0.6651952628135681,-1.1667501154780386
1780625766536981000,4.73998095703125,1.0128162758290766,0.8947270720213651,-1.31783207282722
1780625766547010000,4.750010009765625,1.1808908690333366,0.8279398931667208,-1.2246312265604733
1780625766557039600,4.76003955078125,1.077201361978054,0.517663983683288,-0.8657295255959033
1780625766567069700,4.770069580078125,0.7670482020914554,0.24585896689146755,-0.26413024438023563
1780625766577098800,4.7800986328125,0.5163207523807883,-0.11150485698133707,0.32022739465534683
1780625766587128800,4.79012890625,0.452752535572648,-0.472756628203392,0.6919903307586908
1780625766597159000,4.800158935546875,0.5495125356256961,-0.45760728212743995,0.8402963936537504
1780625766607187700,4.810187744140625,0.5723071357578039,-0.09904752646833657,0.7819283758372068
1780625766617217800,4.8202177734375,0.49308454596102236,0.4041553856641054,0.5742822352230549
1780625766627246800,4.830246826171875,0.445003528881073,0.7341945647597312,0.3547615324199199
1780625766637277000,4.84027685546875,0.4105021243423223,0.8202034536957741,0.18375439289510248
1780625766647307000,4.85030712890625,0.5498828302428126,0.8600415430873632,0.0828320124655962
1780625766657335800,4.860335693359375,0.624756577180326,0.9194742675259708,0.031032267123460768
1780625766667366000,4.870365966796875,0.38084173009395594,0.8630012696757912,0.022525135540962218
1780625766677395700,4.880395751953125,-0.15164631323367356,0.6799065097332,0.06692717184722423
1780625766687425000,4.890425048828125,-0.5130222953572869,0.5039557763263582,0.043539281997084615
1780625766697454800,4.900454833984375,-0.40840778241157527,0.4126397208929062,-0.10861936467289925
1780625766707485000,4.91048486328125,-0.263474995341897,0.3483031500607729,-0.19692308654785154
1780625766717513700,4.920513671875,-0.10459434694051742,0.22790829965919254,-0.16713526652753352
1780625766727543800,4.930543701171875,-0.002229366487264633,0.11910744093954563,-0.07915186264812946
1780625766737572900,4.94057275390625,-0.13022680084705351,0.03695873456299305,0.051534956926107406
1780625766747603000,4.95060302734375,-0.17970365619957446,-0.06710135937035083,0.20091829366385935
1780625766757632800,4.9606328125,-0.16255027682483195,-0.0720759329125285,0.28152093964219094
1780625766767661800,4.970661865234375,-0.12632219462394714,0.047263270956277845,0.2657452783614397
1780625766777692000,4.98069189453125,-0.05712970819324255,0.2021782305970788,0.16547522436082363
1780625766787722000,4.990721923828125,-0.10206512072384356,0.2540992642313242,-0.10137772298157215
1780625766797751000,5.0007509765625,-0.17104571796953677,0.22275661598443983,-0.3990080859035253
1780625766807780900,5.01078076171875,-0.2139437794536352,0.09182663530409335,-0.618680179876089
1780625766817810700,5.020810791015625,-0.17047727043181657,0.04362228410542011,-0.6569365530341863
1780625766827839700,5.03083984375,-0.04419628460109234,-0.009956161347031593,-0.5623281780570745
1780625766837869800,5.040869873046875,-0.026651275560259816,-0.15620762979984282,-0.5157072966575622
1780625766847900000,5.05089990234375,-0.07250672554522752,-0.24954291610121726,-0.5324374821841716
1780625766857928700,5.0609287109375,-0.11247983949333429,-0.26596038241684433,-0.5402759207248687
1780625766867958800,5.070958740234375,-0.13383446995019913,-0.2408703648239374,-0.5595686502158641
1780625766877987800,5.08098779296875,-0.21478052253872154,-0.16628011100292206,-0.5943436109989881
1780625766888018000,5.091017822265625,-0.2535948218405247,-0.052750177934765816,-0.6250000305473804
1780625766898048000,5.101048095703125,-0.20107085387706755,0.11500585083961486,-0.6132464643895625
1780625766908076800,5.111076904296875,-0.1933212626636028,0.26233576217889787,-0.5075087926328182
1780625766918107000,5.12110693359375,-0.3294149097174406,0.23559271668195722,-0.4184802636146545
1780625766928136700,5.13113671875,-0.42636400260180235,0.042805122503638264,-0.3401104912549257
1780625766938166000,5.141166015625,-0.48919952122122046,-0.17619652486145496,-0.19250234749615192
1780625766948195800,5.15119580078125,-0.54142976693511,-0.2773912924915552,0.09067162005007266
1780625766958226000,5.161225830078125,-0.5305506455242633,-0.1744464663237333,0.3116244014829397
1780625766968254700,5.171254638671875,-0.5533224493026733,-0.09938742594718933,0.37852351627945896
1780625766978284800,5.181284912109375,-0.5447691404908895,-0.24779928730428216,0.22467267873883245
1780625766988315000,5.19131494140625,-0.51994508035779,-0.4156996929854154,0.04866729253530502
1780625766998344000,5.201343994140625,-0.4127522413566708,-0.6249047534793615,0.0006371288597583771
1780625767008373800,5.211373779296875,-0.28251696494221684,-0.8318249179065227,0.0408475586950779
1780625767018402800,5.22140283203125,-0.33255379226505755,-0.9280126710295676,0.12888240050077437
1780625767028433000,5.231432861328125,-0.29796032552868124,-0.996694577589631,0.22377543763816354
1780625767038463000,5.241462890625,-0.0076554831892251965,-1.0205874943524598,0.20759411816596984
1780625767048492000,5.251491943359375,0.2509451841145754,-0.6624912645518779,0.06983283016085624
1780625767058521900,5.26152197265625,0.48136780468225476,-0.22965455880463123,-0.10839841539859771
1780625767068551700,5.2715517578125,0.6049219958975911,-0.08351941020786761,-0.5644827257424593
1780625767078580700,5.281580810546875,0.5058440742909908,-0.05437281070053577,-1.082977022770047
1780625767088610800,5.29161083984375,0.0017336919248104093,0.0793891785353422,-1.2932833225041627
1780625767098641000,5.301640869140625,-0.4320499392837286,0.4817155952066183,-0.943664998191595
1780625767108669700,5.311669677734375,-0.5224947648406029,0.7511170579880475,-0.25504092899560926
1780625767118699800,5.32169970703125,-0.4006593602418899,0.6669780545771121,0.33144670780599117
1780625767128729900,5.331729736328125,-0.6673506872817874,0.29045184959471226,0.6068284140408039
1780625767138759000,5.341759033203125,-0.9312041605472564,-0.10619535239636897,0.4663292255043983
1780625767148789000,5.3517890625,-0.9166618404537439,-0.39411856029629705,0.5354407556533813
1780625767158817800,5.36181787109375,-0.5108621947139501,-0.8576175308108329,0.7653045732945203
1780625767168848000,5.371847900390625,-0.29795827970206734,-1.1286685143649577,0.43870530551970005
1780625767178878000,5.3818779296875,-0.04535977542251348,-0.7728758853316307,0.1561655442237854
1780625767188907000,5.391906982421875,0.3339151437461376,-0.28962825825214383,-0.056979778328537935
1780625767198936800,5.401936767578125,0.619129677209258,-0.04605915586352348,-0.20448563075661658
1780625767208966700,5.411966552734375,0.7760667903274298,-0.048505964493751524,-0.3466284948468208
1780625767218995700,5.42199560546875,0.598223082780838,-0.11466098292469977,-0.46189738053679463
1780625767229025800,5.43202587890625,0.21391922953426837,0.25947686561644073,-0.3234229758262634
1780625767239056000,5.442055908203125,0.38870238046646116,0.6367454133987427,0.2855652465969324
1780625767249085000,5.4520849609375,0.37288054195642467,0.6293880363732576,0.3043833443135023
1780625767259114800,5.46211474609375,-0.05846095679700374,0.6538672285914421,0.4665010749399662
1780625767269144800,5.472144775390625,-0.38951194328367705,0.7287152565658092,0.700555914530158
1780625767279174000,5.482173828125,-0.4570277286738157,0.8354168049186468,1.1136498089313507
1780625767289204000,5.492203857421875,-0.4443716607183218,0.700554160964489,1.6127596065312624
1780625767299233800,5.50223388671875,-0.06806465144455433,0.6142237849891186,2.111315277379751
1780625767309262800,5.512262939453125,0.2069026287704706,0.41212124997675414,2.6035586963415143
1780625767319292700,5.522292724609375,0.4635819726228714,0.1713105063855648,2.9598885009914633
1780625767329322000,5.532322021484375,0.3211123607963323,0.0045984337061643595,2.9314994418531652
1780625767339351800,5.542351806640625,-0.022713351589441298,-0.02027589530944824,2.4784745190799233
1780625767349382000,5.5523818359375,0.32980361677408215,0.19812310998737812,1.6921932087302207
1780625767359410700,5.56241064453125,0.8749977046787738,0.03136778268814087,0.8638555484175682
1780625767369440000,5.57243994140625,1.2355752299010754,-0.510828876966238,0.1250736558675766
1780625767379470000,5.582469970703125,1.4554238494843244,-0.9014292000085115,-0.3610609248250723
1780625767389499100,5.5924990234375,1.441767080053687,-1.033631100320816,-0.4873842884927988
1780625767399529000,5.602529052734375,1.3040601525843143,-1.2266612710833549,-0.10182371318340301
1780625767409559000,5.61255908203125,1.304993049520254,-1.2117606390714644,0.4369587541133165
1780625767419588000,5.622588134765625,1.299008129891753,-1.348850311425328,1.3327899879842995
1780625767429618200,5.6326181640625,1.1040028596639633,-2.033575619617104,1.7065671865195036
1780625767439648300,5.642648193359375,-0.002243395012617111,-3.5381641897648572,4.130492953810095
1780625767449677000,5.652677001953125,-0.4853536594480276,-9.938794032645225,16.513468190789222
1780625767459707100,5.66270703125,-1.8260750249534845,-12.622511722850799,32.24696907668113
1780625767469736200,5.672736083984375,-6.4964896792232985,-4.080541466683149,7.208892683413624
1780625767479766000,5.68276611328125,-5.979398819252848,2.4406939467400313,-10.93300146959424
1780625767489796000,5.692796142578125,-18.239750716125965,8.217833579114078,-17.38853253096342
1780625767499825000,5.702824951171875,12.385431982481478,16.10921518996954,-21.03023717470169
1780625767509855000,5.71285498046875,25.052708729732036,13.68838037443161,-14.4069459929049
1780625767519885000,5.722885009765625,5.836838022011518,2.0883260314583776,-0.47415714265108105
1780625767529914000,5.7329140625,1.3137719837814568,0.29012451733648775,2.5204934596419335
1780625767539944200,5.742944091796875,-1.1401783348947763,-3.494439614328742,1.1317834315150976
1780625767549974300,5.752974365234375,-3.759624336197972,-5.871984738716483,1.9417162510871886
1780625767560003000,5.763003173828125,-5.270042927673459,-4.803891981345415,2.1335510745853186
1780625767570033200,5.773033203125,-3.9213621275961397,-1.7699971639007328,1.1652806274473666
1780625767580063200,5.783063232421875,-1.3891039958804845,-0.057929041877388954,0.15740356158614158
1780625767590092300,5.79309228515625,1.4602964239567517,-0.7023918977856636,-0.8617232125639915
1780625767600122000,5.8031220703125,2.575011231771111,-1.716762417319417,-1.809492138943076
1780625767610152000,5.81315185546875,2.37894505431354,-1.7415309478729963,-1.999610806173086
1780625767620181000,5.823180908203125,0.6066068802446126,-1.1846195341676473,-1.339285195222497
1780625767630211000,5.833211181640625,-0.025037995144724844,-0.7852963909655809,-1.7121897025763988
1780625767640240000,5.843240234375,-0.7330050627142191,-0.554594953456521,-1.4092045346230269
1780625767650270000,5.85327001953125,-0.4556161083102226,0.2182926223129034,-0.9156050248771905
1780625767660300000,5.863300048828125,0.21512626723647116,0.6809066266864537,-0.23708996950238942
1780625767670329000,5.8733291015625,1.0121440756559372,0.9616244332522154,0.08693447934836149
1780625767680359200,5.883359130859375,1.2076467740118504,1.3609335479289293,0.2826765394181013
1780625767690389200,5.89338916015625,1.0640209778875112,0.48083647428452964,0.6492755168870091
1780625767700418000,5.90341796875,0.5547112733125686,-0.23932255086004733,1.0203513475090265
1780625767710448000,5.9134482421875,-0.5386293225616217,-0.7908347358703612,1.0192626754894851
1780625767720478000,5.92347802734375,-1.0153051700353621,-1.533586701095104,0.5844757124572992
1780625767730507000,5.933507080078125,-0.6124181968718767,-1.642311279708147,-0.04722761512100696
1780625767740537000,5.943537109375,0.1611667135119438,-1.4447282679468392,-0.5095484817668795
1780625767750567200,5.953567138671875,0.3586111935853958,-1.064297456741333,-0.981724095211923
1780625767760596000,5.963595947265625,0.6321376273423432,-0.3537093930184841,-1.4383406127363443
1780625767770626000,5.9736259765625,1.4578443546295166,0.03295768222808838,-1.515935016809404
1780625767780656000,5.98365625,0.6415028370589018,0.23552140501141547,-1.111198324126005
1780625767790685200,5.993685302734375,0.2520031687349081,-0.5096551570117474,-0.5372869680419564
1780625767800715300,6.00371533203125,0.14564765734076499,0.20716566362082958,0.20476415543705223
1780625767810744000,6.013744140625,0.3757312552124262,1.8255010244578123,0.7391355282932519
1780625767820774100,6.023774169921875,0.37019349482953545,1.7915256896197795,1.063536409240961
1780625767830804200,6.03380419921875,-0.09805822317004204,0.5157955594629049,1.097847259643674
1780625767840833300,6.043833251953125,-0.8188789270937442,-0.7290946112722158,1.165684824334085
1780625767850863000,6.053863037109375,-0.03426584221720695,-1.000924177983403,0.9990677364617585
1780625767860893000,6.063892822265625,0.4033271181464195,-0.5028408008217812,0.9339026058509945
1780625767870922000,6.073921875,0.7938485307335853,0.013799977293610571,0.8079302475780248
1780625767880952000,6.0839521484375,1.1665306275084615,0.8591945708692074,0.39740620366483925
1780625767890982100,6.093982177734375,2.1267995544984934,0.9481909511834382,0.3264066678121686
1780625767901011000,6.104010986328125,1.982247583439946,1.2890478768914937,0.23006401638835666
1780625767911041000,6.114041015625,0.41003830622285603,1.3066419857710598,-0.7872001787602901
1780625767921071000,6.124071044921875,-0.45471389877349133,0.5987678571820259,-1.5152598940268158
1780625767931100200,6.13410009765625,-2.1499176874965427,0.12429390366673469,-1.708904981817305
1780625767941130200,6.144130126953125,-3.4046906620815394,-0.22436112857162951,-2.4217519303828476
1780625767951160300,6.154160400390625,-2.444993397499621,-0.9614519992947578,-2.9318200521096585
1780625767961189000,6.164189208984375,-1.3724874998614192,-1.4478946230232714,-3.0610052349492904
1780625767971219000,6.174218994140625,0.2413105098068714,-1.1632616888403893,-3.4480089948043227
1780625767981249000,6.1842490234375,1.0645309732362627,-0.4663847550839185,-3.9416085045501585
1780625767991278000,6.194278076171875,2.785698347516358,-0.06150631584227085,-4.418156049469113
1780625768001308200,6.20430810546875,3.9380788691192863,-0.29870529867708684,-4.349863726748526
1780625768011337000,6.2143369140625,1.4187126599416136,-0.4576806396245956,-3.7049504967242477
1780625768021367000,6.224366943359375,-0.11731938847899437,-0.14129180021882057,0.4264367755770683
1780625768031397000,6.234397216796875,-0.3493652263343334,2.0772166084229946,3.1241116794645785
1780625768041426200,6.24442626953125,-1.433568576028943,2.361643790900707,1.8961083461225032
1780625768051456300,6.254456298828125,-2.6968057198375464,0.8426888417482375,0.1866378393769264
1780625768061486000,6.264486083984375,-3.0385499497741457,0.5608253722786903,0.5468377634584903
1780625768071515100,6.27451513671875,-2.74493466771245,0.23132921401858328,1.2779513133376836
1780625768081545200,6.284545166015625,-2.314718958118558,-0.558412465918064,1.8313363064825534
1780625768091575000,6.294574951171875,-2.0846017502382397,-1.517540406179428,2.2630846324712035
1780625768101604000,6.30460400390625,-2.0318334521248937,-2.901901006925106,2.684099967521429
1780625768111634000,6.314634033203125,-2.352466212710738,-3.8842917493522164,3.1428005978435274
1780625768121664000,6.3246640625,-2.5478715881720184,-4.011971203804016,2.850989734855294
1780625768131693000,6.334693115234375,-2.151750455881655,-3.856633927097916,2.503720604017377
1780625768141723100,6.34472314453125,-1.4501792268291116,-3.2923727351516483,2.1581933484107254
1780625768151753200,6.354753173828125,-1.1309364592969418,-2.561206578302383,1.6783645898640154
1780625768161782000,6.364781982421875,-1.0603969421714543,-1.6892565707564353,1.3586509899497032
1780625768171812000,6.37481201171875,-1.1141481138423084,-0.6084282504528761,1.0108598810642957
1780625768181842200,6.38484228515625,-0.9326467605710029,0.03283668619692325,0.6162058987170458
1780625768191871200,6.394871337890625,-0.7511950916603207,0.0731242729216814,0.08800620023310184
1780625768201901300,6.4049013671875,-0.4042196830719709,-0.14076982217133044,-0.36274317882359025
1780625768211930000,6.41493017578125,0.060659343624114986,-0.29448972680866714,-0.6967541841596364
1780625768221960200,6.424960205078125,0.537222378373146,-0.2993897738099098,-0.764736418017745
1780625768231990000,6.434989990234375,0.9883008432537317,-0.030721886000037193,-0.6492249557435512
1780625768242019000,6.44501904296875,1.382357444229722,0.21577508653402327,-0.6789496473997831
1780625768252049200,6.455049072265625,1.7718822469949722,0.3470528577387333,-0.7701438300192356
1780625768262079000,6.465078857421875,1.882078067204356,0.5638502730578184,-1.034193994900584
1780625768272108000,6.47510791015625,1.7231828057557343,0.66340136513412,-1.3003449314534663
1780625768282138000,6.48513818359375,1.2739677966594696,0.6099211193591356,-1.510339681020379
1780625768292168200,6.495168212890625,0.7461550516664981,0.3494616724461317,-1.5233189895808696
1780625768302197000,6.505197021484375,0.6985147640913725,-0.10472352627813815,-1.1336124005079269
1780625768312227000,6.51522705078125,1.1877759523719549,-0.20495324826836583,-0.6267980198800563
1780625768322257200,6.525257080078125,1.6375906809270382,0.2881868272721767,-0.2631108382046223
1780625768332286200,6.5352861328125,1.8907962111890315,1.0656687450945377,0.002319382858276367
1780625768342316000,6.54531591796875,2.1104992848217488,1.671582382377982,0.14243687860071658
1780625768352346000,6.55534619140625,2.1211223856449126,1.6843594463646412,0.14874620787799359
1780625768362375000,6.565375,1.9339894562274216,1.277560852715373,0.18064356739819049
1780625768372406000,6.575406005859375,1.5308838718771933,0.7560743881344795,0.2643471020013094
1780625768382436000,6.58543603515625,0.8077870397150516,0.20471359429359434,0.37079496785402294
1780625768392465000,6.59546484375,0.32022447204589843,-0.1659030943840742,0.4812906477928161
1780625768402495000,6.605494873046875,0.10958324126899242,-0.19528116455972194,0.6586416033864021
1780625768412524000,6.61552392578125,-0.08190963692367076,-0.04480068023502826,0.8317126897037028
1780625768422554000,6.62555419921875,-0.03512976557016372,0.13955109403133392,0.8770645740807056
1780625768432584000,6.635583984375,0.18240999254882334,0.2290110002040863,0.8163274890452623
1780625768442613000,6.645613037109375,0.3805962309002876,0.14839315665662287,0.6047931088209152
1780625768452642800,6.655642822265625,0.47034839801788325,0.07599018374681472,0.2702268076896667
1780625768462673000,6.6656728515625,0.5105979908198118,0.20387246729433536,-0.14278525364696978
1780625768472702000,6.675701904296875,0.5805220063954591,0.8511866209805011,-0.29642507878541946
1780625768482732000,6.68573193359375,0.876183699592948,1.8465356291800736,0.08202186512649058
1780625768492762000,6.69576220703125,1.03427641248703,2.456469023498893,0.6889923179864883
1780625768502791000,6.705791015625,0.7974731509715318,2.3290017504930494,1.1511579940706491
1780625768512821000,6.715821044921875,0.6761439423292875,1.8923644834190605,1.623084601190686
1780625768522851000,6.72585107421875,0.6455541582763195,1.6250380733460188,2.1291379343181847
1780625768532880100,6.735880126953125,0.13600246163904667,1.2530667551890016,2.6084505600363013
1780625768542910000,6.745909912109375,-1.1980208675324917,0.4600964685946703,2.951612840077281
1780625768552939800,6.755939697265625,-2.367412437430024,-0.516757682493329,2.871788192734122
1780625768562969000,6.765968994140625,-2.1745266435742376,-1.3334966749489308,2.1902876918077467
1780625768572999000,6.7759990234375,-1.3925655345112085,-1.6895388948291539,0.9767068515717983
1780625768583029000,6.786029052734375,-0.8485381522983312,-1.316593178682029,-0.267016613471508
1780625768593057800,6.796057861328125,-1.1064438230752944,-0.9213459066167473,-1.2937889339387416
1780625768603088000,6.806087890625,-1.7316145340144633,-0.7510185660496353,-2.2494909914046524
1780625768613118000,6.816117919921875,-1.9858008920073509,-1.0823492462605238,-3.076097882401943
1780625768623147000,6.82614697265625,-2.009493317762017,-1.5830723242759703,-3.5141157901793716
1780625768633177000,6.836177001953125,-1.8350714013576506,-1.9479077992036937,-3.1576158896595237
1780625768643207200,6.846207275390625,-1.6495166810423134,-2.1757167301416396,-2.3021032221734523
1780625768653236000,6.856236083984375,-1.643652172923088,-2.0897642475679516,-1.4088520679235457
1780625768663266000,6.86626611328125,-1.4340660041570663,-1.6636735089495778,-0.6705944915086031
1780625768673296000,6.8762958984375,-1.241898003181815,-1.2050684479564429,-0.16070727930665016
1780625768683325000,6.886324951171875,-1.221096038171649,-0.9944909300655126,0.09014788843691349
1780625768693355000,6.89635498046875,-1.4305740703880787,-1.093682541179657,0.08245382680296898
1780625768703384800,6.906384765625,-1.559281114321947,-1.3026435637846587,-0.08825812916755675
1780625768713414000,6.916413818359375,-1.8261609496712683,-1.6952490891695022,-0.2806353889793157
1780625768723444000,6.92644384765625,-1.744841679856181,-2.1430571540772916,-0.7086579724431038
1780625768733474000,6.93647412109375,-1.3254904786258934,-2.1701114574804903,-1.2082809802621601
1780625768743502800,6.9465029296875,-0.8264794652253389,-1.659273520424962,-1.7272066544443367
1780625768753533000,6.956532958984375,-0.2816395975857973,-0.7663543746083974,-2.149536579224467
1780625768763563000,6.96656298828125,0.21299510042667388,0.20214082119613885,-2.3359207361012695
1780625768773592000,6.976592041015625,0.6613678134799004,0.8530006846651434,-2.4025480482190846
1780625768783622100,6.9866220703125,0.9661275898903607,1.1606821937412022,-2.1826438990563153
1780625768793652000,6.99665185546875,1.0240899495154618,1.2947370284438133,-1.589035616594553
1780625768803681000,7.006680908203125,0.778078714671731,1.2235232653185724,-0.5941793603479862
1780625768813710800,7.0167109375,0.26936346885859963,0.9619000353232026,0.5760486603736877
1780625768823741000,7.026740966796875,-0.08370178103744984,0.5975523439124226,1.4872072272360324
1780625768833770000,7.03677001953125,-0.2010036338597536,0.05925970595926046,1.9877730688631534
1780625768843800000,7.046800048828125,-0.06281272226572036,-0.5153562912628055,1.9625304910570383
1780625768853830000,7.056829833984375,0.18299860609173774,-0.6322048473596572,1.6042483832955359
1780625768863859000,7.06685888671875,0.4134399313598871,-0.12521101851165295,0.9899141236692667
1780625768873889000,7.076888916015625,0.4863736501455307,0.6456172866404056,0.5994885726720094
1780625768883919000,7.086919189453125,0.5800643257558346,1.2928881857067345,0.5407534751087427
1780625768893948200,7.0969482421875,0.6854945389986038,1.633294152776897,0.6993979766666889
1780625768903978000,7.10697802734375,0.7722346648186444,1.739752540023625,1.047594743743539
1780625768914007800,7.1170078125,0.8547071963220835,1.7126669646993278,1.5059481680631637
1780625768924036900,7.127036865234375,0.866177853885293,1.275339669534564,1.7324907323271035
1780625768934067000,7.13706689453125,0.9574556231349706,0.44543139890432354,1.5828706642240284
1780625768944096000,7.147095947265625,1.1534323687434196,-0.5920765428498387,0.9958435137182473
1780625768954125800,7.157125732421875,1.249203357759118,-1.4823130254536867,0.1724526621580124
1780625768964156000,7.167156005859375,1.2817355080515145,-1.695549533420801,-0.5653285289168357
1780625768974186000,7.17718603515625,1.402697052425146,-1.30598907482028,-1.0404635766893624
1780625768984215000,7.187215087890625,1.4339438390821218,-0.4950120068922639,-1.0109031356841325
1780625768994245000,7.1972451171875,1.3357120129108428,0.2719596228316426,-0.4148118042349815
1780625769004275200,7.207275146484375,1.4490964000284672,0.5962222643524407,0.45257893257141113
1780625769014304000,7.217303955078125,1.3963701874911785,0.4442240689411759,1.0339987645894289
1780625769024334000,7.227333984375,1.2658593090057373,0.32776948059797284,1.2677876467198133
1780625769034364000,7.237364013671875,1.4607850842565298,0.49602410654425616,1.2472662522166966
1780625769044393000,7.24739306640625,2.0037030439227816,0.7340829210788011,0.994952702358365
1780625769054422800,7.2574228515625,2.3764456387132404,0.63038143132478,0.6101005675792693
1780625769064452900,7.267452880859375,2.378865559336543,0.17651859642267226,0.2407353402674198
1780625769074482000,7.27748193359375,2.247123677751422,-0.22123627454936504,-0.04647358188331127
1780625769084512000,7.287511962890625,2.156056920903921,-0.26578093419671056,-0.07706044332683086
1780625769094542000,7.2975419921875,2.017950764983892,-0.11220774455368518,0.26113223160803317
1780625769104571000,7.30757080078125,1.548342956200242,-0.016820201897621154,0.6335615226656198
1780625769114601000,7.31760107421875,1.376833127850294,0.09331307446956634,0.8047878578990697
1780625769124631000,7.327631103515625,1.7518197021752595,0.47104427132755516,0.9467617951631545
1780625769134660000,7.33766015625,2.2159669074654578,0.9512205281376838,1.215042144960165
1780625769144690000,7.34768994140625,2.315434997433424,1.494393923869729,1.5496885255903006
1780625769154719000,7.357718994140625,1.93572723980546,2.1599279171183703,1.9063930087715386
1780625769164748800,7.367748779296875,1.5067489630520343,2.5245704998224974,2.35701320849061
1780625769174779000,7.37777880859375,1.360585172882676,2.4119141347184776,2.7117887694358824
1780625769184808000,7.387807861328125,1.8689368460804223,2.231056340047717,3.133711282458901
1780625769194838000,7.397838134765625,2.4739988349705935,1.9742419716387987,3.6004391518920658
1780625769204868000,7.4078681640625,2.6322347557276484,1.6707178745031357,3.803485689756274
1780625769214897000,7.41789697265625,2.846873531708121,1.4040852919131517,3.558362343662977
1780625769224927000,7.427927001953125,2.713869082841277,0.8881319115400313,2.6909622545063496
1780625769234957000,7.43795703125,1.9408301159024237,0.15009703796505927,1.461976339867711
1780625769244986000,7.447986083984375,1.2105389883220194,-0.37141397653520103,0.21041326723992823
1780625769255016200,7.45801611328125,0.5972147825211286,-0.6737712218485772,-0.8384872984051704
1780625769265045800,7.468045654296875,-0.40731531099975105,-0.9516276476338505,-1.656765336996317
1780625769275075800,7.478075927734375,-1.2556143938452005,-1.1037037305869162,-2.0502876849651335
1780625769285105000,7.48810498046875,-1.5186223561972378,-0.8852515337981283,-1.994030960214138
1780625769295135000,7.498135009765625,-1.711319934004545,-0.48779038507565853,-1.648195077049732
1780625769305165000,7.5081650390625,-1.7077666254371404,-0.14372005027905105,-1.0011989032715558
1780625769315193900,7.51819384765625,-1.181671205756068,0.16629326274543998,-0.1463093361198902
1780625769325224000,7.528223876953125,-0.1664700806170702,0.43211715930104255,0.6070943715006113
1780625769335254000,7.53825390625,0.739967302942276,0.40883141465112566,1.258869596248865
1780625769345283000,7.548282958984375,1.1401742432415485,0.06626081689298152,1.6319021138966083
1780625769355313200,7.558313232421875,1.142478428530693,-0.6526860559828579,1.3190432021826506
1780625769365343000,7.568343017578125,0.46863808696866033,-1.316960842950642,0.5350894579976797
1780625769375372300,7.578372314453125,0.29228257215321063,-0.4398026723023504,0.384295669940114
1780625769385402000,7.588402099609375,-0.1873001026779413,-0.18837562295496463,0.08362462414801121
1780625769395432200,7.59843212890625,-0.6836509569585323,0.19381883692219853,-0.050959787386655804
1780625769405461200,7.608461181640625,-0.8922329171180725,0.5822979300267994,0.009074117815494536
1780625769415491300,7.6184912109375,-0.8340098607301711,0.9805151578135788,0.13289572779536246
1780625769425521400,7.628521484375,-0.8718196591645478,1.0009129259370266,0.26735914329886434
1780625769435550200,7.63855029296875,-0.8058949423581361,0.8029245482452213,0.3559317452430725
1780625769445580300,7.648580322265625,-1.0535440075367688,0.7123034893386065,0.4363379918664694
1780625769455610400,7.6586103515625,-1.6305799253821371,0.40532179909497495,0.5611807615876198
1780625769465639400,7.668639404296875,-1.9125345802664755,0.16798958180192858,0.2713002821400761
1780625769475669200,7.678669189453125,-1.8533418020635841,-0.03227452226951718,-0.21085399674475191
1780625769485699000,7.688698974609375,-1.4099229120254515,-0.42423641598857936,-0.22317659496217965
1780625769495728000,7.69872802734375,-0.8523965812921523,0.5075112037856131,0.020494798757135866
1780625769505758200,7.70875830078125,-1.6232891838520764,-0.31121962007433174,0.22001783867031335
1780625769515788300,7.718788330078125,-2.5892075149059295,-0.99975513420403,-0.2434276480913162
1780625769525817000,7.728817138671875,-3.346550315541029,-1.0158372310854493,-0.45771804902553553
1780625769535847200,7.73884716796875,-3.865754222142696,-1.3227816580586134,-0.981478011496365
1780625769545877200,7.748877197265625,-4.024148548331857,-1.1940268294602632,-1.465051801790297
1780625769555906300,7.75890625,-3.8892935031622646,-1.1352908551141618,-1.346129654289782
1780625769565936400,7.768936279296875,-3.7489702557146547,-0.9380093105174601,-2.138406113401055
1780625769575966500,7.778966552734375,-3.113480395334959,-0.41864714461416,-2.9487670952573417
1780625769585995300,7.788995361328125,-2.4458967760801316,0.3191061355404556,-3.401976142425835
1780625769596025300,7.799025390625,-1.7192121485590934,0.7684528081923723,-4.005939814685285
1780625769606055200,7.80905517578125,-1.502394859495759,0.990275358197093,-3.9012189187556503
1780625769616084200,7.819084228515625,-1.9265958388447761,0.3645863224722445,-3.6770509746685622
1780625769626114300,7.8291142578125,-2.32995159856379,-0.7864461455225944,-3.3240321942627427
1780625769636144000,7.83914404296875,-3.018675621002912,-1.7299059765309095,-2.7411358599513767
1780625769646173200,7.849173095703125,-3.295952931725979,-1.9383971896670757,-2.3292393586412072
1780625769656203300,7.859203369140625,-3.1023838317811485,-2.0452773094572128,-2.645537597154081
1780625769666233300,7.8692333984375,-3.1220377957999705,-2.0146321419551967,-3.3992297663271427
1780625769676262400,7.879262451171875,-3.0460791762351986,-1.5391832059279082,-3.913369959798455
1780625769686292200,7.889292236328125,-2.7549510348141193,-0.9159078072160481,-3.8302889410078524
1780625769696322300,7.899322265625,-1.2699603145837783,-0.32513869370296594,-2.4399960276037453
1780625769706351400,7.909351318359375,1.2840730110883711,2.1092855251178144,1.5562199731856583
1780625769716381200,7.919381103515625,5.852416699415445,7.152604979002476,10.534274538719654
1780625769726411300,7.929411376953125,7.390016727805137,6.002397417524457,13.208501931524276
1780625769736440000,7.939440185546875,3.3874259312868116,1.0974085759654642,4.594016474243999
1780625769746470100,7.94947021484375,3.6209587928295135,-1.4120428267888725,-4.144209344473481
1780625769756500200,7.959500244140625,-0.33354689495563505,-5.324803276386857,-9.260355841898917
1780625769766529300,7.969529296875,-2.4044752168893813,-3.5672833167433735,-5.012489723595976
1780625769776559400,7.979559326171875,-1.4070529095470905,0.5556622904270887,0.6083014092028141
1780625769786589200,7.989589111328125,-1.449676245743036,2.38469938005656,0.06998685167878865
1780625769796618200,7.9996181640625,0.31077158404588695,2.4545284108251333,-0.24007453827112912
1780625769806648300,8.0096484375,2.869258966517448,2.567055888852477,1.1142650182202458
1780625769816678400,8.019678466796876,3.8347605334639545,2.8137323096066713,1.2767808082535863
1780625769826707500,8.02970751953125,2.5292244631081817,1.7248289655275642,0.5112807123869657
1780625769836737300,8.0397373046875,2.4369699577808377,-0.15533479248806834,1.9093550734475253
1780625769846767000,8.04976708984375,2.0089649099737406,-2.6042081001609563,2.3710762206345795
1780625769856796200,8.059796142578126,0.5751888286739587,-2.8201602968275545,1.3295128660097717
1780625769866826200,8.069826171875,0.38529578689336774,-1.1747639105856418,1.4765446711853145
1780625769876856300,8.079856201171875,0.8944985239624976,0.017976093934476373,1.6886612352117896
1780625769886885000,8.089885009765625,0.8887187715172767,0.5855681838691235,0.6182859198614955
1780625769896915200,8.099915283203124,0.19194354456961155,0.9344697382144629,-0.20737638376206158
1780625769906945300,8.1099453125,-0.23443185620903967,1.7133581618338822,0.31122838790267704
1780625769916974300,8.119974365234375,-0.24536416911184786,2.230088371798396,0.9707534961253405
1780625769927004400,8.13000439453125,-0.006154430976510048,1.8221496682032943,1.3210738312274217
1780625769937034500,8.140034423828125,0.17542144883573055,1.048588430956006,1.268066171400249
1780625769947063300,8.150063232421875,0.09069909257888793,0.7977224495574832,0.7861983082413673
1780625769957093000,8.160093017578125,-0.06677694972157477,0.9313033831380307,0.3719359545826912
1780625769967123200,8.170123291015624,-0.4299854079693556,0.9794025203965604,0.008950491435825825
1780625769977152300,8.18015234375,-0.7918336837798357,0.9193082633092999,-0.311515680411458
1780625769987182300,8.190182373046875,-0.7780792991936206,0.7385058520875871,-0.7682377041369676
1780625769997212200,8.200212158203126,-1.0498831469416618,0.639859161505103,-0.9130243607342242
1780625770007241200,8.2102412109375,-0.9927987391948699,0.8591397719420493,-0.9272206438690423
1780625770017271300,8.220271240234375,-1.0983096164584158,1.2021573828153311,-0.9490051901757717
1780625770027301400,8.23030126953125,-1.2453320692837238,1.2989455860495567,-0.8812994351714849
1780625770037330200,8.240330078125,-1.3498118499338627,1.3892938193641602,-0.538798249387741
1780625770047360300,8.2503603515625,-1.5964292339771986,1.15117494520545,-0.1933481506705284
1780625770057390300,8.260390380859375,-1.5728887839138508,0.8934687425233423,0.13135785070359707
1780625770067419400,8.27041943359375,-1.6073668075770138,0.3562435876712203,0.521295325922966
1780625770077449200,8.28044921875,-1.4306933128535746,-0.13175415654480457,0.922154008129239
1780625770087479300,8.290479248046875,-0.9134510617136955,-0.4642671784080565,1.6729098315894604
1780625770097508000,8.300508056640625,-0.5014133983671665,-0.7397524911478162,1.8143828335940837
1780625770107538200,8.3105380859375,-0.4611375020802021,-0.7570837113074957,1.0047978045463561
1780625770117568300,8.320568359375,-0.3890051628053188,-0.13039514315128325,0.13517244055569172
1780625770127598300,8.330598388671875,-0.5046358675450087,0.9005351737782359,-0.4033230264931917
1780625770137627400,8.34062744140625,-0.828439367121458,1.6297759155228733,-0.780954562368989
1780625770147657200,8.3506572265625,-1.1289736347913741,1.698517881707102,-1.0716092410594225
1780625770157687300,8.360687255859375,-1.3395067290186882,1.4470062958814203,-1.3226298284977673
1780625770167716400,8.37071630859375,-1.4316057515233753,0.9714300802126526,-1.3647452151715755
1780625770177746200,8.38074609375,-1.221257950735092,0.39256782372295856,-1.0842793375402688
1780625770187776300,8.3907763671875,-0.8769581910967826,0.09964680753573775,-0.8428472471803427
1780625770197805000,8.40080517578125,-0.4990303026229143,0.2383252103857696,-0.5343365938037633
1780625770207835100,8.410835205078126,-0.06822539496421813,0.5305367631293832,0.06521919888556003
1780625770217865200,8.420865234375,0.1350374159991741,0.8486984574265778,0.059928691262006756
1780625770227894300,8.430894287109375,0.20837036323547362,1.0504732217893005,-0.38019466436207294
1780625770237924400,8.44092431640625,0.09999474419057369,0.9040629095129669,-0.5603332048475742
1780625770247954400,8.450954345703124,-0.12349661580920218,0.7795020254731178,-0.5148977338403463
1780625770257983200,8.460983154296875,-0.22784663259983062,0.4971272454805672,-0.020135610055923462
1780625770268013300,8.471013427734375,-0.5119990897893906,0.08839213081076741,-0.09613631519675254
1780625770278043400,8.48104345703125,-0.65103638907969,-0.14548296829834578,-0.41659050434529776
1780625770288072400,8.491072509765624,0.009247136294841765,0.31078064413517714,-0.692885233771801
1780625770298102300,8.501102294921875,0.4498427856057882,1.0021111958108841,-0.9786310976326466
1780625770308132000,8.511132080078125,0.7647814262032508,1.4312445169955492,-1.2378607104897499
1780625770318161200,8.5211611328125,1.1070458806216716,1.677099830625206,-1.1642477772682904
1780625770328191200,8.531191162109375,1.3341834881693124,2.2881026077412066,-0.8581184660702943
1780625770338221300,8.54122119140625,0.9411550611972809,1.6496205798082053,-0.12556290068924425
1780625770348250000,8.55125,1.1781512149363755,-1.1777252446092665,0.09597732524275779
1780625770358280200,8.5612802734375,0.9288812705576419,-0.0609179945603013,0.3735638480454683
1780625770368310300,8.571310302734375,0.8612725461870432,-0.8529413556933403,0.6302081205844878
1780625770378338800,8.5813388671875,0.5971814647734165,-1.175556960659474,0.6092606096237898
1780625770388369000,8.591368896484376,0.6167044958889484,-1.308677437121421,0.39014439596831796
1780625770398399000,8.60139892578125,0.9404004434376955,-1.105861785403639,0.22561142089366912
1780625770408428000,8.611427978515625,1.2676438543349504,-0.8093051891930401,-0.020975568011403083
1780625770418458000,8.6214580078125,1.35462831030488,-0.5261345826476812,0.06987550025880336
1780625770428487700,8.63148779296875,1.3152531622499226,-0.2777195015326142,0.11682020678520202
1780625770438516700,8.641516845703125,1.215469430461526,-0.1426893920570612,-0.48151568872034545
1780625770448546800,8.651546875,1.2988637529850005,-0.07126432426869869,-0.9101566963434219
1780625770458577000,8.661576904296876,1.2435644750893116,-0.41758448381870983,-0.8813087875217199
1780625770468606000,8.67160595703125,1.171546702104807,-0.846198018912971,-0.630828882831335
1780625770478635800,8.6816357421875,1.4290654193907975,-1.2815721341833473,-0.22329554516673086
1780625770488665900,8.691665771484375,1.291419866719842,-1.6257590810969471,0.1840150896579027
1780625770498696000,8.701696044921874,1.451232243013382,-1.8788167273208498,0.5190630368262529
1780625770508725000,8.71172509765625,1.4747458050698041,-1.235331484273076,1.138230123436451
1780625770518755000,8.721755126953125,1.0150187543094158,0.18234452609717844,0.8456897771298885
1780625770528785000,8.731784912109376,0.9238169729053973,-3.7807892893016337,0.4777928688049316
1780625770538814000,8.74181396484375,1.064105149039626,-1.467015503078699,0.5173112247228622
1780625770548843800,8.75184375,1.3493126682400702,-0.723752957983315,1.0382026460200549
1780625770558873900,8.761873779296875,1.6460311770141123,-0.8504749655798077,1.121736084753275
1780625770568903000,8.77190283203125,1.9343033444821833,-1.108691894263029,1.3183750936627388
1780625770578933000,8.78193310546875,2.0121049615651367,-1.9826687314614653,1.4490858786344527
1780625770588962800,8.791962890625,2.1304460943073034,-2.23526548217535,1.8791040198296307
1780625770598992000,8.801991943359376,1.9860089818000792,-2.7268077671304343,2.0589432851076124
1780625770609022000,8.81202197265625,1.8502765692740677,-2.3251275394082067,1.962812230607867
1780625770619052000,8.822052001953125,1.7633768689781426,-3.162340872354805,1.92041510438323
1780625770629080800,8.832080810546875,1.5059779786795378,-3.1051722934558987,1.4946113660126923
1780625770639111000,8.84211083984375,0.7212789690852165,-1.1494731097236275,0.6949877590090036
1780625770649140700,8.852140625,0.3461065167993307,-0.5648831232368946,0.05188859266936779
1780625770659169800,8.862169677734375,-0.19431611891984937,0.205685946457088,-0.5664975726962089
1780625770669200000,8.872199951171876,-0.7604530416101217,0.980683646248281,-1.2434183446168898
1780625770679230000,8.88222998046875,-1.3035662315875292,1.7602873785302042,-1.7842554063558578
1780625770689258800,8.8922587890625,-1.803514818099141,2.3860543017968534,-2.073992970201373
1780625770699288800,8.902288818359375,-1.9401842192143202,2.802272757959366,-2.2845815940082073
1780625770709319000,8.91231884765625,-2.04880241484344,2.963953266212344,-2.613979552590847
1780625770719348000,8.922347900390625,-2.1940777317404745,2.817936483298242,-2.6327070494145155
1780625770729378000,8.9323779296875,-2.337683654120564,2.5053823997497555,-2.3398563219845294
1780625770739408000,8.942407958984376,-2.6232471471518277,1.9957816032737492,-1.9457915377020836
1780625770749437000,8.95243701171875,-2.7687206169694663,1.5195087836429475,-1.3689040884166954
1780625770759467000,8.962467041015625,-2.5052432835400102,1.530569399100542,-1.0589572647571563
1780625770769496800,8.972496826171875,-2.3803841472059486,1.944488930670917,-1.3173416589617728
1780625770779527000,8.98252685546875,-2.196822646534443,2.2247192459806797,-1.2631523881345987
1780625770789555700,8.9925556640625,-1.8399989208877086,2.287352812287211,-0.9969938527971506
1780625770799585800,9.002585693359375,-1.3618208521574735,2.2500468717217443,-0.6561924566686153
1780625770809616000,9.012615966796876,-0.8226946859896183,2.2649384436443447,-0.1292570790320635
1780625770819645000,9.02264501953125,-0.6387754579216242,2.2303856011793015,0.043296120890974996
1780625770829675000,9.032675048828125,-0.543833905467391,1.999726249246299,0.1383101540595293
1780625770839705000,9.042705078125,-0.4406839121162891,1.8074170862346886,0.4544394657462835
1780625770849734000,9.05273388671875,-0.530023406779766,1.6868559393554925,0.664898910215497
1780625770859764000,9.062763916015625,-0.9804244107902049,1.4185875722572208,0.31461656903624535
1780625770869793800,9.072793701171875,-1.3125363045066594,0.9400260571673512,0.10595686746537684
1780625770879822800,9.08282275390625,-1.4196160385221241,0.5624734317466616,-0.010694412493705749
1780625770889853000,9.09285302734375,-1.4103010976880788,0.08015314864516258,-0.10697978077232836
1780625770899882800,9.1028828125,-1.2371996162325143,-0.283846459980309,-0.28953356570601463
1780625770909911800,9.112911865234375,-1.0487737243950366,-0.5402706600278616,-0.423923331451416
1780625770919942000,9.12294189453125,-0.9517290621817112,-0.5793807274058461,-0.3543962062388658
1780625770929972000,9.132971923828125,-0.8458990359663963,-0.29770342815816403,0.17741174587011335
1780625770940000800,9.143000732421875,-0.7980652716457843,0.3274368876427412,0.3420581181913614
1780625770950030800,9.15303076171875,-0.7803244477719068,1.1282590567812323,0.19177812487483023
1780625770960061000,9.16306103515625,-0.670995473524928,1.9051289801850915,0.058518824464082714
1780625770970090000,9.173090087890625,-0.7998907335072756,2.405805588710308,-0.6335159299582243
1780625770980120000,9.1831201171875,-1.048597783306241,2.3872192539229986,-1.0165426028758286
1780625770990150000,9.19314990234375,-1.041826097214222,1.7415253949150442,-0.6062614278078079
1780625771000180000,9.203179931640625,-1.2551444382458925,0.5370736175522208,-0.5348047958374023
1780625771010208800,9.213208740234375,-1.4404606736302374,-0.0697536274448037,-0.3189128049254417
1780625771020238800,9.22323876953125,-1.1612041717886925,-0.1772472029581666,-0.11818155826628207
1780625771030269000,9.23326904296875,-0.8435726388454436,0.13770721973031758,-0.040616088026762004
1780625771040298000,9.243298095703125,-0.5996750351548195,0.9199062292024492,-0.13412030115425586
1780625771050327800,9.253327880859375,-0.36139585586786266,1.5883312677174806,-0.1621960565596819
1780625771060358000,9.26335791015625,-0.28754502223730083,1.6983721896260975,-0.3215320475131273
1780625771070387000,9.273386962890624,-0.5692226137459278,1.1702180838495493,-0.7772516161978245
1780625771080417000,9.2834169921875,-0.46177112380862234,1.3117542142182588,-0.2863052513092756
1780625771090446800,9.29344677734375,0.05376899958848953,0.7052174766004086,0.6420031877964735
1780625771100476000,9.303475830078124,0.31420214301645755,-0.24514146627187727,1.0310419606104493
1780625771110505700,9.313505615234375,0.4702478602528572,-1.2655442517071962,0.8230041903302073
1780625771120535800,9.323535888671875,-0.011540215668082237,-1.2535378798320889,0.04898205757290124
1780625771130564900,9.33356494140625,-0.17794950600862502,-0.25122253975123165,-0.13302140000164508
1780625771140595000,9.343594970703125,-0.11094050109684467,0.2846168598309159,-0.27919804965257644
1780625771150625000,9.353625,0.3056687079489231,1.1566364254817365,-0.059006023459136483
1780625771160653800,9.36365380859375,0.9400865551829337,1.8306544616982339,0.42459465484172104
1780625771170684000,9.373683837890624,1.0370710116416215,1.2960557098269463,0.3050117053449154
1780625771180714000,9.3837138671875,0.8284966502666473,0.4009209337875247,-0.21757892108559607
1780625771190743800,9.393743896484375,0.8594657890260219,-0.45326896066218614,-0.005440145227313041
1780625771200773000,9.403773193359376,1.2818886527866125,-1.0341840580284596,0.8645726106457412
1780625771210802700,9.413802734375,0.9353642028361558,-1.6225909724548457,0.9723685301065444
1780625771220832800,9.423832763671875,0.7365805831134319,-1.4140505133494734,0.6611728754296898
1780625771230861800,9.43386181640625,1.5703613112628458,-0.9489332939833403,0.5123123935222625
1780625771240892000,9.443891845703124,2.3148031292706728,-1.3494038536548614,0.40680604630336165
1780625771250922000,9.453921875,2.6526918528228998,-1.6983721896260975,0.4864958152204752
1780625771260950800,9.46395068359375,2.430466567236185,-1.9517334949716925,0.7893738695375621
1780625771270980900,9.47398095703125,2.131058673247695,-2.2046406268090006,0.9953007851436734
1780625771281011000,9.484010986328125,2.098842164775729,-2.390524140687287,1.1265532757766543
1780625771291040000,9.4940400390625,2.0123107132703066,-2.356746081987023,0.9331209539540112
1780625771301070000,9.504070068359376,1.956417561134696,-2.2054063504844903,0.1545648310288787
1780625771311100000,9.514099853515624,1.9630758499801158,-2.019134129549563,-0.41489772895276544
1780625771321129000,9.52412890625,2.136468423336744,-1.067415881022811,0.9085643125854432
1780625771331158800,9.53415869140625,3.4127959348648784,-0.13220219257324933,3.3421012271776793
1780625771341188900,9.54418896484375,4.166496579605341,-0.0707081516906619,4.074257564108073
1780625771351218000,9.554218017578124,4.7106063794046635,-1.0655196920126675,2.8510481870442628
1780625771361247700,9.564247802734375,4.846548050767183,-2.313159745977819,0.678716715426743
1780625771371277800,9.57427783203125,3.8829216300427913,-2.5792586600825187,-0.009571034486964345
1780625771381307400,9.584307373046874,2.2471973275095225,-1.8139999717563389,1.1922227757129817
1780625771391336400,9.59433642578125,1.0802613340705634,-0.7443494635492562,2.4292975234568117
1780625771401366300,9.6043662109375,-0.014212065225839614,-0.4059025215923786,1.8871113851964472
1780625771411396400,9.614396240234376,-0.8573276079535483,-0.7349462599098682,1.03252343133986
1780625771421425400,9.62442529296875,-1.3742162233501671,-0.9116846365630626,0.8589785900309681
1780625771431455500,9.63445556640625,-1.9326076464802027,-0.5754939491003751,0.4550940571974963
1780625771441485300,9.6444853515625,-1.540679874226451,0.7348118198752402,0.6598321283452212
1780625771451514400,9.654514404296876,-1.3671785797983407,2.0930273410171267,1.2528152646459638
1780625771461544200,9.664544189453125,-1.8148422677993774,2.533491472902894,1.0943814832292496
1780625771471574300,9.67457421875,-2.203155941209197,2.7682652744174003,0.9327011941719799
1780625771481603300,9.684603271484375,-2.5013433534920213,2.5904554691404105,0.8862756892140954
1780625771491633400,9.69463330078125,-2.957823385155201,1.5835229906529187,0.433123779060319
1780625771501663500,9.70466357421875,-2.961474308878183,0.8426929334014653,-0.15233893514033406
1780625771511693300,9.714693359375,-2.976295445913076,0.5323346063315868,-0.7169272036164999
1780625771521722400,9.724722412109376,-2.8062860852539537,1.035363623201847,-1.2787431943677365
1780625771531752400,9.73475244140625,-2.313901211994886,1.9528864643990993,-1.4488064771711826
1780625771541782300,9.7447822265625,-1.84046244674623,2.4660586896210908,-1.388530579906702
1780625771551811600,9.7548115234375,-1.3106558975875378,2.1718805129796266,-1.3180964228518306
1780625771561841200,9.764841064453124,-1.085924182137847,1.2442208931714296,-1.5823486861765383
1780625771571871200,9.774871337890625,-1.0765309153705835,0.15394494556486607,-1.8476913750864565
1780625771581900300,9.784900390625,-0.9319242915153503,-0.5393073679536581,-1.9190935003906486
1780625771591930400,9.794930419921876,-0.9540215570330619,-0.744898329603672,-1.4691890477254985
1780625771601960400,9.80496044921875,-0.9166852213293314,-0.5728957493007183,-0.8844115758426487
1780625771611989200,9.8149892578125,-0.4083844015359878,-0.3559410975933075,-0.40955903480593114
1780625771622019300,9.825019287109376,0.27417291496694085,0.030098785665631293,-0.5437998570673167
1780625771632049400,9.83504931640625,0.4327367525041103,0.607766279412806,-1.120033445553854
1780625771642078500,9.845078369140625,-0.4043652290225029,1.016674704822898,-1.3646898317225276
1780625771652108500,9.855108642578125,-1.3002782959580421,1.2403151179045437,-1.2777854552514851
1780625771662138400,9.865138427734376,-1.5046955376535653,1.256549628868699,-1.2920607949718832
1780625771672167400,9.87516748046875,-1.2045856328755618,1.150026067431271,-1.2507678305968641
1780625771682197200,9.885197265625,-0.8525310213267803,0.8781479854032397,-0.8686464359559118
1780625771692227300,9.895227294921876,-0.9027461278259754,0.379418711553514,-0.2376603167362511
1780625771702257400,9.90525732421875,-0.9281102861851454,0.00404722956418991,0.2654484143067151
1780625771712286200,9.9152861328125,-0.36252222954928875,-0.21552461890429256,0.9376018987603485
1780625771722316300,9.92531640625,0.6534551406592131,-0.16496172188073396,2.0385481473326683
1780625771732346400,9.935346435546874,1.3716583555608988,0.060436640784144395,3.219583977794647
1780625771742375400,9.94537548828125,1.618931573164463,-0.3386994554132223,3.5806226907879113
1780625771752405500,9.955405517578125,0.17594108879566192,-1.085599480228126,2.582671391135454
1780625771762435300,9.965435302734376,-1.390005913156271,-1.5842989434614776,-0.1479443169105798
1780625771772464400,9.97546435546875,-0.3419534887731075,-1.5601400692388414,-1.906619803264737
1780625771782494200,9.985494140625,1.6607383322805165,-0.9644155252754688,-1.355567783112079
1780625771792524300,9.995524169921875,2.057806390032172,0.27890578870773314,-0.10352120128367095
1780625771802553300,10.00555322265625,1.593631127691269,1.624983420549333,0.6320918154392391
1780625771812583400,10.01558349609375,1.3723241259932517,2.358594632463157,0.3568094048604369
1780625771822613200,10.02561328125,1.173713524749875,2.214129462905228,-0.4884565208341926
1780625771832642300,10.035642333984375,1.016498763734102,1.5243565159350634,-0.6412174442462623
1780625771842672400,10.04567236328125,1.112328789460659,0.8130261094123125,0.025684476354718207
1780625771852702500,10.055702392578125,1.1625497411787509,0.17189911992847917,0.48143926248326896
1780625771862732300,10.065732177734375,0.5430138212561607,-0.5116890009269118,0.23703082319367674
1780625771872761300,10.07576123046875,-0.7846773822844028,-0.999954456168413,-0.4626418787611648
1780625771882791200,10.085791259765625,-1.53902158562541,-1.084107488104701,-1.0411327081225812
1780625771892821200,10.0958212890625,-1.8266805896311997,-0.8981994243070482,-1.2895942587278784
1780625771902850300,10.105850341796875,-1.7124498148173093,-0.4810597616463899,-1.0397400847204028
1780625771912880400,10.11588037109375,-1.2911363736033439,-0.0006599252134561538,-0.497011071754992
1780625771922910500,10.125910400390625,-0.902948372399807,0.22959786018133163,-0.07373095184424891
1780625771932939300,10.135939208984375,-0.6306020883381367,0.3590212356910109,0.1319184437284246
1780625771942969300,10.14596923828125,-0.7043003617554903,0.24986674122810362,0.007369618877483298
1780625771952999400,10.15599951171875,-0.9391583344221115,0.03431289622932672,-0.27060486548813056
1780625771963028500,10.166028564453125,-1.091377186846733,0.20798224070072172,-0.2649042244274169
1780625771973058600,10.17605859375,-1.1368354542076586,0.35362726769298314,-0.10001533032087609
1780625771983088000,10.186088134765624,-1.0714344690144062,0.5499579413056374,-0.011771576738543808
1780625771993118200,10.1961181640625,-1.1178589510589838,0.7356085232108831,-0.050400765264406795
1780625772003147300,10.206147216796875,-1.3893588474243879,0.6585881196334957,-0.19665033402107654
1780625772013177300,10.21617724609375,-1.5821481951683758,0.346889191609621,0.03748721541650593
1780625772023207400,10.22620751953125,-1.4426765961140393,-0.1289765085250139,0.6468599071126431
1780625772033236200,10.236236328125,-0.9599620529979467,-0.5568491621240973,1.1232102489590645
1780625772043266300,10.246266357421876,-0.5308575195163489,-0.975000924436748,0.9230086521971971
1780625772053296400,10.25629638671875,-0.12712415865659712,-1.2863997004702687,0.353790787691623
1780625772063325400,10.266325439453125,0.26916648498177526,-1.0936427936911581,-0.09008439474664628
1780625772073355500,10.27635546875,0.8265700661182404,-0.9033461395457386,-0.08654109611660242
1780625772083385300,10.28638525390625,1.1695102278411387,-0.8463941260069608,0.5647621272057295
1780625772093414400,10.296414306640624,0.9286907164216041,-0.7309504682719707,1.1712228039126842
1780625772103444200,10.3064443359375,0.5904588785201311,-0.7997861040890216,1.0352556327827274
1780625772113474300,10.316474365234376,0.12043489015102386,-0.9949074019119143,0.5498856067217887
1780625772123504400,10.32650439453125,0.16983868026733398,-1.0354001558199524,-0.06176672034412622
1780625772133533200,10.336533203125,0.4103320284724235,-1.1257032348185776,-0.35843715219274164
1780625772143563300,10.346563232421875,0.546258502265811,-1.2113874218448997,-0.6731089585475624
1780625772153593300,10.35659326171875,1.2685609691798687,-1.0428834973126648,-0.8194942825131117
1780625772163622400,10.366622314453124,2.085724909049272,-0.9613143443897366,0.026411329324543476
1780625772173652500,10.376652587890625,2.609262460941076,-1.0429743904665112,0.7217799043446779
1780625772183682600,10.3866826171875,2.526718033245206,-1.6963631878912449,0.4266906042076647
1780625772193711400,10.39671142578125,2.721075653219223,-2.6736525155261157,0.06315130657032132
1780625772203741400,10.406741455078125,2.828366984158754,-3.4403047040373087,0.037662352787703274
1780625772213771300,10.416771240234375,2.649677473437786,-4.027149775974452,-0.22837343295291065
1780625772223800300,10.42680029296875,2.793445308381319,-4.265606942176818,-0.4055918482080102
1780625772233830400,10.436830322265624,3.1390608267933127,-4.061558533793687,0.1445616156697273
1780625772243860200,10.446860107421875,3.4296950472176073,-3.046472267206013,0.3927294440254569
1780625772253889300,10.45688916015625,3.2322552433192726,-1.6878177701249717,0.3732749481014907
1780625772263919400,10.46691943359375,2.5375194132447243,-0.7255538699254394,0.28981106747314334
1780625772273949400,10.476949462890625,1.7228753472417593,-0.08731587988138198,-0.05704758286774158
1780625772283979500,10.4869794921875,0.7011486197263002,0.5147258844047784,-0.4153288138464093
1780625772294008300,10.49700830078125,-0.2640156780898571,0.9635089318245649,-0.7470867795586585
1780625772304038400,10.507038330078124,-0.785829474928975,1.1259867279350757,-0.6703596598394215
1780625772314068200,10.517068115234375,-1.1006792681992053,1.256264382186532,-0.5587900670588016
1780625772324097300,10.52709716796875,-1.1955775660336017,1.2855682180821895,-0.7439150176547468
1780625772334127400,10.53712744140625,-1.0011661700457335,1.5801035375982522,-0.8425001873083412
1780625772344157400,10.547157470703125,-1.025195280408859,1.6228998922735451,-0.6775339353829621
1780625772354186200,10.557186279296875,-1.2564064210057257,1.583302625900507,-0.8249598544426262
1780625772364216300,10.56721630859375,-1.1946154430031777,1.446298878264427,-0.5877050497673452
1780625772374247400,10.577247314453125,-1.4390993221491575,1.001642555385828,0.367626274690032
1780625772384276200,10.587276123046875,-1.7244401123404502,0.7712579287409782,0.48974414949193595
1780625772394306300,10.597306396484376,-1.926269675630331,0.7137848139375448,0.022143150486052036
1780625772404336000,10.607336181640624,-1.5981547425955533,1.0106927078038452,0.039905747800320385
1780625772414366200,10.6173662109375,-0.9668564886868,1.2377613417685032,0.2153459013365209
1780625772424395300,10.627395263671875,-0.693043639203906,1.2441665326356888,-0.08366115676611662
1780625772434425000,10.637425048828124,-0.03695522743165493,0.9003045798927545,0.02424202246144414
1780625772444455200,10.647455078125,0.13916297149658202,0.26570903800427914,0.700137981379032
1780625772454484200,10.657484130859375,0.1234399171859026,-0.46123511723577976,1.050476144398749
1780625772464514300,10.667514404296876,0.13437749078571795,-1.2690747639209032,0.8449505030699074
1780625772474544400,10.67754443359375,0.10593056398034095,-2.1537644260525703,0.7280987321026623
1780625772484573200,10.6875732421875,0.18541268149614332,-2.7273189315229653,0.9030161769390106
1780625772494603300,10.697603271484375,0.13832944328188895,-3.107458066305518,0.9080106242254375
1780625772504633000,10.707633056640624,0.15427636947631834,-3.258611335325241,0.5382524520732462
1780625772514662100,10.717662109375,0.4973381117522716,-2.904873885256052,0.26398703651726246
1780625772524692200,10.727692138671875,1.0910884330332278,-2.1274065804809332,0.17813216909915208
1780625772534722300,10.737722412109376,1.5742805305331944,-1.1291168426543474,0.19883710347563027
1780625772544752000,10.747752197265624,1.4631184956401586,-0.03539396946430206,0.2854546258293092
1780625772554781200,10.75778125,0.9727700966447591,0.8302367719322442,0.23419380966946482
1780625772564811300,10.767811279296875,0.7498714418411254,1.0552905589431523,0.18798764655068514
1780625772574841300,10.77784130859375,0.7705009728938341,1.0898743810683489,0.42963966327160596
1780625772584870400,10.787870361328125,0.37288171100020406,1.0445587370485068,0.7219217970333993
1780625772594900200,10.797900146484375,-0.10101005871295929,1.1654092222630976,0.6949731459617614
1780625772604930000,10.807929931640626,-0.6961456968724727,1.273952014568448,0.6524908256717026
1780625772614959400,10.81795947265625,-1.0299988812983036,1.2690128046005964,0.6644894526317715
1780625772624989200,10.8279892578125,-0.8699030118882656,1.0006342551261187,0.5448229165047407
1780625772635019300,10.838019287109375,-0.6492576889693736,0.5838824227392673,0.5239987396627664
1780625772645048000,10.848048095703126,-0.26623101605176924,0.1626654276371002,0.29856355211883784
1780625772655078100,10.858078125,0.5784522143840789,-0.14046470174491404,-0.024747780026495456
1780625772665108200,10.868108154296875,1.116724394071102,-0.2898603134423494,-0.025795243252813814
1780625772675138300,10.87813818359375,1.1576923642754553,-0.6133966865152121,0.11407821460068225
1780625772685167400,10.88816748046875,1.197111935994029,-0.7757388735473155,0.33353198964744807
1780625772695197200,10.898197265625,1.2960264837324618,-0.6309177301585674,0.4253080638080835
1780625772705227300,10.908227294921875,0.8449988722562789,-0.5611842687189579,0.7473807940691709
1780625772715256300,10.91825634765625,0.4910509943068027,-0.25788345894515513,1.149872922696173
1780625772725286100,10.9282861328125,0.6741302644193172,0.09669979429841041,1.4210989705562591
1780625772735316200,10.938316162109375,0.9493103106021881,0.5792594391137361,1.233548400248587
1780625772745345000,10.948344970703126,1.3106710951566696,1.089838725233078,0.7797302812710404
1780625772755375000,10.958375,1.424751063323021,1.2897417043745516,0.27475831363946196
1780625772765405200,10.9684052734375,1.3364496795356273,1.4396481882035732,-0.13356354405432938
1780625772775434200,10.978434326171875,0.9300193346768617,1.3548720559328793,-0.0010047931283712387
1780625772785464300,10.98846435546875,0.39857612422704697,1.2294763285040855,-0.013668167607486247
1780625772795494400,10.998494384765625,-0.14328735795021055,0.7156278114557266,0.057550856214761734
1780625772805524200,11.008524169921875,-0.5139923094332218,-0.0731242729216814,0.12399112132787704
1780625772815553300,11.01855322265625,-0.910952815157175,-0.6625672523975372,0.1639920000657439
1780625772825583000,11.0285830078125,-0.8391554069250822,-0.7847241440355778,0.6886594327703118
1780625772835613200,11.03861328125,-0.1035188266634941,-0.3430471292287111,0.9856894917115568
1780625772845642200,11.048642333984375,0.4646387881994247,-0.013001520392298698,0.7659975239947437
1780625772855672000,11.058672119140626,0.30304128205478187,0.018250526961684225,0.30474282527565955
1780625772865702100,11.0687021484375,0.27211189078390596,0.14146715678572655,-0.4383960934400558
1780625772875731200,11.078731201171875,0.14962182166874408,0.36286125224530696,-0.9670981884881853
1780625772885761300,11.08876123046875,0.1239192251354456,0.5014975695192814,-1.2430424970418215
1780625772895791400,11.098791259765624,0.03577916938960552,0.5733516763746738,-1.5327461586177349
1780625772905820200,11.108820068359375,-0.050480479437112806,0.5459791008025408,-1.5822379192784428
1780625772915850200,11.118850341796875,-0.1248988838225603,0.4067822270363569,-1.111326918941736
1780625772925880300,11.12888037109375,-0.476346761649847,0.20930559825897216,-0.6429860613539815
1780625772935910100,11.13891015625,-0.3075643124371767,0.20777999612689016,-0.44539223593771454
1780625772945939200,11.148939208984375,-0.2416232290178537,0.08294599423408508,-0.1770858749166131
1780625772955969300,11.15896923828125,-0.15698562843501568,-0.1161982754945755,0.05923515603989362
1780625772965999000,11.1689990234375,0.1117845507055521,-0.14131693466007708,0.5529106536313891
1780625772976028200,11.179028076171875,-0.04657645773589611,-0.26673662748634813,1.2613608285427094
1780625772986058200,11.189058349609375,-0.28521511798501015,-0.45913025391101836,1.2635107000529766
1780625772996088300,11.19908837890625,-0.29787469307184217,-0.3986024277120828,0.4510480697423219
1780625773006117000,11.2091171875,-0.13728314909934997,0.044812955194711686,-0.4529816681534052
1780625773016147200,11.219147216796875,-0.06795417680740357,0.5944640225082636,-1.1046163153871893
1780625773026177300,11.22917724609375,-0.3446779453009367,0.9207096545398235,-1.4384049101442098
1780625773036206300,11.239206298828124,-0.8775678474277258,0.8726625397294759,-1.2791884539172051
1780625773046236200,11.249236083984375,-0.9512252043128013,0.6356541110306978,-0.8352285888701677
1780625773056266200,11.259266357421875,-0.6145739136010409,0.2712742709159851,-0.12751841867119074
1780625773066296300,11.26929638671875,-0.4159533754855394,-0.288078106200695,0.30042554659843446
1780625773076325000,11.2793251953125,-0.10490706615149974,-0.5488935269445181,0.03297521788477897
1780625773086355200,11.289355224609375,0.060602060478925704,-0.6529746636658906,-0.3419318614631891
1780625773096385300,11.29938525390625,-0.03701894031763077,-0.6533668778538704,-0.7326976042002439
1780625773106414300,11.309414306640624,-0.24597499448657034,-0.510437247300148,-1.071074695791304
1780625773116444200,11.319444091796875,-0.6651029083549976,-0.448761420109868,-1.3573244175210595
1780625773126474200,11.32947412109375,-0.805695620393753,-0.5305822097063064,-1.4709569341808557
1780625773136503300,11.33950341796875,-0.7724415855675936,-0.546062687432766,-1.1423346361458302
1780625773146533400,11.349533447265625,-0.7147294013112783,-0.3760387137264013,-0.6884001973122358
1780625773156563200,11.359563232421875,-0.4445136995375156,-0.16266250502765178,-0.27814854059964417
1780625773166592000,11.369592041015625,-0.29796295587718485,-0.15259586904346942,-0.0235673380702734
1780625773176622000,11.3796220703125,-0.3516670735359192,-0.2148193932443857,0.026143618299067018
1780625773186652200,11.389652099609375,-0.2901338696867227,-0.13796060996949672,-0.023032500541210175
1780625773196682200,11.39968212890625,-0.22194354603588579,-0.17717559902667998,0.03536825050115585
1780625773206711300,11.409711181640626,-0.07904664870798588,-0.19800269847810267,0.19198475336283444
1780625773216741400,11.419741455078125,0.20713526848256586,-0.10289455728530883,0.1804518442183733
1780625773226771200,11.429771240234375,0.09801087689697742,-0.03506371459662914,0.046799160575866694
1780625773236800300,11.43980029296875,-0.05273848749697208,-0.25609949813783167,-0.18528174859285354
1780625773246830300,11.449830322265624,-0.4539607423186302,-0.5011982943117618,-0.4691638644084334
1780625773256860200,11.459860107421875,-1.0229173986047506,-0.7056354097515344,-0.6531468053624033
1780625773266889200,11.46988916015625,-1.4080845906823873,-0.7532581616699695,-0.7035097958996892
1780625773276919000,11.4799189453125,-1.5898054319232702,-0.7159586508452892,-0.7418357271626591
1780625773286949000,11.48994921875,-1.401359666341543,-0.7150789454013109,-0.6680009678840637
1780625773296978200,11.499978271484375,-0.7647709048092365,-0.6360428180873393,-0.5917261219769716
1780625773307008300,11.51000830078125,0.043621699583530425,-0.5467150138616561,-0.37015228603631256
1780625773317038300,11.520038330078124,0.5709218188792466,-0.4333417326599359,0.02794862189441919
1780625773327068400,11.530068359375,0.776174342355132,-0.24322072734236716,0.333203780606389
1780625773337097200,11.54009716796875,0.6799386584371327,0.004433598533272743,0.6406281000509858
1780625773347127300,11.550127197265626,0.40293256587088105,0.2298509581595659,0.8501829968959093
1780625773357157000,11.5601572265625,0.2109323226779699,0.34335517226457596,0.8497565881773829
1780625773367186400,11.5701865234375,0.09304711700975894,0.2237041259676218,0.8131576268374919
1780625773377215700,11.5802158203125,-0.07076981875002383,-0.0012269114464521407,0.7247817165091633
1780625773387245600,11.59024560546875,-0.38676819753348823,-0.12098492524921893,0.40212358757555483
1780625773397274400,11.6002744140625,-0.5972802489727735,-0.15850012465119362,-0.3527101528480649
1780625773407304400,11.610304443359375,-0.4481768982201814,-0.34818799924850463,-0.9201131499513984
1780625773417334500,11.62033447265625,-0.3739484634488821,-0.34121991380155087,-1.1489026163592935
1780625773427364600,11.630364501953125,-0.428677247980237,-0.2479196988135576,-1.1757248645722866
1780625773437393700,11.6403935546875,-0.1155488716751337,-0.09899754984676837,-1.0659227198556065
1780625773447423700,11.650423828125,0.3246463801413774,0.1183721124023199,-0.5218748793765903
1780625773457453600,11.66045361328125,0.7462403918623923,0.20715280413925646,0.45773500016033647
1780625773467482600,11.670482666015625,0.8557821320772171,0.2275023492068052,1.3684957998767495
1780625773477512700,11.6805126953125,0.5680675984919071,0.25298048933446404,1.6230506989210842
1780625773487542500,11.69054248046875,0.47754736961126326,0.19507190572321415,1.4068255305320023
1780625773497571600,11.700571533203124,0.5856196217954158,0.23908289688527581,1.1880208670437336
1780625773507601400,11.710601318359375,0.5662479818493128,0.19201368719637393,1.144052545979619
1780625773517631500,11.720631591796876,0.5338590394198894,0.07178805588185787,1.1797080889895557
1780625773527660500,11.73066064453125,0.45271103451848027,-0.22721242634952066,0.6869330473691224
1780625773537690600,11.740690673828125,0.30509470745325085,-0.3116214788734913,-0.03564648292064666
1780625773547720700,11.750720703125,0.242491828545928,-0.012619827598333359,-0.4728019286498427
1780625773557750800,11.760750732421876,0.03858662802577018,-0.00978548095524311,-0.6035533378928899
1780625773567779600,11.770779541015624,-0.28214871615171433,0.1426928991883993,-0.6841045459449291
1780625773577809700,11.7808095703125,-0.2980015343219042,0.5582143129974604,-0.5519008920669556
1780625773587839500,11.790839599609376,-0.1876934859097004,0.8192424997091293,-0.05740180313289165
1780625773597868800,11.800868896484374,-0.25501930168569087,1.08517248698771,0.3709492816329002
1780625773607898600,11.810898681640625,-0.2310585803836584,0.9615443537533283,0.5329834256291389
1780625773617928400,11.820928466796875,-0.3736825059890747,0.6609890432953834,0.5942047870501875
1780625773627957500,11.83095751953125,-0.5189198289632797,0.26605098330974575,0.39369448966532944
1780625773637987600,11.840987548828124,-0.46715807754397387,-0.3935086117044091,-0.07033493446409701
1780625773648017700,11.851017578125,0.16239304043650626,-0.8168804467529058,-0.6185057000920177
1780625773658046500,11.86104638671875,0.34638182660937306,-0.9489657349482178,-0.9694473819628358
1780625773668076500,11.87107666015625,0.3988140246361494,-0.717197252729535,-1.0524427682965993
1780625773678106600,11.881106689453125,0.33338089073896404,-0.38239422023296354,-0.8241141973987222
1780625773688136700,11.89113671875,0.3084428488373756,0.06748129859864711,-0.4717527118578553
1780625773698165800,11.901165771484376,0.1725818414956331,0.3296688844785094,-0.1790551291629672
1780625773708195600,11.911195556640624,0.3803746971040964,0.30295331151038407,0.02537672557979822
1780625773718225400,11.921225341796875,0.6292600260794162,0.005268588052690029,0.0811497584670782
1780625773728254500,11.93125439453125,0.5792635307669639,-0.2638283388242125,0.10330313808619976
1780625773738284500,11.941284423828124,0.23683541021943091,-0.34751901394575835,-0.1496712137684226
1780625773748314600,11.951314697265625,0.025623101556301115,-0.3116904524564743,-0.3421235846430063
1780625773758343700,11.96134375,-0.003155249160528183,-0.3401300727382302,-0.1826359102591872
1780625773768373500,11.97137353515625,0.1298316640496254,-0.23962650224268436,0.38283670330345626
1780625773778403600,11.981403564453124,0.004120294800400734,-0.0741483552724123,1.1090864465385675
1780625773788433700,11.99143359375,-0.03922609497308731,0.19325199681967495,1.212367665053904
1780625773798462700,12.001462646484375,-0.4758066634237766,0.42917379932552574,0.610957184408605
1780625773808492500,12.011492431640624,-1.260600365564227,0.7649331096336245,0.008037175983190536
1780625773818522600,12.021522705078125,-1.2399766797304153,0.6710320061430335,-0.2972375642120838
1780625773828551400,12.031551513671875,-0.45915188122093675,0.20418898589760065,-0.401028485815227
1780625773838581500,12.04158154296875,-0.0012158055305480956,-0.42637978469282384,0.037593525335192675
1780625773848611600,12.051611572265625,0.29530571936666966,-0.9307847660914063,0.40624446689784527
1780625773858640600,12.061640625,0.6206430043816566,-1.078348193925619,0.8295069963529705
1780625773868670700,12.071670654296875,0.5186147085368633,-0.8349345743596553,1.2477198412030934
1780625773878700500,12.081700439453124,0.3501788808047771,-0.1525511531189084,1.6436100873470305
1780625773888730600,12.091730712890625,0.20082769277095794,0.8058072640746832,1.5775494692012666
1780625773898759700,12.101759765625,0.41083763990700245,1.6403160142377018,0.7880363373234868
1780625773908789800,12.111789794921876,0.41760348078012466,1.8026137776061892,-0.726285399070382
1780625773918819600,12.121819580078125,-0.08780454018115996,1.6846087449505924,-1.1072829042479395
1780625773928848400,12.131848388671875,-0.49941491802632804,1.148211419224739,-0.044505204419791694
1780625773938878500,12.14187841796875,-0.13221651335954665,0.3021940175756812,0.31171354107111693
1780625773948908500,12.151908447265624,0.4609843573451042,-0.2715215236753225,-0.4230179070442915
1780625773958937600,12.1619375,0.6328191798657179,-0.9327090121522545,-1.1885022208198903
1780625773968967700,12.1719677734375,0.550837062227726,-1.74886289819628,-1.763068533681333
1780625773978997800,12.181997802734376,0.5724573578834533,-1.8557307430267334,-1.2846499341934918
1780625773989026600,12.192026611328124,0.4283481621563434,-1.0099389668270944,-0.008952537262439728
1780625773999056600,12.202056640625,0.2150420960843563,-0.24127397718876598,0.21876842313110828
1780625774009086700,12.212086669921876,-0.23940321488082408,0.4190452040210366,-0.07934037095755338
1780625774019116500,12.222116455078124,-0.3996721027702093,0.5776905823618174,-0.45542058573812244
1780625774029145600,12.2321455078125,-0.6226783096015452,0.30334201856702564,-0.7805754999235271
1780625774039175400,12.242175537109375,-0.42606385061144825,-0.2838289243236184,-1.139606380225718
1780625774049205500,12.25220556640625,-0.025599136158823966,-0.7103273669600486,-1.0424532892018556
1780625774059234600,12.262234619140624,0.09701368255317211,-0.9023840165153145,-0.783354609248042
1780625774069264600,12.2722646484375,0.2151683528125286,-0.753050071877241,-0.4808279987171292
1780625774079294700,12.282294677734376,0.4246978229552507,-0.22031740613877773,-0.15794833598732946
1780625774089323500,12.292323486328126,0.3636345747053623,0.3545063886150718,-0.016920739662647247
1780625774099353600,12.302353515625,0.22327917855381965,0.49190994922369713,0.06333703840076924
1780625774109383700,12.3123837890625,-0.056413961139321324,0.3982195658743381,0.29101152930408714
1780625774119413500,12.32241357421875,-0.38940848290920255,-0.0067751932233572005,0.8044345144167542
1780625774129442800,12.33244287109375,-0.259317875662446,-0.4649412782773375,1.2527452681496738
1780625774139472400,12.342472412109375,-0.3008399726182222,-0.661409314534068,1.3028405476614833
1780625774149502500,12.35250244140625,-0.39888007560968397,-0.8574488962456583,1.075554471553862
1780625774159531500,12.362531494140624,0.09380874903202056,-1.0336091807499528,0.9109180361047386
1780625774169561600,12.3725615234375,0.20217793833613396,-0.9171282889217138,1.1833756715863943
1780625774179591700,12.382591796875,0.4343500329196453,-0.7210510055482388,1.665722842694819
1780625774189620500,12.392620361328126,0.6598141542971134,-0.5282540590196848,1.1887459664478897
1780625774199650600,12.402650634765624,-0.3023246582180261,-0.24770050310492514,-0.15110066204965114
1780625774209680600,12.4126806640625,-0.6963818437159061,-0.08218786934316158,-0.5913280625700951
1780625774219710500,12.42271044921875,-0.5760474913299083,-0.07637947532534599,-0.051447570903599256
1780625774229739800,12.43273974609375,-0.5168102894634008,-0.4183665741071105,0.014741057536005972
1780625774239769600,12.44276953125,-0.5039379484087229,-0.5758157284006477,-0.2492071082755923
1780625774249799400,12.45279931640625,-0.7521937473088502,-0.6107052554741501,-0.47050329631865023
1780625774259828500,12.462828369140626,-0.8016302706509828,-0.6321197994247079,-0.4877265260592103
1780625774269858600,12.472858642578124,-0.7392097625732421,-0.6657678020045161,-0.6534767679691315
1780625774279888600,12.482888671875,-0.3971574896007776,-0.49661184330433605,-0.9825894798696041
1780625774289917700,12.492917724609375,-0.39658524267077444,-0.31431904739439487,-1.3511004284396766
1780625774299947500,12.502947509765624,-0.38614918885231014,-0.10756459492295979,-1.5431944873958825
1780625774309977600,12.5129775390625,-0.2653098095536232,0.3364011153429746,-1.2946174937173724
1780625774320007700,12.523007568359375,-0.3301934928745031,0.8947577594205737,-0.8873246868103742
1780625774330036700,12.53303662109375,-0.4165636163383722,0.9538429855957626,-1.0891904904574155
1780625774340066600,12.543066650390625,-0.27457506602704523,0.7221008068621159,-3.157982969406247
1780625774350096600,12.5530966796875,-0.1331213532447815,0.7876847474068402,-3.1462972077876326
1780625774360125400,12.56312548828125,-0.042567222094535825,0.42741058904528617,-1.0232917848750949
1780625774370155500,12.573155517578124,0.09261223272383212,0.08165800025016069,0.712301589642465
1780625774380185900,12.583185791015625,0.7683043396323919,0.345606166061759,1.6163140841424464
1780625774390215000,12.59321484375,1.360702661782503,0.6130366210311651,1.3591037021532655
1780625774400245000,12.603244873046876,1.3572352779328822,0.7961991855129599,0.3879688054949045
1780625774410274800,12.61327490234375,1.0208218876302242,0.9451613742291927,-0.46191287036687134
1780625774420304000,12.623303955078125,0.5647358237206935,0.9638605217412114,-0.6595623714931309
