time,seconds_elapsed,z,y,x
1780625761854400000,0.05739990234375,0.10503187775611877,-0.664912760257721,0.33131614327430725
1780625761864429800,0.067429931640625,0.10259588062763214,-0.5155400633811951,0.19296492636203766
1780625761874460000,0.0774599609375,0.11541314423084259,-0.41285282373428345,0.06306605041027069
1780625761884489000,0.087489013671875,0.13336125016212463,-0.3455214500427246,0.030729150399565697
1780625761894519000,0.09751904296875,0.16563530266284943,-0.2842535674571991,0.07562871277332306
1780625761904547800,0.1075478515625,0.18370725214481354,-0.24699567258358002,0.20778807997703552
1780625761914578000,0.117577880859375,0.16470159590244293,-0.31488046050071716,0.35214099287986755
1780625761924608000,0.12760791015625,0.17414569854736328,-0.4441095292568207,0.48165690898895264
1780625761934637000,0.137636962890625,0.1723746955394745,-0.5959590077400208,0.6382140517234802
1780625761944667000,0.1476669921875,0.18656109273433685,-0.7910352945327759,0.790219783782959
1780625761954696000,0.157696044921875,0.37154051661491394,-0.79746013879776,0.9199503660202026
1780625761964726000,0.16772607421875,0.5682885050773621,-0.6308674216270447,1.0781610012054443
1780625761974756000,0.177756103515625,0.6752290725708008,-0.4715145230293274,1.2314903736114502
1780625761984785200,0.18778515625,0.7204700112342834,-0.40754434466362,1.3441027402877808
1780625761994815000,0.19781494140625,0.7447996139526367,-0.3912372589111328,1.4129492044448853
1780625762004844000,0.207843994140625,0.7745487093925476,-0.3485819399356842,1.4521543979644775
1780625762014873900,0.217873779296875,0.816512942314148,-0.2983717918395996,1.4455108642578125
1780625762024904000,0.227904052734375,0.8755820989608765,-0.376540869474411,1.335813045501709
1780625762034933000,0.23793310546875,0.8727903366088867,-0.5865505933761597,1.0938127040863037
1780625762044962800,0.247962890625,0.8369457721710205,-0.8460319638252258,0.7742224931716919
1780625762054992000,0.257991943359375,0.7262586951255798,-1.0095343589782715,0.5560683012008667
1780625762065022000,0.26802197265625,0.6631412506103516,-0.8782090544700623,0.5158604383468628
1780625762075051000,0.278051025390625,0.7653692960739136,-0.6536779403686523,0.5102890729904175
1780625762085080800,0.288080810546875,0.8298234343528748,-0.40642794966697693,0.5775962471961975
1780625762095111000,0.29811083984375,0.7719995379447937,-0.0625523254275322,0.7100977897644043
1780625762105140000,0.308139892578125,0.7356945276260376,0.43087202310562134,0.7509581446647644
1780625762115170000,0.318170166015625,0.6117179989814758,0.9952746629714966,0.5423902869224548
1780625762125199000,0.32819921875,0.39365169405937195,1.2493420839309692,0.0008639294537715614
1780625762135229000,0.33822900390625,0.11632794141769409,1.1072838306427002,-0.5781325697898865
1780625762145259000,0.348259033203125,-0.1264016181230545,0.8139541745185852,-0.8045029044151306
1780625762155288000,0.3582880859375,-0.2681520879268646,0.40981122851371765,-0.6713520288467407
1780625762165318000,0.36831787109375,-0.25656068325042725,-0.13446806371212006,-0.32937443256378174
1780625762175347200,0.37834716796875,-0.061830610036849976,-0.7531848549842834,0.13849902153015137
1780625762185376800,0.388376708984375,0.1796129047870636,-1.1490839719772339,0.5649983882904053
1780625762195406800,0.39840673828125,0.35059821605682373,-1.1821506023406982,0.6957710981369019
1780625762205436000,0.408435791015625,0.44397398829460144,-0.9656411409378052,0.5093420743942261
1780625762215466000,0.418466064453125,0.432758092880249,-0.6282945871353149,0.1014198288321495
1780625762225494800,0.428494873046875,0.30820974707603455,-0.31488683819770813,-0.33694925904273987
1780625762235524900,0.43852490234375,0.15978460013866425,-0.14968429505825043,-0.5128707885742188
1780625762245555000,0.448554931640625,0.06340480595827103,-0.2588331699371338,-0.18881599605083466
1780625762255584000,0.458583984375,0.2855878174304962,-1.1444625854492188,0.5684064626693726
1780625762265614000,0.468614013671875,0.8132066130638123,-2.6626944541931152,1.5473295450210571
1780625762275643000,0.478642822265625,1.3730459213256836,-3.5762460231781006,2.4838995933532715
1780625762285673000,0.4886728515625,1.60402512550354,-3.3298590183258057,2.8469643592834473
1780625762295703000,0.498703125,1.3530216217041016,-2.487980842590332,2.439404249191284
1780625762305732000,0.508732177734375,0.8336671590805054,-1.28829026222229,1.6506307125091553
1780625762315762000,0.518761962890625,0.38155826926231384,-0.29829347133636475,0.7685760259628296
1780625762325791000,0.528791015625,0.23118874430656433,0.10757040232419968,0.0329933688044548
1780625762335820800,0.53882080078125,0.4159221053123474,-0.1702585518360138,-0.26367372274398804
1780625762345851000,0.548850830078125,0.903475284576416,-0.8703261017799377,0.03725282847881317
1780625762355880000,0.5588798828125,1.4949274063110352,-1.44279944896698,0.7974843978881836
1780625762365910500,0.56891064453125,1.8266960382461548,-1.5783528089523315,1.3692394495010376
1780625762375939600,0.578939697265625,1.7360858917236328,-1.9472213983535767,0.7606443166732788
1780625762385969700,0.5889697265625,1.6224195957183838,-2.56467342376709,-1.070713996887207
1780625762395998700,0.598998779296875,1.8257540464401245,-3.0484378337860107,-2.8696696758270264
1780625762406028800,0.60902880859375,2.5577948093414307,-3.579047679901123,-3.694162130355835
1780625762416058600,0.61905859375,3.619351387023926,-3.9049367904663086,-3.3293890953063965
1780625762426087700,0.629087646484375,4.24150276184082,-3.789280891418457,-1.7401565313339233
1780625762436117800,0.63911767578125,3.870575428009033,-3.9738776683807373,0.5404863953590393
1780625762446146800,0.649146728515625,2.8502047061920166,-4.485418319702148,2.51937198638916
1780625762456176600,0.6591767578125,1.9739677906036377,-4.542544841766357,3.4065957069396973
1780625762466206500,0.66920654296875,1.8246078491210938,-3.8535640239715576,2.907299280166626
1780625762476235500,0.679235595703125,2.1443722248077393,-2.35361385345459,1.3647544384002686
1780625762486265600,0.689265625,2.410210132598877,-0.5806133151054382,-0.5627914667129517
1780625762496294700,0.699294677734375,2.283811092376709,0.8603515028953552,-1.9220366477966309
1780625762506324500,0.709324462890625,1.7830462455749512,1.6828882694244385,-2.2003774642944336
1780625762516354600,0.7193544921875,1.2681314945220947,1.7454009056091309,-1.5537395477294922
1780625762526383600,0.729383544921875,1.0434068441390991,1.0503747463226318,-0.0626884177327156
1780625762536413700,0.73941357421875,-0.3713120222091675,-0.11501500010490417,1.2017852067947388
1780625762546442800,0.74944287109375,-1.3595736026763916,-1.9718966484069824,2.121767282485962
1780625762556472600,0.75947265625,-1.7392727136611938,-3.4013559818267822,2.6220290660858154
1780625762566502700,0.769502685546875,-1.668347954750061,-4.284734725952148,2.666754961013794
1780625762576531700,0.77953173828125,-1.3117375373840332,-4.5105695724487305,2.400052547454834
1780625762586561800,0.789561767578125,-0.8571064472198486,-3.6939547061920166,1.6888669729232788
1780625762596590600,0.799590576171875,-0.5879439115524292,-2.4155025482177734,0.7211261987686157
1780625762606620700,0.80962060546875,-0.5880842804908752,-0.8559167981147766,-0.305891215801239
1780625762616650500,0.819650390625,-0.5097716450691223,0.5607445240020752,-1.1869051456451416
1780625762626679600,0.829679443359375,-0.37300819158554077,1.232381820678711,-1.5783565044403076
1780625762636709600,0.839709716796875,-0.3980741500854492,0.1626749336719513,-1.2705472707748413
1780625762646738400,0.849738525390625,-0.14533402025699615,-1.5900053977966309,-0.4058700203895569
1780625762656768500,0.8597685546875,0.4448525607585907,-1.027746558189392,-0.07789693027734756
1780625762666798600,0.869798583984375,0.8542014360427856,-0.7096394896507263,0.06257656216621399
1780625762676827600,0.87982763671875,1.3778351545333862,0.014599449001252651,0.03952557221055031
1780625762686857700,0.889857666015625,1.875023365020752,0.5795581936836243,-0.06178800016641617
1780625762696886500,0.899886474609375,2.2391979694366455,1.2631679773330688,0.02051965519785881
1780625762706916600,0.90991650390625,2.3219809532165527,1.7741504907608032,0.03431855887174606
1780625762716946700,0.91994677734375,1.9299992322921753,1.3627134561538696,-0.5665243864059448
1780625762726975700,0.929975830078125,1.4527617692947388,1.5752962827682495,-1.48149836063385
1780625762737005800,0.940005859375,1.2735379934310913,2.421987295150757,-2.325279474258423
1780625762747034600,0.95003466796875,1.5822449922561646,3.3757004737854004,-2.4160585403442383
1780625762757064700,0.960064697265625,1.8100509643554688,3.929487705230713,-2.1206283569335938
1780625762767094500,0.970094482421875,2.485048532485962,4.972776889801025,-0.7471064329147339
1780625762777123600,0.98012353515625,2.53314208984375,4.755512237548828,-0.4623812139034271
1780625762787153700,0.990153564453125,2.489542245864868,4.58199405670166,-0.5087753534317017
1780625762797182500,1.000182373046875,2.5013856887817383,4.08153772354126,-0.5675204396247864
1780625762807212500,1.010212646484375,2.1776046752929688,3.147901773452759,-0.744563102722168
1780625762817242600,1.02024267578125,1.780760407447815,1.9261807203292847,-0.8500255942344666
1780625762827271700,1.030271728515625,1.5801568031311035,0.42733561992645264,-0.8846368789672852
1780625762837301800,1.0403017578125,1.6506024599075317,-1.2411153316497803,-0.7662534713745117
1780625762847330600,1.05033056640625,1.9856507778167725,-2.615940570831299,-0.6171412467956543
1780625762857360600,1.060360595703125,2.3272905349731445,-3.2177834510803223,-0.656697154045105
1780625762867390700,1.070390625,2.5607106685638428,-3.1266655921936035,-0.7946470379829407
1780625762877419800,1.080419677734375,2.824854850769043,-2.6844117641448975,-0.6456549167633057
1780625762887449900,1.090449951171875,3.0331947803497314,-2.3422937393188477,-0.16836504638195038
1780625762897478700,1.100478759765625,3.080549955368042,-2.158093214035034,0.3820938467979431
1780625762907508700,1.1105087890625,3.0553650856018066,-2.1405029296875,0.7270552515983582
1780625762917538600,1.12053857421875,3.077846050262451,-2.139859199523926,0.7891076803207397
1780625762927567600,1.130567626953125,3.094381809234619,-1.9478503465652466,0.5659886002540588
1780625762937597700,1.14059765625,2.9250686168670654,-1.6361145973205566,0.10650806874036789
1780625762947626500,1.15062646484375,2.6321470737457275,-1.7094697952270508,-0.35249146819114685
1780625762957656600,1.160656494140625,2.337822198867798,-2.062436580657959,-0.574274480342865
1780625762967686700,1.170686767578125,2.165067672729492,-2.461927890777588,-0.5173611044883728
1780625762977715700,1.1807158203125,2.1177666187286377,-2.4928243160247803,-0.4488944411277771
1780625762987745500,1.19074560546875,2.031804084777832,-1.8074195384979248,-0.6147518754005432
1780625762997774600,1.200774658203125,1.8662878274917603,-0.5833728909492493,-0.8639379739761353
1780625763007804700,1.2108046875,1.6809468269348145,0.6628605127334595,-1.0603564977645874
1780625763017834800,1.220834716796875,1.614859700202942,1.488232970237732,-1.0874812602996826
1780625763027863800,1.23086376953125,1.7222228050231934,1.6897202730178833,-0.9696739912033081
1780625763037893600,1.2408935546875,1.897832989692688,0.7696884274482727,-0.618282675743103
1780625763047922700,1.250922607421875,2.2147934436798096,-0.8006138801574707,0.06054217368364334
1780625763057952800,1.260952880859375,2.7587177753448486,-2.462419271469116,0.980372428894043
1780625763067982600,1.270982666015625,3.4458699226379395,-3.784249782562256,2.0000381469726562
1780625763078011600,1.28101171875,3.8810439109802246,-4.371957778930664,3.0113885402679443
1780625763088041500,1.29104150390625,4.239108085632324,-4.174638271331787,3.9233736991882324
1780625763098070500,1.301070556640625,4.606022357940674,-3.5414867401123047,4.581530570983887
1780625763108100600,1.3111005859375,4.7413530349731445,-2.8646535873413086,4.896949768066406
1780625763118130700,1.321130615234375,4.605063438415527,-2.5242502689361572,4.975653648376465
1780625763128159500,1.331159423828125,4.319762229919434,-2.548353433609009,5.082961082458496
1780625763138189600,1.341189453125,3.8775687217712402,-2.5840976238250732,5.275196075439453
1780625763148218600,1.351218505859375,3.2016961574554443,-2.72220516204834,5.5094709396362305
1780625763158248700,1.361248779296875,2.226144790649414,-2.8753066062927246,5.721396446228027
1780625763168278800,1.37127880859375,1.0851303339004517,-2.648592233657837,5.755951881408691
1780625763178307600,1.3813076171875,-0.21620553731918335,-1.6572734117507935,5.286594390869141
1780625763188337700,1.391337646484375,-1.51303231716156,-0.45085692405700684,4.203300476074219
1780625763198366700,1.40136669921875,-2.7237889766693115,0.5746427774429321,2.6057872772216797
1780625763208396800,1.411396728515625,-3.642653703689575,0.9183306694030762,0.7570309638977051
1780625763218426600,1.421426513671875,-4.115941047668457,0.9812824130058289,-0.9979788661003113
1780625763228455400,1.431455322265625,-4.286369800567627,0.721846342086792,-2.4415924549102783
1780625763238485500,1.441485595703125,-4.209899425506592,0.7145426273345947,-3.1852405071258545
1780625763248514600,1.4515146484375,-4.098384380340576,0.8748385310173035,-3.387258291244507
1780625763258544600,1.461544677734375,-4.158635139465332,0.6893523335456848,-3.4851467609405518
1780625763268574700,1.47157470703125,-3.7894554138183594,-0.13428696990013123,-3.1767706871032715
1780625763278603500,1.481603515625,-3.4792377948760986,-1.240775227546692,-2.388016700744629
1780625763288633600,1.491633544921875,-3.2692863941192627,-2.3430533409118652,-1.8439644575119019
1780625763298662700,1.50166259765625,-2.986462116241455,-3.2269339561462402,-1.1516907215118408
1780625763308692700,1.511692626953125,-2.460792064666748,-4.006718158721924,-0.24954192340373993
1780625763318722800,1.521722900390625,-1.9718233346939087,-3.030233860015869,-0.8294638991355896
1780625763328751600,1.531751708984375,-1.273728370666504,-1.582281231880188,-1.1472114324569702
1780625763338781700,1.54178173828125,-1.1809459924697876,-0.35165125131607056,-2.4081640243530273
1780625763348811500,1.5518115234375,-1.1790120601654053,0.9610083103179932,-3.4583394527435303
1780625763358840600,1.561840576171875,-1.3612949848175049,1.1984120607376099,-3.711859941482544
1780625763368870400,1.571870361328125,-1.392586350440979,1.00269615650177,-3.4516119956970215
1780625763378899500,1.5818994140625,-1.6456249952316284,0.7330039143562317,-3.290738821029663
1780625763388929500,1.591929443359375,-1.240142822265625,1.0633306503295898,-2.8243560791015625
1780625763398959600,1.601959716796875,-0.7567214965820312,1.1950751543045044,-2.9801712036132812
1780625763408988700,1.61198876953125,-0.2467125803232193,1.4701871871948242,-3.390439748764038
1780625763419018500,1.6220185546875,0.21706679463386536,1.8681646585464478,-4.023457050323486
1780625763429047600,1.632047607421875,0.3684177100658417,2.16410231590271,-4.655269145965576
1780625763439077600,1.64207763671875,0.31197014451026917,1.9200576543807983,-4.98813533782959
1780625763449107700,1.652107666015625,0.4430101811885834,0.7477540969848633,-4.276487350463867
1780625763459136500,1.662136474609375,0.6373900771141052,-0.001546763931401074,-2.6549177169799805
1780625763469166600,1.67216650390625,1.245848298072815,0.19245679676532745,-2.024571418762207
1780625763479195600,1.682195556640625,1.1841915845870972,-0.35887959599494934,-1.6845873594284058
1780625763489225700,1.692225830078125,0.9802499413490295,-0.4783567190170288,-1.1361199617385864
1780625763499255600,1.702255615234375,0.8574094772338867,-0.07733606547117233,-0.878602921962738
1780625763509284600,1.71228466796875,0.7846852540969849,0.40551286935806274,-1.1280215978622437
1780625763519314400,1.722314453125,0.8943198323249817,0.2471163123846054,-1.4397858381271362
1780625763529344500,1.732344482421875,1.3337489366531372,0.1979181468486786,-1.5991626977920532
1780625763539373600,1.74237353515625,1.8604563474655151,0.018143050372600555,-1.5393345355987549
1780625763549403600,1.752403564453125,2.1648128032684326,-0.9094908237457275,-1.170830488204956
1780625763559432400,1.762432373046875,2.586695909500122,-1.1009849309921265,-0.800814151763916
1780625763569462500,1.772462646484375,2.6990551948547363,-0.11500488221645355,-0.6854188442230225
1780625763579492600,1.78249267578125,2.8361096382141113,0.9703370928764343,-1.105236291885376
1780625763589521700,1.792521728515625,2.777268409729004,0.7502217888832092,-1.7684108018875122
1780625763599551700,1.8025517578125,2.9614012241363525,0.47375398874282837,-2.418447971343994
1780625763609580500,1.81258056640625,3.3944525718688965,0.6004173755645752,-2.887669801712036
1780625763619610600,1.822610595703125,3.9339301586151123,0.7597018480300903,-3.1461074352264404
1780625763629640700,1.832640625,4.4081010818481445,0.7229565978050232,-3.2493956089019775
1780625763639669800,1.842669677734375,4.970185279846191,0.47097229957580566,-3.169485330581665
1780625763649699600,1.852699462890625,5.781184196472168,-0.12493500858545303,-2.878925323486328
1780625763659729400,1.8627294921875,6.629083156585693,-0.8256606459617615,-2.4497451782226562
1780625763669758500,1.872758544921875,6.466963768005371,-0.5689550638198853,-1.7226617336273193
1780625763679788500,1.88278857421875,2.8305399417877197,1.9221439361572266,0.1309249997138977
1780625763689817600,1.892817626953125,0.4886133670806885,1.0825142860412598,0.9636570811271667
1780625763699847700,1.90284765625,-0.04334214702248573,-0.18209710717201233,0.955485463142395
1780625763709877500,1.91287744140625,0.020367855206131935,-0.15129470825195312,0.7393007278442383
1780625763719906600,1.922906494140625,-0.003022687742486596,0.5694373846054077,0.6709256172180176
1780625763729936600,1.9329365234375,-0.028872927650809288,1.161927580833435,0.7641472220420837
1780625763739965700,1.942965576171875,0.060446031391620636,1.479019045829773,0.8952620625495911
1780625763749995800,1.952995849609375,0.3440234065055847,1.3278363943099976,0.8689327239990234
1780625763760025600,1.963025634765625,0.630690336227417,0.8117956519126892,0.5549801588058472
1780625763770054700,1.9730546875,0.7308630347251892,0.4546050429344177,0.10223875194787979
1780625763780084700,1.983084716796875,0.8763693571090698,0.23369957506656647,-0.3235096335411072
1780625763790114600,1.993114501953125,1.360247015953064,0.4396415650844574,-0.709962010383606
1780625763800143400,2.003143310546875,1.9463680982589722,1.5300443172454834,-1.2016286849975586
1780625763810173400,2.01317333984375,2.1175479888916016,2.0482335090637207,-1.5382716655731201
1780625763820202500,2.023202392578125,2.141075611114502,1.7599859237670898,-1.6553490161895752
1780625763830232600,2.033232666015625,2.2143969535827637,1.445920705795288,-1.69594144821167
1780625763840262700,2.0432626953125,2.337716817855835,1.0762736797332764,-1.6213761568069458
1780625763850291500,2.05329150390625,2.4500386714935303,0.6668003797531128,-1.44729483127594
1780625763860321500,2.063321533203125,2.4959895610809326,0.01780669391155243,-1.235673189163208
1780625763870350600,2.0733505859375,2.432778835296631,-0.8023318648338318,-0.9740197062492371
1780625763880380700,2.083380615234375,2.3127148151397705,-1.784826636314392,-0.6316416263580322
1780625763890410800,2.09341064453125,2.1995770931243896,-2.874443531036377,-0.34151312708854675
1780625763900439600,2.103439453125,2.2166881561279297,-3.636507034301758,-0.03292066603899002
1780625763910469600,2.1134697265625,2.441451072692871,-3.5835444927215576,0.2763836681842804
1780625763920499500,2.12349951171875,2.7230453491210938,-3.1564226150512695,0.5205736756324768
1780625763930528800,2.13352880859375,2.9639899730682373,-2.706860065460205,0.798944354057312
1780625763940558600,2.14355859375,2.8657896518707275,-2.1842081546783447,1.2428672313690186
1780625763950587400,2.15358740234375,2.5195157527923584,-1.4527982473373413,1.7748045921325684
1780625763960617500,2.163617431640625,2.184823989868164,-0.7795823216438293,2.3411428928375244
1780625763970647600,2.1736474609375,1.99240243434906,-0.6441728472709656,2.7254607677459717
1780625763980676600,2.183676513671875,1.542251706123352,-0.8299829363822937,2.8201892375946045
1780625763990706700,2.193706787109375,0.9439353346824646,-0.9444828629493713,2.615985631942749
1780625764000736800,2.20373681640625,0.3344693183898926,-1.115679144859314,2.213538408279419
1780625764010765600,2.213765625,-0.1615297794342041,-1.2573553323745728,1.707301378250122
1780625764020795600,2.223795654296875,-0.4139646887779236,-1.4439510107040405,1.0828460454940796
1780625764030824700,2.23382470703125,-0.3591744005680084,-1.4109749794006348,0.47308605909347534
1780625764040854800,2.243854736328125,-0.04196103289723396,-1.0182743072509766,0.10535118728876114
1780625764050884600,2.253884521484375,0.547006368637085,-0.44255346059799194,0.1759321540594101
1780625764060913700,2.26391357421875,1.3531692028045654,0.2923721969127655,0.7299250364303589
1780625764070943500,2.273943603515625,2.0759899616241455,1.0434653759002686,1.4534600973129272
1780625764080972500,2.28397265625,2.3538248538970947,1.5780318975448608,1.8666253089904785
1780625764091002600,2.294002685546875,2.4028499126434326,1.914046049118042,1.769841194152832
1780625764101032400,2.304032470703125,2.2031338214874268,2.328066349029541,1.1804310083389282
1780625764111061500,2.3140615234375,1.6554012298583984,2.3077309131622314,0.3551575541496277
1780625764121091600,2.324091552734375,1.0093319416046143,2.217945098876953,-0.040107738226652145
1780625764131121700,2.33412158203125,0.3980634808540344,2.0814921855926514,-0.1006094291806221
1780625764141150700,2.344150634765625,-0.17460882663726807,1.553363561630249,-0.23358319699764252
1780625764151180500,2.3541806640625,-0.5094081163406372,0.5379116535186768,-0.7010443806648254
1780625764161209600,2.364209716796875,-0.5502410531044006,-0.34551265835762024,-1.0431684255599976
1780625764171239700,2.37423974609375,-0.32733577489852905,-0.7247289419174194,-0.880466103553772
1780625764181269800,2.384269775390625,-0.041606299579143524,-0.7545427680015564,-0.5847755670547485
1780625764191298600,2.394298583984375,0.16637299954891205,-0.5358426570892334,-0.43338391184806824
1780625764201328600,2.40432861328125,0.25974342226982117,-0.24785161018371582,-0.45712095499038696
1780625764211358500,2.4143583984375,0.38245657086372375,0.0294329896569252,-0.557465672492981
1780625764221387500,2.424387451171875,0.5744345188140869,0.21069972217082977,-0.6871206164360046
1780625764231417600,2.43441748046875,0.873437225818634,0.22809042036533356,-0.8281344175338745
1780625764241446400,2.4444462890625,1.1822762489318848,0.04727590084075928,-1.0091931819915771
1780625764251476500,2.4544765625,1.4123685359954834,-0.2947466969490051,-1.176803469657898
1780625764261506600,2.464506591796875,1.570054054260254,-0.6643412709236145,-1.2898828983306885
1780625764271535600,2.47453564453125,1.710483431816101,-0.8394227623939514,-1.3261809349060059
1780625764281565700,2.484565673828125,1.8141762018203735,-0.7851707339286804,-1.282157063484192
1780625764291595800,2.494595703125,1.9288148880004883,-0.44970110058784485,-1.2209964990615845
1780625764301624600,2.50462451171875,1.923441767692566,-0.06919132173061371,-1.2840391397476196
1780625764311654700,2.514654541015625,1.8113540410995483,0.24714107811450958,-1.445244550704956
1780625764321683700,2.52468359375,1.6448071002960205,0.4975264370441437,-1.5956138372421265
1780625764331713800,2.5347138671875,1.4629462957382202,0.6551072597503662,-1.7380952835083008
1780625764341743600,2.54474365234375,1.1944307088851929,0.7317514419555664,-1.989875316619873
1780625764351772700,2.554772705078125,0.9081248641014099,0.8315765857696533,-2.3277125358581543
1780625764361802500,2.564802490234375,0.6037173271179199,0.5965587496757507,-2.6086230278015137
1780625764371832300,2.574832275390625,0.35027384757995605,-0.040530916303396225,-2.7873384952545166
1780625764381861400,2.584861328125,0.15119804441928864,-0.9886711239814758,-2.900233268737793
1780625764391891500,2.594891357421875,0.09729672223329544,-1.8476260900497437,-2.8653745651245117
1780625764401920500,2.60492041015625,0.27255481481552124,-2.120893955230713,-2.6197545528411865
1780625764411950600,2.61495068359375,0.528102457523346,-1.7639071941375732,-2.208707332611084
1780625764421980400,2.62498046875,0.6997706294059753,-1.2492156028747559,-1.7729566097259521
1780625764432009500,2.635009521484375,0.7865598201751709,-1.0113426446914673,-1.452039361000061
1780625764442039600,2.64503955078125,0.8554850816726685,-1.1374781131744385,-1.2716336250305176
1780625764452069600,2.655069580078125,0.9819865822792053,-1.3928366899490356,-1.1415096521377563
1780625764462098400,2.665098388671875,1.1584206819534302,-1.603810429573059,-1.0113368034362793
1780625764472128500,2.67512841796875,1.3809771537780762,-1.7071863412857056,-0.8725956678390503
1780625764482157600,2.685157470703125,1.641610026359558,-1.6596564054489136,-0.6749097108840942
1780625764492187400,2.6951875,1.9385054111480713,-1.4375221729278564,-0.4007663130760193
1780625764502217500,2.705217529296875,2.2615408897399902,-1.097593903541565,-0.04268088564276695
1780625764512246300,2.715246337890625,2.544609308242798,-0.7037437558174133,0.3344906270503998
1780625764522276400,2.7252763671875,2.716010093688965,-0.30817142128944397,0.6329532265663147
1780625764532306400,2.735306396484375,2.7008419036865234,0.16982179880142212,0.8272327184677124
1780625764542335500,2.74533544921875,2.0738141536712646,0.6774002909660339,0.9857009053230286
1780625764552365600,2.755365478515625,1.1938146352767944,1.0515118837356567,1.0577510595321655
1780625764562394400,2.765394287109375,0.6409744024276733,0.8493862152099609,0.9536388516426086
1780625764572424400,2.775424560546875,0.28604772686958313,0.257436066865921,0.611939549446106
1780625764582454500,2.78545458984375,-0.03074619546532631,-0.36635348200798035,0.17020635306835175
1780625764592483600,2.795483642578125,-0.24352078139781952,-0.6613257527351379,-0.10830783098936081
1780625764602513700,2.805513671875,-0.34273257851600647,-0.7946827411651611,-0.1793210208415985
1780625764612543500,2.81554345703125,-0.33362191915512085,-0.9555643200874329,-0.12197171151638031
1780625764622572500,2.825572509765625,-0.26066967844963074,-1.1273208856582642,-0.018494589254260063
1780625764632602400,2.835602294921875,-0.24262861907482147,-1.2266725301742554,0.059852682054042816
1780625764642632400,2.845632568359375,-0.27759405970573425,-1.2358965873718262,0.0955832451581955
1780625764652661500,2.85566162109375,-0.24728116393089294,-1.0689412355422974,0.1647106558084488
1780625764662691300,2.86569140625,-0.16167092323303223,-0.6843439936637878,0.29956647753715515
1780625764672720400,2.875720458984375,-0.1677549183368683,-0.2299133539199829,0.3727796971797943
1780625764682750500,2.88575048828125,-0.24684546887874603,-0.03747786581516266,0.2528359889984131
1780625764692780500,2.895780517578125,-0.273724228143692,-0.11818203330039978,0.05462329834699631
1780625764702809600,2.9058095703125,-0.2933399975299835,-0.29326704144477844,-0.10916589945554733
1780625764712839400,2.91583935546875,-0.33687204122543335,-0.48080870509147644,-0.1668771356344223
1780625764722869500,2.925869384765625,-0.43325290083885193,-0.630159854888916,-0.09276535362005234
1780625764732898600,2.935898681640625,-0.5486292839050293,-0.6708981990814209,0.0869668573141098
1780625764742928400,2.945928466796875,-0.6782517433166504,-0.6389464139938354,0.3214784264564514
1780625764752957700,2.955957763671875,-0.7374255657196045,-0.5441309213638306,0.5794519186019897
1780625764762987300,2.9659873046875,-0.7063989639282227,-0.453648179769516,0.7839909195899963
1780625764773017300,2.976017333984375,-0.6050283908843994,-0.41326001286506653,0.9014422297477722
1780625764783046400,2.98604638671875,-0.4981538653373718,-0.3950381278991699,0.9061195254325867
1780625764793076500,2.996076416015625,-0.4136807918548584,-0.33953893184661865,0.7952553033828735
1780625764803106600,3.0061064453125,-0.3514222204685211,-0.2139841914176941,0.6085584163665771
1780625764813135400,3.01613525390625,-0.3117717504501343,-0.04391685873270035,0.42706769704818726
1780625764823165400,3.02616552734375,-0.28839343786239624,0.12065025418996811,0.28989601135253906
1780625764833194500,3.036194580078125,-0.25378432869911194,0.28234007954597473,0.21357379853725433
1780625764843224600,3.046224609375,-0.20090781152248383,0.381771057844162,0.19282084703445435
1780625764853254700,3.056254638671875,-0.17984700202941895,0.379004567861557,0.21528302133083344
1780625764863283500,3.066283447265625,-0.2160140573978424,0.28745895624160767,0.253592848777771
1780625764873313500,3.0763134765625,-0.24882392585277557,0.1940288543701172,0.3128974437713623
1780625764883343400,3.08634326171875,-0.2387918084859848,0.10948628187179565,0.3619278371334076
1780625764893372400,3.096372314453125,-0.18201640248298645,0.049549177289009094,0.37429770827293396
1780625764903402500,3.106402587890625,-0.13049009442329407,0.02642415091395378,0.3357180953025818
1780625764913431300,3.116431396484375,-0.12858328223228455,0.09676489233970642,0.2740326225757599
1780625764923461400,3.12646142578125,-0.17704588174819946,0.1554015725851059,0.17046548426151276
1780625764933491500,3.136491455078125,-0.2348705679178238,0.12234854698181152,0.04339461028575897
1780625764943520500,3.1465205078125,-0.2652660310268402,0.003294063964858651,-0.04083983972668648
1780625764953550600,3.156550537109375,-0.24636130034923553,-0.07945860922336578,-0.06232729181647301
1780625764963580400,3.166580322265625,-0.2251122146844864,-0.12044385820627213,-0.033799510449171066
1780625764973609500,3.176609375,-0.20051099359989166,-0.10223449021577835,0.04863997548818588
1780625764983639600,3.1866396484375,-0.18690010905265808,0.0008974852971732616,0.16766010224819183
1780625764993668600,3.196668701171875,-0.15041746199131012,0.13633280992507935,0.2872520089149475
1780625765003698700,3.20669873046875,-0.08806727081537247,0.2366495579481125,0.3775305151939392
1780625765013728300,3.216728271484375,-0.03175872936844826,0.24584731459617615,0.3986099660396576
1780625765023757600,3.226757568359375,-0.014575480483472347,0.17655186355113983,0.3508293926715851
1780625765033787400,3.236787353515625,0.004834702704101801,0.12019351869821548,0.2835630178451538
1780625765043817500,3.2468173828125,0.025015870109200478,0.11445840448141098,0.23911938071250916
1780625765053846300,3.25684619140625,0.029739785939455032,0.10808439552783966,0.21665853261947632
1780625765063876400,3.26687646484375,0.022877885028719902,0.06812925636768341,0.20116452872753143
1780625765073906400,3.276906494140625,0.02171541564166546,0.005844839382916689,0.1821458339691162
1780625765083935500,3.286935546875,0.04706471413373947,-0.05070525407791138,0.17317630350589752
1780625765093965600,3.296965576171875,0.09744133800268173,-0.11207646876573563,0.17111928761005402
1780625765103994400,3.306994384765625,0.16333593428134918,-0.17368417978286743,0.16275057196617126
1780625765114024400,3.3170244140625,0.20561787486076355,-0.2176590859889984,0.1549333930015564
1780625765124054500,3.327054443359375,0.21203316748142242,-0.25818440318107605,0.13420547544956207
1780625765134083600,3.33708349609375,0.2027248740196228,-0.27075958251953125,0.1186949610710144
1780625765144113700,3.34711376953125,0.1943708062171936,-0.2677597999572754,0.13101181387901306
1780625765154143500,3.3571435546875,0.0758361741900444,-0.31531134247779846,0.14014725387096405
1780625765164172300,3.36717236328125,0.02779221720993519,-0.4075973331928253,0.10677624493837357
1780625765174202400,3.377202392578125,0.15135596692562103,-0.35635945200920105,0.1750415861606598
1780625765184232400,3.387232421875,0.16386616230010986,-0.44504696130752563,0.18206141889095306
1780625765194261500,3.397261474609375,0.1304059475660324,-0.45357200503349304,0.14792342483997345
1780625765204291600,3.40729150390625,0.07765831053256989,-0.41499054431915283,0.11151187866926193
1780625765214320400,3.4173203125,0.010750382207334042,-0.33480194211006165,0.07090133428573608
1780625765224350500,3.4273505859375,-0.0462934635579586,-0.1970350444316864,0.057364221662282944
1780625765234380500,3.437380615234375,-0.06606397032737732,-0.08193375170230865,0.09372968971729279
1780625765244409600,3.44740966796875,-0.044495828449726105,-0.013826066628098488,0.1576641947031021
1780625765254439400,3.457439453125,-0.05252552404999733,0.007955128327012062,0.1393837183713913
1780625765264469500,3.467469482421875,-0.0770774707198143,-0.03760836273431778,-0.011188738979399204
1780625765274498600,3.47749853515625,-0.04121481254696846,-0.062490276992321014,-0.14127270877361298
1780625765284528400,3.4875283203125,0.04717230424284935,0.014598383568227291,-0.15605297684669495
1780625765294557700,3.4975576171875,0.12711401283740997,0.08633595705032349,-0.10201851278543472
1780625765304587300,3.507587158203125,0.15739655494689941,0.13350985944271088,-0.007239803206175566
1780625765314617300,3.517617431640625,0.17475982010364532,0.16065040230751038,0.09958943724632263
1780625765324646400,3.527646484375,0.24005042016506195,0.27889102697372437,0.2421116977930069
1780625765334676500,3.537676513671875,0.2963826656341553,0.4131183326244354,0.36656999588012695
1780625765344706600,3.54770654296875,0.34609028697013855,0.47858893871307373,0.40370991826057434
1780625765354735400,3.5577353515625,0.38397216796875,0.4838431179523468,0.36808162927627563
1780625765364765200,3.56776513671875,0.3899317979812622,0.4410482347011566,0.2988780438899994
1780625765374795300,3.577795166015625,0.3902095556259155,0.4521171450614929,0.24863724410533905
1780625765384824300,3.58782421875,0.397085577249527,0.4812696874141693,0.21331679821014404
1780625765394854400,3.5978544921875,0.3993639051914215,0.5296105742454529,0.19495724141597748
1780625765404883200,3.60788330078125,0.40638986229896545,0.5847944617271423,0.19131030142307281
1780625765414913300,3.617913330078125,0.42215895652770996,0.5997449159622192,0.1793878674507141
1780625765424943000,3.627943115234375,0.4420032501220703,0.6250481605529785,0.16030125319957733
1780625765434972200,3.63797216796875,0.47056058049201965,0.6898646950721741,0.13707369565963745
1780625765445002200,3.648002197265625,0.5112731456756592,0.7243686318397522,0.10079878568649292
1780625765455032000,3.658031982421875,0.570459246635437,0.7866532802581787,0.09576646983623505
1780625765465061000,3.66806103515625,0.605437159538269,0.7585422992706299,0.04482286423444748
1780625765475091200,3.67809130859375,0.587130606174469,0.7096315026283264,-0.04211975634098053
1780625765485121300,3.688121337890625,0.5272142887115479,0.6804863810539246,-0.09633159637451172
1780625765495150300,3.698150390625,0.4764815866947174,0.5157352685928345,-0.17032167315483093
1780625765505180200,3.70818017578125,0.3967561423778534,0.06004229933023453,-0.3953436017036438
1780625765515209200,3.718209228515625,0.43880292773246765,-0.45901578664779663,-0.6479138135910034
1780625765525239300,3.7282392578125,0.4761042296886444,-0.2870056629180908,-0.5670884847640991
1780625765535269400,3.738269287109375,0.4381307363510132,-0.1491663157939911,-0.47068068385124207
1780625765545298400,3.74829833984375,0.41703665256500244,-0.28789544105529785,-0.3838834762573242
1780625765555328300,3.758328369140625,0.4940344989299774,-0.5130233764648438,-0.2432083934545517
1780625765565358000,3.768358154296875,0.5816410183906555,-0.6794269680976868,-0.21996378898620605
1780625765575387100,3.77838720703125,0.8188045620918274,-0.637942910194397,-0.43932196497917175
1780625765585417200,3.788417236328125,1.1892380714416504,-0.07262440025806427,-0.5678879618644714
1780625765595446000,3.798446044921875,1.220971703529358,0.2845904529094696,-0.8544105291366577
1780625765605476000,3.80847607421875,1.066445231437683,0.20670710504055023,-1.222664713859558
1780625765615506200,3.818506103515625,0.853502631187439,-0.13017398118972778,-1.4472919702529907
1780625765625535200,3.82853515625,0.6719751954078674,-0.260804682970047,-1.4305685758590698
1780625765635565300,3.8385654296875,0.47954341769218445,-0.375823438167572,-1.3823614120483398
1780625765645595400,3.848595458984375,0.4063432514667511,-0.4609614908695221,-1.3644343614578247
1780625765655624200,3.858624267578125,0.47114914655685425,-0.4352417588233948,-1.3915191888809204
1780625765665654300,3.868654296875,0.5885056257247925,-0.31975695490837097,-1.4485104084014893
1780625765675684000,3.87868408203125,0.6655197143554688,-0.1553829312324524,-1.521174669265747
1780625765685713400,3.88871337890625,0.7151575684547424,-0.0034700988326221704,-1.6063162088394165
1780625765695743200,3.8987431640625,0.635104775428772,0.07704392075538635,-1.7000224590301514
1780625765705773000,3.90877294921875,0.4555398225784302,0.06251557916402817,-1.728280782699585
1780625765715802000,3.918802001953125,0.3166953921318054,-0.028967203572392464,-1.6209644079208374
1780625765725832200,3.928832275390625,0.2169882357120514,-0.0783454030752182,-1.41441011428833
1780625765735861200,3.938861328125,0.15225638449192047,-0.08491808921098709,-1.1684120893478394
1780625765745891300,3.948891357421875,0.1206774190068245,-0.07746203243732452,-0.9069357514381409
1780625765755921200,3.958921142578125,0.12310381978750229,-0.08935943990945816,-0.6413128972053528
1780625765765950200,3.9689501953125,0.15698722004890442,-0.13961568474769592,-0.41416895389556885
1780625765775980300,3.978980224609375,0.2052743285894394,-0.19918100535869598,-0.2636873126029968
1780625765786010400,3.98901025390625,0.23908235132694244,-0.17008012533187866,-0.2117157131433487
1780625765796039200,3.9990390625,0.2508351504802704,-0.08129964768886566,-0.22477053105831146
1780625765806069200,4.0090693359375,0.2214255928993225,0.06552547961473465,-0.2167661339044571
1780625765816098300,4.019098388671875,0.17710287868976593,0.23155440390110016,-0.15244919061660767
1780625765826128100,4.029128173828125,0.1273779273033142,0.30966731905937195,-0.04056473821401596
1780625765836158200,4.039158203125,0.12226838618516922,0.2757919132709503,0.10388512164354324
1780625765846187000,4.04918701171875,0.15359781682491302,0.15643355250358582,0.2604568898677826
1780625765856217000,4.059217041015625,0.19539107382297516,0.05355217307806015,0.3949979245662689
1780625765866247200,4.0692470703125,0.17840808629989624,0.05465978384017944,0.46985912322998047
1780625765876276200,4.079276123046875,0.15198686718940735,0.13374660909175873,0.5128327012062073
1780625765886306300,4.089306396484375,0.12136930227279663,0.21558316051959991,0.5332980155944824
1780625765896336400,4.09933642578125,0.09486658871173859,0.2552639842033386,0.5417921543121338
1780625765906365200,4.109365234375,0.07644151151180267,0.23477256298065186,0.548429012298584
1780625765916395300,4.119395263671875,0.07126539200544357,0.20404021441936493,0.5621504187583923
1780625765926425300,4.12942529296875,0.06136295944452286,0.20598219335079193,0.5854772925376892
1780625765936454400,4.139454345703125,0.03256593272089958,0.2272065281867981,0.6162149906158447
1780625765946484200,4.149484130859375,0.0049620019271969795,0.22783049941062927,0.6408907771110535
1780625765956513300,4.15951318359375,-0.019964653998613358,0.19982948899269104,0.6560057997703552
1780625765966543000,4.169543212890625,-0.038185734301805496,0.17281624674797058,0.6820499300956726
1780625765976573200,4.1795732421875,-0.046477220952510834,0.16138648986816406,0.6903523206710815
1780625765986602200,4.189602294921875,-0.023332219570875168,0.14727360010147095,0.6600463390350342
1780625765996632300,4.19963232421875,0.022977221757173538,0.1351141482591629,0.5779253840446472
1780625766006662100,4.209662109375,0.06830635666847229,0.14179441332817078,0.4472808241844177
1780625766016691200,4.219691162109375,0.07990175485610962,0.16593730449676514,0.28899824619293213
1780625766026721300,4.22972119140625,0.06738223880529404,0.20547433197498322,0.13936933875083923
1780625766036751400,4.23975146484375,0.05560360848903656,0.2696716785430908,0.018270084634423256
1780625766046780200,4.2497802734375,0.05163842812180519,0.2848770022392273,-0.06902327388525009
1780625766056810200,4.259810302734375,0.05938130244612694,0.2032838761806488,-0.12619549036026
1780625766066839300,4.26983935546875,0.0894145667552948,0.10394823551177979,-0.16911977529525757
1780625766076869400,4.279869384765625,0.1279347985982895,0.08129032701253891,-0.2178870588541031
1780625766086899200,4.289899169921875,0.15714940428733826,0.09881871938705444,-0.27158623933792114
1780625766096928000,4.299927978515625,0.19023466110229492,0.123405821621418,-0.31241729855537415
1780625766106958000,4.3099580078125,0.21935392916202545,0.14263518154621124,-0.3537881672382355
1780625766116988200,4.31998828125,0.2508074641227722,0.14387275278568268,-0.38760045170783997
1780625766127017200,4.330017333984375,0.2703670561313629,0.13867318630218506,-0.4140232801437378
1780625766137047300,4.34004736328125,0.2758113443851471,0.0979984700679779,-0.4366670548915863
1780625766147077400,4.350077392578125,0.26434963941574097,0.041553303599357605,-0.46866893768310547
1780625766157106200,4.360106201171875,0.2442544847726822,-0.0008591357618570328,-0.5008969306945801
1780625766167136300,4.37013623046875,0.21427100896835327,0.005374525208026171,-0.5136297345161438
1780625766177165300,4.380165283203125,0.17899371683597565,0.05825105682015419,-0.47733381390571594
1780625766187195400,4.3901953125,0.14612525701522827,0.1320672184228897,-0.37926530838012695
1780625766197225200,4.40022509765625,0.12679389119148254,0.25124821066856384,-0.2697467803955078
1780625766207254300,4.410254150390625,0.14117923378944397,0.3798868656158447,-0.17155471444129944
1780625766217284000,4.4202841796875,0.18496878445148468,0.4156408905982971,-0.10139692574739456
1780625766227314200,4.430314208984375,0.24067147076129913,0.3907291293144226,-0.06703788787126541
1780625766237343200,4.44034326171875,0.3096635937690735,0.3559911251068115,-0.09029021859169006
1780625766247373000,4.450373046875,0.38265761733055115,0.3478375971317291,-0.15733397006988525
1780625766257403100,4.460403076171875,0.44588959217071533,0.3630349338054657,-0.2620236277580261
1780625766267432200,4.47043212890625,0.4875805974006653,0.40401458740234375,-0.4047594666481018
1780625766277462300,4.480462158203125,0.49985429644584656,0.4237595200538635,-0.5928881168365479
1780625766287491300,4.4904912109375,0.49036651849746704,0.44745367765426636,-0.8180751204490662
1780625766297521200,4.500521240234375,0.46338921785354614,0.5066392421722412,-1.0543574094772339
1780625766307551200,4.51055126953125,0.4260048270225525,0.577643096446991,-1.222454309463501
1780625766317580300,4.520580322265625,0.3813452124595642,0.6259642839431763,-1.2741636037826538
1780625766327610400,4.5306103515625,0.3365023732185364,0.6178605556488037,-1.1941230297088623
1780625766337640200,4.54064013671875,0.3140561878681183,0.5717993378639221,-0.9969255924224854
1780625766347669200,4.550669189453125,0.31074297428131104,0.45807090401649475,-0.7411851286888123
1780625766357699000,4.560698974609375,0.3197114169597626,0.3215268850326538,-0.5231090188026428
1780625766367730000,4.57072998046875,0.29346010088920593,0.1554819941520691,-0.4017349183559418
1780625766377758700,4.5807587890625,0.22081440687179565,0.0021201425697654486,-0.3695144057273865
1780625766387788800,4.590788818359375,0.12146571278572083,0.014882276766002178,-0.40451952815055847
1780625766397819000,4.60081884765625,0.016318252310156822,0.13820047676563263,-0.46035483479499817
1780625766407848000,4.610847900390625,-0.056236907839775085,0.22525042295455933,-0.48142948746681213
1780625766417878000,4.6208779296875,-0.09096293151378632,0.25400111079216003,-0.45318612456321716
1780625766427906800,4.63090673828125,-0.07760903984308243,0.2194034606218338,-0.4222244918346405
1780625766437937000,4.64093701171875,-0.007795604877173901,0.1694454848766327,-0.42842698097229004
1780625766447966700,4.650966796875,0.07065153121948242,0.17752978205680847,-0.47173798084259033
1780625766457995800,4.660995849609375,0.15232162177562714,0.19728776812553406,-0.5359489321708679
1780625766468025900,4.67102587890625,0.18845327198505402,0.19252391159534454,-0.6184350252151489
1780625766478056000,4.681055908203125,0.16233883798122406,0.20465300977230072,-0.7368772029876709
1780625766488084700,4.691084716796875,0.0868733823299408,0.23509933054447174,-0.8902063369750977
1780625766498114800,4.70111474609375,0.006943926215171814,0.2782614529132843,-1.0304244756698608
1780625766508145000,4.711144775390625,-0.016581906005740166,0.3594686985015869,-1.104256272315979
1780625766518174000,4.721174072265625,-0.0213063545525074,0.42603999376296997,-1.0676621198654175
1780625766528204000,4.7312041015625,0.01350755337625742,0.47663044929504395,-0.9290075302124023
1780625766538232800,4.74123291015625,0.0846906527876854,0.45161619782447815,-0.6933912634849548
1780625766548263000,4.751262939453125,0.1403411328792572,0.39743658900260925,-0.44283920526504517
1780625766558293000,4.76129296875,0.1741182655096054,0.3847532570362091,-0.22707709670066833
1780625766568322000,4.771322021484375,0.19357027113437653,0.39097681641578674,-0.0593717135488987
1780625766578351600,4.7813515625,0.17755773663520813,0.42209291458129883,0.020250942558050156
1780625766588381700,4.791381591796875,0.1265968233346939,0.4272565245628357,0.01134160440415144
1780625766598410800,4.80141064453125,0.06469457596540451,0.38336601853370667,-0.036317795515060425
1780625766608440800,4.81144091796875,0.01116050872951746,0.3365151584148407,-0.10267231613397598
1780625766618471000,4.821470947265625,-0.02166588045656681,0.28995460271835327,-0.1555541753768921
1780625766628499700,4.831499755859375,-0.038719963282346725,0.25486159324645996,-0.17514784634113312
1780625766638529800,4.84152978515625,-0.05157744139432907,0.2158830314874649,-0.16735383868217468
1780625766648559900,4.851559814453125,-0.05991845950484276,0.14729411900043488,-0.13322143256664276
1780625766658589000,4.8615888671875,-0.07401510328054428,0.07534348964691162,-0.05956399440765381
1780625766668619000,4.871618896484375,-0.10613309592008591,0.04068244993686676,0.04388436675071716
1780625766678647800,4.881647705078125,-0.1467718631029129,0.04922320693731308,0.11089669167995453
1780625766688678000,4.891677978515625,-0.169683575630188,0.022406505420804024,0.08895038068294525
1780625766698707700,4.901707763671875,-0.16783054172992706,-0.014043913222849369,0.002793123247101903
1780625766708737000,4.911737060546875,-0.15503405034542084,-0.022671490907669067,-0.10240333527326584
1780625766718766800,4.921766845703125,-0.14761582016944885,-0.026641197502613068,-0.18179988861083984
1780625766728797000,4.931796875,-0.1329178363084793,-0.024524783715605736,-0.1919316202402115
1780625766738825700,4.94182568359375,-0.11472737789154053,-0.015905994921922684,-0.15559491515159607
1780625766748855800,4.951855712890625,-0.09237547218799591,-0.002686064224690199,-0.08458758890628815
1780625766758886000,4.961885986328125,-0.07721515744924545,0.03310548886656761,-0.0054703992791473866
1780625766768915000,4.9719150390625,-0.07419673353433609,0.058692872524261475,0.06596197187900543
1780625766778944800,4.98194482421875,-0.08768084645271301,0.06361252814531326,0.10978801548480988
1780625766788974800,4.991974853515625,-0.11131960153579712,0.038182538002729416,0.11755166202783585
1780625766799004000,5.00200390625,-0.13713441789150238,0.014515825547277927,0.08810269087553024
1780625766809034000,5.012033935546875,-0.16293805837631226,0.030472422018647194,0.030979754403233528
1780625766819063000,5.02206298828125,-0.18970762193202972,0.045818354934453964,-0.008618787862360477
1780625766829092900,5.0320927734375,-0.20475687086582184,0.04388250410556793,-0.0029116340447217226
1780625766839122700,5.042122802734375,-0.19903907179832458,0.04204652085900307,0.03244848549365997
1780625766849151700,5.05215185546875,-0.19382406771183014,0.052799031138420105,0.07436184585094452
1780625766859181800,5.062181884765625,-0.1966523379087448,0.06594812124967575,0.10865271091461182
1780625766869212000,5.0722119140625,-0.2121458202600479,0.07789133489131927,0.12800323963165283
1780625766879240700,5.08224072265625,-0.23552250862121582,0.09392569959163666,0.10417433828115463
1780625766889270800,5.092270751953125,-0.26770415902137756,0.10478633642196655,0.019283682107925415
1780625766899300900,5.10230078125,-0.2935866117477417,0.09646368771791458,-0.09310118108987808
1780625766909330000,5.112329833984375,-0.3092145621776581,0.09045639634132385,-0.16368746757507324
1780625766919360000,5.122360107421875,-0.31025612354278564,0.0875900387763977,-0.17058052122592926
1780625766929390000,5.13239013671875,-0.30551543831825256,0.06850235909223557,-0.12394324690103531
1780625766939419000,5.1424189453125,-0.2983289062976837,0.07454480975866318,-0.043416183441877365
1780625766949448700,5.15244873046875,-0.30499958992004395,0.09588737785816193,0.028989307582378387
1780625766959478000,5.16247802734375,-0.32692858576774597,0.12556219100952148,0.07433361560106277
1780625766969507800,5.1725078125,-0.3489215075969696,0.1516939252614975,0.10592563450336456
1780625766979538000,5.182537841796875,-0.34476909041404724,0.16280515491962433,0.11054489016532898
1780625766989566700,5.192566650390625,-0.32067015767097473,0.17229267954826355,0.09217466413974762
1780625766999596800,5.2025966796875,-0.2802859842777252,0.15564711391925812,0.06952608376741409
1780625767009627000,5.212626953125,-0.23950180411338806,0.17902034521102905,0.05168503150343895
1780625767019656000,5.222656005859375,-0.2047768533229828,0.25662779808044434,0.050342001020908356
1780625767029685800,5.232685791015625,-0.18077430129051208,0.3228776454925537,0.0627555251121521
1780625767039715800,5.2427158203125,-0.18073062598705292,0.4200705289840698,0.03828267380595207
1780625767049745000,5.252744873046875,-0.20906905829906464,0.5221795439720154,0.011030014604330063
1780625767059775000,5.26277490234375,-0.24958932399749756,0.5458566546440125,0.043780770152807236
1780625767069804800,5.2728046875,-0.28157496452331543,0.4603273868560791,0.12179221212863922
1780625767079833900,5.282833740234375,-0.2992636561393738,0.37820643186569214,0.2033909410238266
1780625767089863700,5.29286376953125,-0.3065072000026703,0.3910455107688904,0.23324842751026154
1780625767099892700,5.302892822265625,-0.29822903871536255,0.43162569403648376,0.2090885043144226
1780625767109922800,5.3129228515625,-0.27422142028808594,0.3987159729003906,0.14610926806926727
1780625767119953000,5.322952880859375,-0.2478521466255188,0.3846698999404907,0.05518548935651779
1780625767129981700,5.332981689453125,-0.2669350206851959,0.4279923439025879,-0.04338662326335907
1780625767140011800,5.34301171875,-0.2515257000923157,0.510543704032898,-0.1496368944644928
1780625767150041900,5.353041748046875,-0.1365077793598175,0.5095993280410767,-0.2231113761663437
1780625767160071000,5.36307080078125,-0.12621839344501495,0.5139988660812378,-0.30044904351234436
1780625767170101000,5.37310107421875,-0.14390310645103455,0.5583325028419495,-0.39226844906806946
1780625767180131000,5.383131103515625,-0.14507517218589783,0.5760089755058289,-0.44855913519859314
1780625767190160000,5.393159912109375,-0.14346101880073547,0.5427061319351196,-0.45422130823135376
1780625767200190000,5.40318994140625,-0.13307256996631622,0.4343136250972748,-0.39087188243865967
1780625767210219800,5.4132197265625,-0.1333753615617752,0.3178751766681671,-0.27890247106552124
1780625767220248800,5.423248779296875,-0.1341969519853592,0.2970212996006012,-0.15743117034435272
1780625767230278700,5.433278564453125,-0.1591411828994751,0.31158319115638733,-0.08690054714679718
1780625767240307700,5.4433076171875,-0.1681051254272461,0.21943408250808716,-0.06067719683051109
1780625767251593000,5.454593017578125,-0.16191540658473969,0.1359972506761551,-0.06064177677035332
1780625767261622000,5.4646220703125,-0.14707839488983154,0.09523171186447144,-0.07730064541101456
1780625767271651800,5.47465185546875,-0.10880318284034729,0.09320904314517975,-0.10356953740119934
1780625767281681700,5.484681640625,-0.059703279286623,0.11778788268566132,-0.12434272468090057
1780625767291711000,5.4947109375,0.008413990959525108,0.09208598732948303,-0.1501932293176651
1780625767301740800,5.50474072265625,0.06500642746686935,0.05992378666996956,-0.17870956659317017
1780625767311771000,5.51477099609375,0.08739615976810455,-0.018132664263248444,-0.16426457464694977
1780625767321799700,5.524799560546875,0.04500768706202507,-0.09850367158651352,-0.10493840277194977
1780625767331829800,5.534829833984375,-0.03706933930516243,-0.08512235432863235,-0.023314910009503365
1780625767341859800,5.54485986328125,-0.09463649243116379,-0.05493275821208954,0.008161257021129131
1780625767351889000,5.554888916015625,-0.1238793358206749,-0.05640628561377525,0.0025768745690584183
1780625767361919000,5.5649189453125,-0.14663870632648468,-0.09321649372577667,0.018318288028240204
1780625767371947000,5.574947021484375,-0.16227519512176514,-0.13529443740844727,0.04222282022237778
1780625767381977000,5.58497705078125,-0.16098728775978088,-0.15432165563106537,0.09005185961723328
1780625767392007200,5.595007080078125,-0.18315944075584412,-0.10647717118263245,0.11138005554676056
1780625767402036200,5.6050361328125,-0.25366610288619995,-0.04361938312649727,0.08078192919492722
1780625767412065000,5.61506494140625,-0.32443881034851074,-0.011378888040781021,0.058576494455337524
1780625767422095000,5.62509521484375,-0.46355539560317993,-0.2017461657524109,0.03983663022518158
1780625767432125200,5.635125244140625,-0.826755166053772,-0.29359593987464905,-0.044144824147224426
1780625767442154200,5.645154296875,-1.9891941547393799,-1.1530842781066895,-0.8114427924156189
1780625767452184300,5.655184326171875,-3.202385663986206,-4.447002410888672,-1.3279690742492676
1780625767462214000,5.6652138671875,-3.8435099124908447,-4.093976020812988,-1.681072473526001
1780625767472243000,5.675242919921875,-4.244218826293945,-2.3928282260894775,-2.1879823207855225
1780625767482273000,5.68527294921875,-3.373072624206543,2.2164626121520996,-1.3532909154891968
1780625767492303000,5.69530322265625,-1.3704373836517334,3.4579217433929443,-0.689857006072998
1780625767502332200,5.705332275390625,0.77019202709198,1.5519925355911255,0.4553334414958954
1780625767512362000,5.715362060546875,1.0007184743881226,0.8133330941200256,0.7046356797218323
1780625767522392000,5.72539208984375,0.7588019371032715,0.6397773027420044,0.7284760475158691
1780625767532421000,5.735421142578125,0.48771214485168457,0.6669852137565613,0.7872381210327148
1780625767542451200,5.745451171875,0.3695064187049866,0.9751904606819153,0.8601014018058777
1780625767552480000,5.75547998046875,0.24278122186660767,1.449876070022583,0.9253365993499756
1780625767562510000,5.765510009765625,0.24630936980247498,1.7187442779541016,1.037461519241333
1780625767572540200,5.7755400390625,0.3224502205848694,1.758787751197815,0.999489963054657
1780625767582569200,5.7855693359375,0.42212140560150146,1.4337058067321777,0.8190027475357056
1780625767592599000,5.79559912109375,0.44075822830200195,1.0306257009506226,0.5819931030273438
1780625767602629000,5.805629150390625,0.2227662354707718,0.5667387843132019,0.30074891448020935
1780625767612658000,5.815657958984375,0.03165113553404808,0.4068780243396759,0.20710338652133942
1780625767622688000,5.82568798828125,-0.15331631898880005,0.35059022903442383,0.20076718926429749
1780625767632718000,5.835718017578125,-0.28426235914230347,0.41616472601890564,0.21225208044052124
1780625767642747100,5.8457470703125,-0.35905882716178894,0.5713478922843933,0.2293540984392166
1780625767652777200,5.855777099609375,-0.3641260266304016,0.6971039772033691,0.22425946593284607
1780625767662807000,5.86580712890625,-0.31370866298675537,0.6886841058731079,0.2253793329000473
1780625767672836000,5.875836181640625,-0.1975724697113037,0.5896896123886108,0.25706082582473755
1780625767682866200,5.8858662109375,-0.09388548135757446,0.4295681416988373,0.309553325176239
1780625767692896000,5.89589599609375,-0.049071405082941055,0.2267809510231018,0.3187582790851593
1780625767702925300,5.90592529296875,-0.09301596134901047,0.1393006294965744,0.34353551268577576
1780625767712955000,5.915954833984375,-0.218157097697258,0.17763817310333252,0.33969151973724365
1780625767722984200,5.925984130859375,-0.3474234640598297,0.1929662525653839,0.2753759026527405
1780625767733014000,5.936013916015625,-0.424917995929718,0.07314424961805344,0.2029842734336853
1780625767743044000,5.946044189453125,-0.4839634895324707,-0.009943710640072823,0.16132497787475586
1780625767753073200,5.9560732421875,-0.4376729428768158,-0.18081159889698029,0.10168774425983429
1780625767763103000,5.96610302734375,-0.3500688076019287,-0.3998059928417206,0.09122684597969055
1780625767773133000,5.976133056640625,-0.27241048216819763,-0.35410428047180176,0.16253937780857086
1780625767783162000,5.986162109375,-0.3528781533241272,-0.18868522346019745,0.180048868060112
1780625767793192200,5.996192138671875,-0.39787787199020386,-0.06937135010957718,0.18725058436393738
1780625767803222300,6.00622216796875,-0.2947637140750885,-0.1337258368730545,0.20579977333545685
1780625767813251000,6.0162509765625,-0.17913034558296204,-0.21418020129203796,0.28725069761276245
1780625767823281200,6.02628125,-0.13917572796344757,-0.2915964424610138,0.364059716463089
1780625767833311000,6.03631103515625,-0.1725560575723648,-0.19975678622722626,0.42168599367141724
1780625767843340000,6.046340087890625,-0.2326524257659912,-0.22119896113872528,0.4190326929092407
1780625767853370000,6.0563701171875,-0.21445584297180176,-0.25466370582580566,0.41198381781578064
1780625767863400000,6.06639990234375,-0.22422350943088531,-0.2961547076702118,0.3302189111709595
1780625767873429000,6.076428955078125,-0.16099394857883453,-0.358527272939682,0.2565380334854126
1780625767883459000,6.086458984375,-0.1525442749261856,-0.557249128818512,0.31587833166122437
1780625767893488000,6.096488037109375,-0.1550399214029312,-0.7185706496238708,0.3724028766155243
1780625767903518200,6.106518310546875,-0.13451732695102692,-0.6996768712997437,0.32095858454704285
1780625767913548000,6.116548095703125,-0.12859046459197998,-0.6381461024284363,0.19736020267009735
1780625767923577000,6.1265771484375,-0.187576025724411,-0.42865628004074097,0.012970926240086555
1780625767933607200,6.136607177734375,-0.26571476459503174,-0.10775735229253769,-0.13952727615833282
1780625767943637200,6.14663720703125,-0.3048371374607086,0.07894488424062729,-0.24224725365638733
1780625767953666300,6.156666259765625,-0.38211700320243835,0.15022093057632446,-0.3316804766654968
1780625767963696000,6.166696044921875,-0.4417276084423065,0.04680212587118149,-0.4427174925804138
1780625767973726000,6.176725830078125,-0.39546290040016174,-0.16758394241333008,-0.5992282629013062
1780625767983755000,6.186755126953125,-0.30876263976097107,-0.6722167134284973,-0.7038547992706299
1780625767993785000,6.19678515625,-0.2981635332107544,-1.3779206275939941,-0.5463200807571411
1780625768003815200,6.206815185546875,-0.11544430255889893,-1.6541354656219482,-0.2693910002708435
1780625768013844000,6.216843994140625,0.6271888017654419,-1.4731528759002686,-0.13551335036754608
1780625768023874000,6.2268740234375,1.8213279247283936,-1.3726168870925903,0.045163482427597046
1780625768033904000,6.236904052734375,2.7183175086975098,-1.4484552145004272,0.53049635887146
1780625768043933200,6.24693310546875,2.768937826156616,-1.3354213237762451,1.078243613243103
1780625768053963300,6.25696337890625,2.61979079246521,-0.8784942626953125,1.2587662935256958
1780625768063993000,6.2669931640625,2.5037379264831543,-0.32553789019584656,1.1039273738861084
1780625768074022100,6.277022216796875,2.41367244720459,0.03044179454445839,0.9038617014884949
1780625768084052000,6.287052001953125,2.3281073570251465,0.16618897020816803,0.8067537546157837
1780625768094081300,6.297081298828125,2.1258280277252197,0.21809904277324677,0.7441604137420654
1780625768104111000,6.307111083984375,1.7760354280471802,0.3894886374473572,0.6082268357276917
1780625768114141000,6.317140869140625,1.4069325923919678,0.6016623973846436,0.39199894666671753
1780625768124170000,6.327169921875,1.0281956195831299,0.6849381327629089,0.15938512980937958
1780625768134200000,6.337199951171875,0.6938772797584534,0.5697393417358398,-0.10305953770875931
1780625768144230100,6.347230224609375,0.39750662446022034,0.3257882297039032,-0.3752647042274475
1780625768154259200,6.35725927734375,0.13922500610351562,0.09008088707923889,-0.6453113555908203
1780625768164289000,6.3672890625,-0.05949262157082558,-0.02809049002826214,-0.9198350310325623
1780625768174319000,6.377319091796875,-0.2154177725315094,-0.02058916538953781,-1.1387181282043457
1780625768184348200,6.38734814453125,-0.33274680376052856,0.03682965412735939,-1.268688440322876
1780625768194378200,6.397378173828125,-0.41333910822868347,0.07720556855201721,-1.3157498836517334
1780625768204408000,6.407407958984375,-0.45807117223739624,0.07932491600513458,-1.336828351020813
1780625768214437000,6.41743701171875,-0.4713805615901947,0.04091067984700203,-1.3415192365646362
1780625768224467000,6.427467041015625,-0.4760618805885315,0.03038080967962742,-1.2962939739227295
1780625768234497000,6.4374970703125,-0.48632943630218506,0.023321034386754036,-1.2069315910339355
1780625768244526000,6.447526123046875,-0.493130087852478,-0.048286572098731995,-1.1078723669052124
1780625768254556200,6.45755615234375,-0.4510023295879364,-0.17056214809417725,-1.0395513772964478
1780625768264586200,6.467586181640625,-0.3804780840873718,-0.2931003272533417,-0.9892189502716064
1780625768274615000,6.477614990234375,-0.26289287209510803,-0.3800053894519806,-0.8953707218170166
1780625768284645000,6.48764501953125,-0.09670337289571762,-0.3547082841396332,-0.7706498503684998
1780625768294674200,6.497674072265625,0.03902889043092728,-0.23602238297462463,-0.6555951833724976
1780625768304704300,6.507704345703125,0.08874557912349701,-0.16894347965717316,-0.5953781604766846
1780625768314734000,6.517734130859375,0.08433592319488525,-0.18112212419509888,-0.604302167892456
1780625768324763100,6.52776318359375,0.05549654737114906,-0.20316830277442932,-0.66886967420578
1780625768334793200,6.537793212890625,0.024814801290631294,-0.26472726464271545,-0.7150039076805115
1780625768344823000,6.547822998046875,0.0030218889005482197,-0.3312101662158966,-0.7079172134399414
1780625768354852000,6.55785205078125,-0.007414240390062332,-0.34602025151252747,-0.6244683861732483
1780625768364883000,6.567883056640625,0.00944996066391468,-0.3761938810348511,-0.47604456543922424
1780625768374913000,6.5779130859375,0.050038933753967285,-0.3580188751220703,-0.3393477201461792
1780625768384942000,6.587942138671875,0.0980655774474144,-0.2926430404186249,-0.24453571438789368
1780625768394972200,6.59797216796875,0.14195872843265533,-0.21711979806423187,-0.18325451016426086
1780625768405002000,6.608001953125,0.15198872983455658,-0.11514096707105637,-0.13996988534927368
1780625768415031000,6.618031005859375,0.1274527609348297,-0.03773565962910652,-0.10309655964374542
1780625768425060900,6.628060791015625,0.10815789550542831,-0.013857225887477398,-0.1326989233493805
1780625768435091000,6.638091064453125,0.0759272575378418,-0.017615212127566338,-0.22430740296840668
1780625768445119700,6.64811962890625,0.020268253982067108,-0.054128747433423996,-0.3006727397441864
1780625768455149800,6.65814990234375,-0.04082093387842178,-0.11457584798336029,-0.34051018953323364
1780625768465180000,6.668179931640625,-0.043115511536598206,-0.150332510471344,-0.3933883011341095
1780625768475209000,6.678208984375,0.04300845414400101,-0.15068191289901733,-0.5164723992347717
1780625768485239000,6.688239013671875,0.16454926133155823,-0.17283596098423004,-0.606179416179657
1780625768495269000,6.69826904296875,0.28284209966659546,-0.1855299174785614,-0.6101717352867126
1780625768505298000,6.7082978515625,0.4061190187931061,-0.15967275202274323,-0.6450663208961487
1780625768515328000,6.718327880859375,0.530576765537262,-0.09493184089660645,-0.7268975377082825
1780625768525358000,6.728358154296875,0.6398891806602478,-0.005380384158343077,-0.7084884643554688
1780625768535387100,6.73838720703125,0.7173208594322205,0.12976065278053284,-0.48896729946136475
1780625768545417000,6.7484169921875,0.7345687747001648,0.31518271565437317,-0.21206805109977722
1780625768555446800,6.75844677734375,0.6337780356407166,0.41135159134864807,-0.12286626547574997
1780625768565475800,6.768475830078125,0.3674997091293335,0.3884228467941284,-0.29690465331077576
1780625768575506000,6.778505859375,0.05714664235711098,0.2516753673553467,-0.6247419118881226
1780625768585535000,6.788534912109375,-0.15966609120368958,0.054559916257858276,-0.8604074120521545
1780625768595565000,6.79856494140625,-0.22676309943199158,-0.05243018642067909,-0.9460472464561462
1780625768605595000,6.808594970703125,-0.17799796164035797,-0.09880061447620392,-0.9173575043678284
1780625768615624000,6.8186240234375,-0.05444486439228058,-0.12959155440330505,-0.8175073862075806
1780625768625654000,6.828654052734375,0.1008073017001152,-0.16709284484386444,-0.685385525226593
1780625768635684000,6.83868408203125,0.2135186791419983,-0.23225906491279602,-0.5675433278083801
1780625768645713000,6.848712890625,0.26339036226272583,-0.2521542012691498,-0.4923098385334015
1780625768655743000,6.858742919921875,0.27413061261177063,-0.2467583864927292,-0.4670521318912506
1780625768665772800,6.868772705078125,0.25933462381362915,-0.213577002286911,-0.4806355834007263
1780625768675802000,6.878802001953125,0.23155227303504944,-0.17790235579013824,-0.48760536313056946
1780625768685832000,6.88883203125,0.1962595283985138,-0.1291944682598114,-0.4910890460014343
1780625768695862000,6.898862060546875,0.1637878715991974,-0.12332699447870255,-0.4834713339805603
1780625768705890800,6.908890869140625,0.13189704716205597,-0.08804996311664581,-0.4442075490951538
1780625768715921000,6.9189208984375,0.0854152962565422,-0.06565837562084198,-0.3990302085876465
1780625768725951000,6.928950927734375,0.05504700541496277,-0.1041940450668335,-0.39766666293144226
1780625768735980000,6.93897998046875,0.034748658537864685,-0.16537190973758698,-0.4288267195224762
1780625768746010000,6.949010009765625,0.019876502454280853,-0.21972116827964783,-0.47713539004325867
1780625768756040000,6.9590400390625,0.02424195595085621,-0.25355130434036255,-0.5463624000549316
1780625768766069000,6.969069091796875,0.03021569363772869,-0.3022187054157257,-0.6055876612663269
1780625768776099000,6.97909912109375,0.03843793645501137,-0.3311382532119751,-0.6391432285308838
1780625768786129000,6.98912890625,0.058692608028650284,-0.29846206307411194,-0.6151143312454224
1780625768796158000,6.999157958984375,0.10221505165100098,-0.24951209127902985,-0.5117591619491577
1780625768806187800,7.009187744140625,0.15764369070529938,-0.21142596006393433,-0.3829668164253235
1780625768816217900,7.0192177734375,0.17844244837760925,-0.18235409259796143,-0.30385681986808777
1780625768826247000,7.029246826171875,0.1384926289319992,-0.11840254068374634,-0.27220648527145386
1780625768836277000,7.039277099609375,0.055992428213357925,-0.004002198576927185,-0.2748057246208191
1780625768846307000,7.04930712890625,-0.042080607265233994,0.1338760405778885,-0.2838101387023926
1780625768856336000,7.0593359375,-0.10992703586816788,0.2326391041278839,-0.2904115915298462
1780625768866366000,7.069365966796875,-0.13830514252185822,0.2773200273513794,-0.32836323976516724
1780625768876396000,7.07939599609375,-0.1336057335138321,0.2570054233074188,-0.4262661039829254
1780625768886425000,7.089425048828125,-0.10554719716310501,0.19489119946956635,-0.5748185515403748
1780625768896455200,7.099455078125,-0.0475989431142807,0.10203182697296143,-0.7195587158203125
1780625768906485000,7.109485107421875,0.037336986511945724,-0.018565429374575615,-0.8144593834877014
1780625768916513800,7.119513671875,0.09667141735553741,-0.12747566401958466,-0.8290990591049194
1780625768926544000,7.1295439453125,0.10403957962989807,-0.16404272615909576,-0.7585955858230591
1780625768936574000,7.139573974609375,0.04855608567595482,-0.15461620688438416,-0.6292234659194946
1780625768946603000,7.14960302734375,-0.05215508118271828,-0.12573502957820892,-0.4656217694282532
1780625768956632800,7.1596328125,-0.1414247751235962,-0.09236028790473938,-0.3250278830528259
1780625768966663000,7.169662841796875,-0.18585188686847687,-0.07661568373441696,-0.2327837198972702
1780625768976692000,7.17969189453125,-0.2046910971403122,-0.08097714185714722,-0.19311513006687164
1780625768986722000,7.18972216796875,-0.17697371542453766,-0.06091075390577316,-0.2199621945619583
1780625768996752100,7.199752197265625,-0.13315832614898682,-0.07454933226108551,-0.2469746321439743
1780625769006781000,7.209781005859375,-0.1015378087759018,-0.10524306446313858,-0.22652608156204224
1780625769016811000,7.21981103515625,-0.09739872813224792,-0.12253816425800323,-0.18596374988555908
1780625769026840800,7.2298408203125,-0.10818932205438614,-0.13406459987163544,-0.1501500904560089
1780625769036870000,7.239869873046875,-0.11265810579061508,-0.1784275323152542,-0.1556290090084076
1780625769046900000,7.24989990234375,-0.12150885164737701,-0.22774741053581238,-0.19782546162605286
1780625769056930000,7.259929931640625,-0.13869982957839966,-0.22792690992355347,-0.20031818747520447
1780625769066958800,7.269958740234375,-0.16953390836715698,-0.20639978349208832,-0.1595878005027771
1780625769076989000,7.279989013671875,-0.1895957589149475,-0.1619201898574829,-0.1274612843990326
1780625769087019000,7.29001904296875,-0.18774087727069855,-0.12063080817461014,-0.1102743074297905
1780625769097048000,7.300048095703125,-0.20444901287555695,-0.07208111882209778,-0.09005346149206161
1780625769107078100,7.310078125,-0.23854519426822662,-0.02527765929698944,-0.11544856429100037
1780625769117108000,7.32010791015625,-0.24747024476528168,-0.05213004723191261,-0.213392436504364
1780625769127137000,7.330136962890625,-0.21012075245380402,-0.15576855838298798,-0.36499127745628357
1780625769137167000,7.3401669921875,-0.1424461007118225,-0.212384432554245,-0.5614100694656372
1780625769147197000,7.350197021484375,-0.0634082704782486,-0.1007029116153717,-0.7240914106369019
1780625769157226000,7.36022607421875,0.014878282323479652,0.0968967154622078,-0.7704578042030334
1780625769167255800,7.370255859375,0.08106023073196411,0.32153037190437317,-0.786546528339386
1780625769177286000,7.380285888671875,0.11292175948619843,0.5240904092788696,-0.9403475522994995
1780625769187315000,7.39031494140625,0.12723810970783234,0.6427581906318665,-1.1657463312149048
1780625769197345000,7.400344970703125,0.1414141207933426,0.7320675849914551,-1.3742262125015259
1780625769207375000,7.410375,0.14273370802402496,0.7526865601539612,-1.5415455102920532
1780625769217404000,7.42040380859375,0.09628978371620178,0.7120869159698486,-1.6418827772140503
1780625769227434000,7.43043408203125,0.024358602240681648,0.6937859654426575,-1.6565093994140625
1780625769237464000,7.440464111328125,-0.02576395310461521,0.7150278687477112,-1.624415636062622
1780625769247493000,7.4504931640625,-0.0368802547454834,0.7352758646011353,-1.566731572151184
1780625769257523000,7.46052294921875,-0.03160133585333824,0.8046147227287292,-1.4461861848831177
1780625769267552800,7.470552734375,-0.035047199577093124,0.9159127473831177,-1.2974896430969238
1780625769277581800,7.480581787109375,-0.039689622819423676,0.9775745272636414,-1.2213664054870605
1780625769287612000,7.49061181640625,-0.04111894220113754,1.0003434419631958,-1.183803915977478
1780625769297642000,7.50064208984375,-0.026280872523784637,0.9774972796440125,-1.1696542501449585
1780625769307671000,7.510671142578125,0.027903269976377487,0.9309095740318298,-1.242255687713623
1780625769317700900,7.520700927734375,0.11644298583269119,0.8869791030883789,-1.4128271341323853
1780625769327731000,7.53073095703125,0.19967955350875854,0.9184262752532959,-1.6119568347930908
1780625769337760000,7.540760009765625,0.22893677651882172,1.043120265007019,-1.7123992443084717
1780625769347790000,7.5507900390625,0.2393297702074051,1.137423038482666,-1.6721309423446655
1780625769357820200,7.560820068359375,0.20236162841320038,1.3171565532684326,-1.5965451002120972
1780625769367849500,7.570849365234375,0.2176939696073532,1.384157419204712,-1.4890495538711548
1780625769377879300,7.58087939453125,0.2435506135225296,1.3765836954116821,-1.4372878074645996
1780625769387909000,7.5909091796875,0.23192298412322998,1.4152251482009888,-1.4596399068832397
1780625769397938200,7.600938232421875,0.19583182036876678,1.4571256637573242,-1.4860957860946655
1780625769407968300,7.61096826171875,0.1720053106546402,1.494105577468872,-1.513094186782837
1780625769417998300,7.620998291015625,0.1968001425266266,1.5631091594696045,-1.5588243007659912
1780625769428027100,7.631027099609375,0.2866394817829132,1.5322304964065552,-1.6558963060379028
1780625769438057200,7.64105712890625,0.4585571885108948,1.4006946086883545,-1.7911816835403442
1780625769448087300,7.65108740234375,0.6153944730758667,1.2819408178329468,-1.9650429487228394
1780625769458116400,7.661116455078125,0.7114331126213074,1.274312973022461,-2.093346118927002
1780625769468146400,7.671146484375,0.7839491367340088,1.2876039743423462,-2.0988028049468994
1780625769478176300,7.68117626953125,0.9244633913040161,1.3861875534057617,-2.082355499267578
1780625769488205300,7.691205322265625,1.0966215133666992,1.4293012619018555,-2.011146068572998
1780625769498235100,7.701235107421875,1.1213452816009521,1.391237735748291,-1.901761770248413
1780625769508265200,7.71126513671875,1.0711742639541626,1.2310227155685425,-1.7349860668182373
1780625769518294300,7.721294189453125,1.0267069339752197,1.0164209604263306,-1.552391529083252
1780625769528324400,7.731324462890625,0.9362196326255798,0.8528466820716858,-1.3583985567092896
1780625769538354200,7.741354248046875,0.8178583383560181,0.6615228056907654,-1.2057573795318604
1780625769548383200,7.75138330078125,0.7697049379348755,0.42831674218177795,-1.1028804779052734
1780625769558413300,7.761413330078125,0.5839044451713562,0.22241336107254028,-1.0092387199401855
1780625769568443400,7.771443359375,0.35353249311447144,0.06947281956672668,-0.9097232818603516
1780625769578472400,7.781472412109375,0.07832063734531403,-0.07063768059015274,-0.7197733521461487
1780625769588502300,7.791502197265625,-0.24261343479156494,-0.2046080082654953,-0.5527135133743286
1780625769598532000,7.801531982421875,-0.5472785234451294,-0.3819305896759033,-0.37984880805015564
1780625769608561200,7.81156103515625,-0.7822098135948181,-0.46165257692337036,-0.2399500161409378
1780625769618591200,7.82159130859375,-0.9079720377922058,-0.48298850655555725,-0.11057630926370621
1780625769628621300,7.831621337890625,-0.9612194895744324,-0.5789475440979004,0.017799237743020058
1780625769638650000,7.841650146484375,-1.015920877456665,-0.6129110455513,0.13720525801181793
1780625769648680200,7.85168017578125,-1.0828598737716675,-0.6785547733306885,0.23926931619644165
1780625769658710300,7.861710205078125,-1.1583105325698853,-0.7525515556335449,0.3327776789665222
1780625769668739300,7.8717392578125,-1.2868332862854004,-0.796120822429657,0.4299588203430176
1780625769678769400,7.881769287109375,-1.3817150592803955,-0.8096760511398315,0.5235532522201538
1780625769688799500,7.891799560546875,-1.325649380683899,-0.5807664394378662,0.3681356906890869
1780625769698828300,7.901828369140625,-0.9399579167366028,-0.01949806697666645,-0.13372184336185455
1780625769708858400,7.9118583984375,0.15205956995487213,0.8678573369979858,-1.0729135274887085
1780625769718888200,7.92188818359375,0.8306047916412354,0.4492214620113373,-1.1346344947814941
1780625769728917200,7.931917236328125,0.5464625358581543,0.5116392970085144,-0.7142821550369263
1780625769738947000,7.941947021484375,-0.2671440839767456,0.9144924879074097,-0.6556012630462646
1780625769748977200,7.95197705078125,-0.9960533976554871,0.8683907985687256,-0.3433757424354553
1780625769759006200,7.962006103515625,-0.9341692328453064,0.294498473405838,-0.29275837540626526
1780625769769036300,7.972036376953125,-0.9431140422821045,-0.1623031497001648,-0.5493821501731873
1780625769779066400,7.98206640625,-1.1588537693023682,-0.10217031091451645,-0.5323512554168701
1780625769789095200,7.99209521484375,-1.1673407554626465,0.1563991904258728,-0.43723538517951965
1780625769799125200,8.002125244140625,-1.0242624282836914,0.29246968030929565,-0.4664779603481293
1780625769809155300,8.0121552734375,-1.037765383720398,0.1028084009885788,-0.5236421823501587
1780625769819184400,8.022184326171875,-1.249570369720459,0.036665868014097214,-0.5108193159103394
1780625769829214200,8.032214111328125,-1.1965441703796387,0.18925993144512177,-0.5479917526245117
1780625769839244300,8.042244384765626,-1.0755985975265503,0.201756551861763,-0.4234362244606018
1780625769849273000,8.052273193359374,-1.093562364578247,0.13655412197113037,-0.23222045600414276
1780625769859303200,8.06230322265625,-1.0644463300704956,-0.04280232638120651,-0.1087440550327301
1780625769869333200,8.072333251953125,-1.0478025674819946,-0.24109463393688202,-0.06090542674064636
1780625769879363300,8.08236328125,-1.0806002616882324,-0.39171984791755676,-0.07103316485881805
1780625769889392400,8.092392333984375,-1.0832679271697998,-0.47984036803245544,0.006724481470882893
1780625769899422200,8.102422119140625,-1.0034319162368774,-0.5656327605247498,0.07893556356430054
1780625769909452300,8.112452392578126,-0.9353958964347839,-0.5819446444511414,0.07380764186382294
1780625769919481300,8.1224814453125,-0.890554666519165,-0.5313664078712463,0.016284164041280746
1780625769929511400,8.132511474609375,-0.8702853322029114,-0.4974425435066223,-0.05916159227490425
1780625769939541200,8.142541259765625,-0.8683231472969055,-0.49784255027770996,-0.11356011778116226
1780625769949570300,8.1525703125,-0.8419663906097412,-0.5016846656799316,-0.17312704026699066
1780625769959600000,8.16260009765625,-0.8032788634300232,-0.47373533248901367,-0.20576301217079163
1780625769969630200,8.172630126953125,-0.7216692566871643,-0.41249167919158936,-0.20665623247623444
1780625769979659300,8.1826591796875,-0.646828830242157,-0.5004100799560547,-0.221613347530365
1780625769989689300,8.192689453125,-0.5459429621696472,-0.4949415624141693,-0.1984875202178955
1780625769999719400,8.202719482421875,-0.46866095066070557,-0.42721444368362427,-0.14903555810451508
1780625770009748200,8.212748291015625,-0.4027312099933624,-0.3605518043041229,-0.10122249275445938
1780625770019778300,8.2227783203125,-0.33305492997169495,-0.3254380226135254,-0.07398980855941772
1780625770029808400,8.232808349609375,-0.2644476294517517,-0.33477771282196045,-0.06538033485412598
1780625770039837400,8.24283740234375,-0.17961636185646057,-0.35094842314720154,-0.06311185657978058
1780625770049867300,8.2528671875,-0.11910481750965118,-0.3838917315006256,-0.061828214675188065
1780625770059897000,8.26289697265625,-0.05090286210179329,-0.38518282771110535,-0.06016746535897255
1780625770069926100,8.272926025390625,0.03068574145436287,-0.39781901240348816,-0.06423863768577576
1780625770079956200,8.282956298828125,0.14029665291309357,-0.3975803852081299,-0.10911183804273605
1780625770089986300,8.292986328125,0.21737812459468842,-0.4308091700077057,-0.13330452144145966
1780625770100015000,8.30301513671875,0.2268960028886795,-0.4550303518772125,-0.11733328551054001
1780625770110045200,8.313045166015625,0.19491036236286163,-0.4855664372444153,-0.08339369297027588
1780625770120075300,8.3230751953125,0.1779731959104538,-0.5045686364173889,-0.06522853672504425
1780625770130104300,8.333104248046874,0.1583784520626068,-0.5047406554222107,-0.055138617753982544
1780625770140134400,8.343134521484375,0.14338938891887665,-0.4719401001930237,-0.06830448657274246
1780625770150164500,8.35316455078125,0.14347007870674133,-0.4790206551551819,-0.0737522542476654
1780625770160193300,8.363193359375,0.15011173486709595,-0.5123213529586792,-0.07176446914672852
1780625770170223400,8.373223388671875,0.18326009809970856,-0.5324417948722839,-0.06749701499938965
1780625770180253200,8.383253173828125,0.19567042589187622,-0.5500567555427551,-0.04171735420823097
1780625770190282200,8.3932822265625,0.1981692761182785,-0.5262840390205383,-0.020657608285546303
1780625770200312300,8.403312255859374,0.23459626734256744,-0.45831298828125,-0.03305009379982948
1780625770210342100,8.413342041015625,0.26010748744010925,-0.38337188959121704,-0.0579352043569088
1780625770220371200,8.42337109375,0.28458431363105774,-0.3039276599884033,-0.10824977606534958
1780625770230401300,8.4334013671875,0.3327723741531372,-0.2537726163864136,-0.1426365077495575
1780625770240431400,8.443431396484375,0.3749682903289795,-0.1811346411705017,-0.19805049896240234
1780625770250460200,8.453460205078125,0.44369301199913025,-0.09321782737970352,-0.2609303891658783
1780625770260490200,8.463490234375,0.46935898065567017,-0.08681052923202515,-0.2643001079559326
1780625770270520300,8.473520263671874,0.4834825098514557,-0.05673571676015854,-0.2382114976644516
1780625770280549400,8.48354931640625,0.45460373163223267,-0.11855780333280563,-0.2077830284833908
1780625770290579200,8.4935791015625,0.3966946303844452,-0.23593316972255707,-0.20090647041797638
1780625770300609300,8.503609375,0.3139219880104065,-0.3057125210762024,-0.17691458761692047
1780625770310638000,8.51363818359375,0.23642319440841675,-0.36776310205459595,-0.17190039157867432
1780625770320668200,8.523668212890625,0.1799018532037735,-0.40208619832992554,-0.19003358483314514
1780625770330698200,8.5336982421875,0.30047646164894104,-0.26881176233291626,-0.09743601083755493
1780625770340728300,8.543728271484374,0.15217168629169464,-0.3629065752029419,-0.1743054836988449
1780625770350757400,8.55375732421875,0.15475788712501526,-0.37125957012176514,-0.16725583374500275
1780625770360787200,8.563787109375,0.19165146350860596,-0.3642067313194275,-0.159989133477211
1780625770370817000,8.573817138671876,0.20339307188987732,-0.34073173999786377,-0.17451508343219757
1780625770380845800,8.583845703125,0.2267569750547409,-0.3184314966201782,-0.22668348252773285
1780625770390876000,8.5938759765625,0.25019678473472595,-0.28474652767181396,-0.28370121121406555
1780625770400905700,8.60390576171875,0.23343512415885925,-0.3194594979286194,-0.3162407875061035
1780625770410935000,8.61393505859375,0.2149152308702469,-0.3447113037109375,-0.3358626961708069
1780625770420964900,8.62396484375,0.20270943641662598,-0.3537924289703369,-0.3354565501213074
1780625770430995000,8.633994873046875,0.14402587711811066,-0.3679977357387543,-0.30915144085884094
1780625770441023700,8.644023681640626,0.08059630542993546,-0.3580226004123688,-0.28036296367645264
1780625770451053800,8.6540537109375,0.03803233802318573,-0.36788612604141235,-0.19976504147052765
1780625770461084000,8.664083984375,0.02293168194591999,-0.34424152970314026,-0.09728580713272095
1780625770471113000,8.674113037109375,0.03723099082708359,-0.37100762128829956,-0.021579859778285027
1780625770481143000,8.68414306640625,0.05363020673394203,-0.3941771388053894,0.08462167531251907
1780625770491172900,8.6941728515625,0.08919725567102432,-0.3265645205974579,0.14347034692764282
1780625770501202000,8.704201904296875,0.13200810551643372,-0.2909250557422638,0.183786079287529
1780625770511232000,8.71423193359375,0.3807699680328369,-0.18924716114997864,0.2597050666809082
1780625770521261800,8.72426171875,0.11373642086982727,-0.22881081700325012,0.1469534933567047
1780625770531291000,8.734290771484375,0.04144730791449547,-0.36679717898368835,-0.0003981425834354013
1780625770541320700,8.74432080078125,0.015597068704664707,-0.45273393392562866,-0.145530566573143
1780625770551350800,8.754350830078126,-0.002975017298012972,-0.4751601219177246,-0.277121365070343
1780625770561379800,8.7643798828125,0.011591142043471336,-0.5127823352813721,-0.39657264947891235
1780625770571410000,8.774409912109375,-0.01377919502556324,-0.5250619053840637,-0.4682377874851227
1780625770581440000,8.78443994140625,-0.0338040366768837,-0.5862888097763062,-0.5216653347015381
1780625770591468800,8.79446875,-0.07041211426258087,-0.6377668976783752,-0.5282225608825684
1780625770601499000,8.804498779296875,-0.1278301328420639,-0.6748777627944946,-0.48473820090293884
1780625770611529000,8.814529052734375,-0.1868460476398468,-0.6291528940200806,-0.43406009674072266
1780625770621558000,8.82455810546875,-0.3690624535083771,-0.8631262183189392,-0.5037329196929932
1780625770631588000,8.834588134765625,-0.4694785475730896,-0.942631185054779,-0.5285583734512329
1780625770641617700,8.84461767578125,-0.5163320899009705,-0.9952813386917114,-0.5210341215133667
1780625770651647700,8.854647705078126,-0.5337890982627869,-0.9936618804931641,-0.5238528251647949
1780625770661676800,8.8646767578125,-0.5118574500083923,-1.002402901649475,-0.5223287343978882
1780625770671707000,8.874706787109375,-0.4567829966545105,-1.0181241035461426,-0.5339568853378296
1780625770681737000,8.884737060546875,-0.3853745758533478,-0.9594666361808777,-0.5470572113990784
1780625770691765800,8.894765869140626,-0.3603712320327759,-0.8337249159812927,-0.5437024235725403
1780625770701795800,8.9047958984375,-0.3497534692287445,-0.6834121346473694,-0.5032548904418945
1780625770711826000,8.914825927734375,-0.28973886370658875,-0.5803227424621582,-0.4101071059703827
1780625770721855000,8.92485498046875,-0.25176751613616943,-0.44457799196243286,-0.2990282475948334
1780625770731885000,8.934885009765624,-0.2006063312292099,-0.25686347484588623,-0.17098452150821686
1780625770741915000,8.944914794921875,-0.12406841665506363,-0.049858104437589645,-0.05583423748612404
1780625770751944000,8.95494384765625,-0.04157380759716034,0.15854516625404358,0.053531136363744736
1780625770761973800,8.964973876953126,0.013302755542099476,0.35445982217788696,0.15963652729988098
1780625770772003800,8.97500390625,0.09709778428077698,0.4867725670337677,0.21781009435653687
1780625770782033000,8.985032958984375,0.18179483711719513,0.5967254638671875,0.21790489554405212
1780625770792063000,8.99506298828125,0.24281691014766693,0.664607048034668,0.18846924602985382
1780625770802092800,9.0050927734375,0.28353822231292725,0.6865445375442505,0.10428272932767868
1780625770812121900,9.015121826171875,0.3055894672870636,0.7029317617416382,0.032401882112026215
1780625770822152000,9.02515185546875,0.31606900691986084,0.6781761050224304,-0.01462634652853012
1780625770832182000,9.03518212890625,0.3064161241054535,0.6269696354866028,-0.030611172318458557
1780625770842210800,9.0452109375,0.29495733976364136,0.6215695142745972,-0.02696210891008377
1780625770852241000,9.055240966796875,0.2908920347690582,0.6477353572845459,-0.00941906776279211
1780625770862270700,9.065270751953125,0.31828850507736206,0.6621217727661133,0.03220720589160919
1780625770872300000,9.075300048828124,0.36205753684043884,0.7059012055397034,0.08733250945806503
1780625770882329900,9.085329833984375,0.4364428222179413,0.7433833479881287,0.13862872123718262
1780625770892360000,9.09535986328125,0.5103783011436462,0.8292308449745178,0.19820763170719147
1780625770902390000,9.10539013671875,0.6017516255378723,0.9227975606918335,0.267598956823349
1780625770912418800,9.115418701171874,0.6904979944229126,1.0122627019882202,0.32325688004493713
1780625770922449000,9.125448974609375,0.7994077205657959,1.0961861610412598,0.361746221780777
1780625770932479000,9.13547900390625,0.8592004776000977,1.2003085613250732,0.38538578152656555
1780625770942508000,9.145508056640624,0.9057839512825012,1.2697696685791016,0.39594998955726624
1780625770952537900,9.155537841796875,0.9600487947463989,1.2906895875930786,0.35136255621910095
1780625770962567700,9.165567626953125,1.0043995380401611,1.277674913406372,0.3237016499042511
1780625770972597000,9.175596923828126,1.0458416938781738,1.2577204704284668,0.3045005202293396
1780625770982626800,9.185626708984374,1.145277500152588,1.2675645351409912,0.24714107811450958
1780625770992657000,9.195656982421875,1.2135069370269775,1.2618131637573242,0.24496901035308838
1780625771002685700,9.205685791015625,1.2757433652877808,1.319215178489685,0.24963699281215668
1780625771012715800,9.2157158203125,1.3693550825119019,1.4020980596542358,0.24684733152389526
1780625771022745900,9.225745849609375,1.4436386823654175,1.4699077606201172,0.23942910134792328
1780625771032775000,9.23577490234375,1.5000102519989014,1.4792823791503906,0.2355041354894638
1780625771042805000,9.245804931640626,1.5622241497039795,1.4369173049926758,0.22179816663265228
1780625771052835000,9.2558349609375,1.5979808568954468,1.3403944969177246,0.228506937623024
1780625771062864000,9.26586376953125,1.5624563694000244,1.1334419250488281,0.3240795433521271
1780625771072894000,9.27589404296875,1.5780673027038574,1.108488917350769,0.30965158343315125
1780625771082923800,9.285923828125,1.6433559656143188,1.1533812284469604,0.25941798090934753
1780625771092953900,9.295953857421875,1.743600845336914,1.2689647674560547,0.19345255196094513
1780625771102983000,9.30598291015625,1.8000832796096802,1.316210389137268,0.16383633017539978
1780625771113012700,9.3160126953125,1.8156652450561523,1.3526192903518677,0.2068205624818802
1780625771123042800,9.326042724609374,1.843725562095642,1.3447933197021484,0.21067361533641815
1780625771133072000,9.33607177734375,1.849332571029663,1.181809663772583,0.21583935618400574
1780625771143102000,9.34610205078125,1.7768930196762085,1.064408540725708,0.20453396439552307
1780625771153132000,9.356132080078124,1.699681282043457,1.0408538579940796,0.14629197120666504
1780625771163160800,9.366160888671875,1.667453646659851,0.9497665762901306,0.13865481317043304
1780625771173191000,9.37619091796875,1.5887672901153564,0.8122697472572327,0.2110922634601593
1780625771183220700,9.386220703125,1.5218626260757446,0.7547739148139954,0.2890869379043579
1780625771193250000,9.39625,1.5488446950912476,0.7474382519721985,0.23894280195236206
1780625771203280000,9.40627978515625,1.583702802658081,0.7430365681648254,0.1894807070493698
1780625771213310000,9.41631005859375,1.5631107091903687,0.7782153487205505,0.12050271034240723
1780625771223338800,9.4263388671875,1.5043277740478516,0.8031837940216064,0.01936757192015648
1780625771233368800,9.436368896484375,1.3763946294784546,0.7018550634384155,-0.010207363404333591
1780625771243399000,9.44639892578125,1.1883916854858398,0.5601155161857605,-0.020929250866174698
1780625771253428000,9.456427978515626,1.035203218460083,0.46705347299575806,-0.02532719448208809
1780625771263457800,9.466457763671874,0.9489841461181641,0.3580920994281769,-0.04683301970362663
1780625771273488000,9.47648779296875,0.9312174320220947,0.2624497413635254,-0.10564973205327988
1780625771283518000,9.48651806640625,0.9450299143791199,0.21000009775161743,-0.18399539589881897
1780625771293547000,9.496547119140626,0.9705789089202881,0.1806320995092392,-0.27555567026138306
1780625771303576800,9.506576904296875,0.9615300297737122,0.09011418372392654,-0.27299612760543823
1780625771313607000,9.51660693359375,0.8066658973693848,0.10497861355543137,-0.25416702032089233
1780625771323635700,9.5266357421875,0.6654411554336548,0.1798858791589737,-0.4149806797504425
1780625771333665800,9.536665771484374,0.7159708738327026,0.32210347056388855,-0.5326801538467407
1780625771343696000,9.54669580078125,0.935687780380249,0.3874148428440094,-0.6246428489685059
1780625771353725000,9.556724853515625,1.1871607303619385,0.45703837275505066,-0.6517234444618225
1780625771363755000,9.566755126953124,1.3891109228134155,0.43528807163238525,-0.5748867392539978
1780625771373784300,9.576784423828125,1.4377021789550781,0.5118758082389832,-0.526454508304596
1780625771383813400,9.5868134765625,1.406090497970581,0.6147601008415222,-0.5914385318756104
1780625771393843500,9.596843505859376,1.3823935985565186,0.6372374296188354,-0.6971157193183899
1780625771403873500,9.60687353515625,1.2908709049224854,0.5038037896156311,-0.7245976328849792
1780625771413902300,9.61690234375,1.1558973789215088,0.27091431617736816,-0.6924881935119629
1780625771423932400,9.626932373046875,1.031191110610962,0.12548841536045074,-0.5391678810119629
1780625771433962200,9.636962158203126,0.9553371071815491,-0.023544473573565483,-0.4197503924369812
1780625771443992300,9.646992431640625,0.9424623250961304,-0.1428072154521942,-0.35965296626091003
1780625771454021400,9.657021484375,0.9717182517051697,-0.27352607250213623,-0.2659035921096802
1780625771464051200,9.66705126953125,0.9930075407028198,-0.3864494264125824,-0.18675071001052856
1780625771474081300,9.677081298828124,1.0087380409240723,-0.45417070388793945,-0.1323537826538086
1780625771484110300,9.6871103515625,1.0198378562927246,-0.5118904709815979,-0.06397871673107147
1780625771494140400,9.697140380859375,1.0128198862075806,-0.5231044888496399,0.0046602655202150345
1780625771504170500,9.70717041015625,0.9672225713729858,-0.4495796859264374,0.10461269319057465
1780625771514199300,9.71719921875,0.8717676401138306,-0.31108465790748596,0.20164470374584198
1780625771524229400,9.7272294921875,0.7617802023887634,-0.1462821066379547,0.2645972967147827
1780625771534259200,9.73725927734375,0.6812350153923035,0.029691848903894424,0.28661099076271057
1780625771544288500,9.74728857421875,0.634574294090271,0.09749513119459152,0.2785690426826477
1780625771554318300,9.757318359375,0.6020541787147522,0.04839016869664192,0.29865992069244385
1780625771564348400,9.767348388671875,0.5534139275550842,-0.05931925028562546,0.38365790247917175
1780625771574377200,9.777377197265626,0.4865150451660156,-0.1636057049036026,0.5065683722496033
1780625771584407300,9.7874072265625,0.40561699867248535,-0.24356631934642792,0.6313531994819641
1780625771594437400,9.797437255859375,0.3288865387439728,-0.29572007060050964,0.7158699631690979
1780625771604467500,9.807467529296876,0.25448209047317505,-0.3479483723640442,0.7583447098731995
1780625771614496300,9.817496337890624,0.14734284579753876,-0.4075946807861328,0.7604637742042542
1780625771624526300,9.8275263671875,0.025736521929502487,-0.494029700756073,0.7282312512397766
1780625771634556400,9.837556396484375,-0.09238212555646896,-0.5912119150161743,0.7095997929573059
1780625771644585500,9.84758544921875,-0.22228020429611206,-0.6491292715072632,0.6850540041923523
1780625771654615300,9.857615234375,-0.3456556797027588,-0.6984174251556396,0.6416441798210144
1780625771664645400,9.867645263671875,-0.45512357354164124,-0.7276510000228882,0.5730374455451965
1780625771674674200,9.877674072265625,-0.5349347591400146,-0.6984544992446899,0.5027424693107605
1780625771684704300,9.887704345703124,-0.585781991481781,-0.6523599624633789,0.4919676184654236
1780625771694734300,9.897734375,-0.6166757345199585,-0.6267328858375549,0.5163823962211609
1780625771704763400,9.907763427734375,-0.5854411125183105,-0.5423833727836609,0.48271286487579346
1780625771714793500,9.91779345703125,-0.3967968821525574,-0.3866446614265442,0.36772793531417847
1780625771724823300,9.9278232421875,-0.0009142631897702813,-0.20084549486637115,0.1774778515100479
1780625771734852400,9.937852294921875,0.41740682721138,-0.10339056700468063,0.011393269523978233
1780625771744882400,9.94788232421875,0.6389825940132141,-0.004346545320004225,0.0788482129573822
1780625771754912300,9.957912353515624,0.6238793134689331,0.08076169341802597,0.2591428756713867
1780625771764942300,9.9679423828125,0.6265448331832886,0.05372767522931099,0.2099047601222992
1780625771774971100,9.97797119140625,0.721849799156189,-0.0945693850517273,-0.05981459841132164
1780625771785001200,9.988001220703126,0.8146359324455261,-0.10936164110898972,-0.27817249298095703
1780625771795031300,9.99803125,0.8011494278907776,0.041549574583768845,-0.3135344982147217
1780625771805060400,10.008060302734375,0.7019296288490295,0.07537864148616791,-0.2685757875442505
1780625771815090400,10.01809033203125,0.573676347732544,-0.06399522721767426,-0.24253833293914795
1780625771825120500,10.02812060546875,0.4560495615005493,-0.19059444963932037,-0.27287253737449646
1780625771835149300,10.0381494140625,0.36611461639404297,-0.18986794352531433,-0.3394955098628998
1780625771845179400,10.048179443359375,0.3370451331138611,-0.04941282421350479,-0.4396689832210541
1780625771855209500,10.05820947265625,0.35915204882621765,0.09523836523294449,-0.4534654915332794
1780625771865238500,10.068238525390624,0.443594753742218,0.19305627048015594,-0.3457150459289551
1780625771875268400,10.078268310546875,0.5700421929359436,0.19921350479125977,-0.2332012951374054
1780625771885298200,10.088298095703125,0.6771779656410217,0.10382439941167831,-0.16905426979064941
1780625771895328300,10.098328369140624,0.746872067451477,-0.003212837502360344,-0.18566280603408813
1780625771905357300,10.108357421875,0.7845461964607239,-0.02780579775571823,-0.2534213364124298
1780625771915387400,10.118387451171875,0.7706916332244873,0.030851390212774277,-0.2982948124408722
1780625771925417500,10.12841748046875,0.7105262875556946,0.15429210662841797,-0.28366073966026306
1780625771935446300,10.1384462890625,0.6582854986190796,0.2732163667678833,-0.19819511473178864
1780625771945476400,10.148476318359375,0.6318733096122742,0.2830183804035187,-0.09070833027362823
1780625771955506400,10.15850634765625,0.643163800239563,0.24927933514118195,-0.019697271287441254
1780625771965535500,10.168535400390626,0.6646400690078735,0.24968039989471436,0.009353820234537125
1780625771975565300,10.1785654296875,0.6881301999092102,0.29974624514579773,-0.006848851218819618
1780625771985595400,10.188595458984375,0.7108480334281921,0.38267600536346436,-0.02967480570077896
1780625771995624200,10.198624267578126,0.742009699344635,0.43234822154045105,-0.05832669138908386
1780625772005654300,10.208654296875,0.7698588967323303,0.4807455837726593,-0.07359752058982849
1780625772015684400,10.218684326171875,0.7922643423080444,0.5216858386993408,-0.12057168781757355
1780625772025713400,10.22871337890625,0.844534158706665,0.5573351383209229,-0.1506291925907135
1780625772035743200,10.2387431640625,0.9173122644424438,0.6185236573219299,-0.13483983278274536
1780625772045773300,10.248773193359375,0.9927769303321838,0.6197586059570312,-0.09431931376457214
1780625772055803400,10.258803466796875,1.072550892829895,0.5924827456474304,-0.07022356241941452
1780625772065832400,10.26883251953125,1.1310756206512451,0.5650977492332458,-0.054244861006736755
1780625772075862500,10.278862548828124,1.1277704238891602,0.5224179029464722,-0.024057665839791298
1780625772085892400,10.288892333984375,1.1091549396514893,0.5447676777839661,-0.018851984292268753
1780625772095921200,10.298921142578125,1.1326333284378052,0.5980657935142517,-0.07603804022073746
1780625772105951200,10.308951171875,1.187717318534851,0.6013585329055786,-0.13436339795589447
1780625772115981300,10.318981201171875,1.2702322006225586,0.5096611380577087,-0.20536381006240845
1780625772126010400,10.32901025390625,1.3627182245254517,0.40532833337783813,-0.31049662828445435
1780625772136040400,10.33904052734375,1.4360121488571167,0.26116955280303955,-0.3809518814086914
1780625772146070300,10.3490703125,1.4298973083496094,0.004880508873611689,-0.4070412516593933
1780625772156099300,10.359099365234375,1.3253008127212524,-0.24227282404899597,-0.3646746277809143
1780625772166129400,10.36912939453125,1.1656445264816284,-0.29397091269493103,-0.2593567371368408
1780625772176159500,10.379159423828124,1.0542296171188354,-0.27553489804267883,-0.187485471367836
1780625772186188500,10.3891884765625,1.0140595436096191,-0.32938721776008606,-0.14962171018123627
1780625772196218400,10.39921826171875,1.0006697177886963,-0.384643018245697,-0.11363574862480164
1780625772206248200,10.409248291015626,1.0290288925170898,-0.4010544717311859,-0.14278697967529297
1780625772216278300,10.4192783203125,1.097741961479187,-0.4825035333633423,-0.24135403335094452
1780625772226307300,10.429307373046875,1.0623040199279785,-0.5517678260803223,-0.2708141803741455
1780625772236337400,10.43933740234375,0.955784797668457,-0.5570033192634583,-0.2956279218196869
1780625772246367500,10.449367431640624,0.7929884195327759,-0.5368781089782715,-0.27927958965301514
1780625772256396300,10.459396240234375,0.6343671083450317,-0.5473996996879578,-0.2595338225364685
1780625772266426400,10.46942626953125,0.5108100175857544,-0.5754196047782898,-0.3208935856819153
1780625772276456400,10.47945654296875,0.44166529178619385,-0.5779038071632385,-0.41494178771972656
1780625772286485500,10.489485595703124,0.41263842582702637,-0.5511584877967834,-0.49656155705451965
1780625772296515600,10.499515625,0.3726175129413605,-0.5264363884925842,-0.5533968806266785
1780625772306545200,10.509545166015625,0.33254918456077576,-0.4850023686885834,-0.5533034205436707
1780625772316574200,10.51957421875,0.27870965003967285,-0.4299345910549164,-0.48971909284591675
1780625772326604300,10.529604248046875,0.21891556680202484,-0.39183834195137024,-0.40099936723709106
1780625772336634400,10.53963427734375,0.14445091784000397,-0.326925128698349,-0.3213479220867157
1780625772346664400,10.54966455078125,0.09714625775814056,-0.22383415699005127,-0.2689100205898285
1780625772356693200,10.559693359375,0.07397835701704025,-0.10108187794685364,-0.22459901869297028
1780625772366724400,10.569724365234375,0.04376425966620445,0.06864537298679352,-0.17647384107112885
1780625772376754200,10.579754150390626,0.07388913631439209,0.1841069906949997,-0.13439428806304932
1780625772386783200,10.589783203125,0.1534675806760788,0.20311130583286285,-0.10804098099470139
1780625772396813000,10.59981298828125,0.2368442416191101,0.15651743113994598,-0.09177226573228836
1780625772406843100,10.609843017578125,0.2763175964355469,0.08749709278345108,-0.11441285908222198
1780625772416872200,10.6198720703125,0.29082465171813965,0.05926492065191269,-0.15231630206108093
1780625772426902300,10.62990234375,0.2300257384777069,0.07015778124332428,-0.18071198463439941
1780625772436932400,10.639932373046875,0.09504874795675278,0.15561382472515106,-0.19858738780021667
1780625772446961200,10.649961181640625,-0.038779351860284805,0.24391652643680573,-0.20445486903190613
1780625772456991200,10.6599912109375,-0.08352126181125641,0.35074469447135925,-0.17988720536231995
1780625772467021300,10.670021240234375,-0.06136801838874817,0.4191429316997528,-0.14887017011642456
1780625772477051100,10.680051025390625,0.0189643707126379,0.4652142822742462,-0.1505836546421051
1780625772487080400,10.69008056640625,0.11112545430660248,0.4943958818912506,-0.1262090653181076
1780625772497110000,10.700110107421875,0.1601308137178421,0.47523629665374756,-0.11125887930393219
1780625772507140000,10.71014013671875,0.1592778116464615,0.47387489676475525,-0.10058599710464478
1780625772517169200,10.720169189453125,0.12477948516607285,0.48171231150627136,-0.09732761979103088
1780625772527199200,10.73019921875,0.08580997586250305,0.4779426157474518,-0.12320928275585175
1780625772537229300,10.740229248046875,0.0326215922832489,0.5005626678466797,-0.12339357286691666
1780625772547258000,10.750258056640625,-0.05519428104162216,0.49142885208129883,-0.09271448850631714
1780625772557288200,10.7602880859375,-0.11168684810400009,0.43992650508880615,-0.09621521830558777
1780625772567318300,10.770318359375,-0.10960319638252258,0.35930198431015015,-0.0366930328309536
1780625772577347300,10.780347412109375,-0.0738672986626625,0.2852591574192047,0.022175876423716545
1780625772587377400,10.79037744140625,-0.0007518103811889887,0.24168479442596436,0.06165936961770058
1780625772597407000,10.800406982421874,0.09666235744953156,0.24754668772220612,0.06845255941152573
1780625772607437000,10.81043701171875,0.2055390477180481,0.2587687075138092,0.05161445960402489
1780625772617466000,10.820466064453125,0.31015920639038086,0.25806936621665955,0.03677905350923538
1780625772627496200,10.83049609375,0.3901440501213074,0.27473169565200806,0.04890948534011841
1780625772637526300,10.8405263671875,0.4413158893585205,0.2634100615978241,0.07708866149187088
1780625772647555000,10.85055517578125,0.47206419706344604,0.21858134865760803,0.10016388446092606
1780625772657585200,10.860585205078126,0.47267434000968933,0.2155250906944275,0.10642684251070023
1780625772667615200,10.870615234375,0.4508609175682068,0.22356145083904266,0.0932718887925148
1780625772677644300,10.880644287109375,0.4204729199409485,0.24500256776809692,0.042579684406518936
1780625772687674400,10.89067431640625,0.417222261428833,0.27369093894958496,-0.053706903010606766
1780625772697704200,10.9007041015625,0.4328504800796509,0.30716073513031006,-0.13050314784049988
1780625772707733200,10.910733154296874,0.48164254426956177,0.33295291662216187,-0.20984163880348206
1780625772717763000,10.92076318359375,0.5390182137489319,0.35452398657798767,-0.31472012400627136
1780625772727793200,10.930793212890626,0.5775006413459778,0.39553987979888916,-0.41735514998435974
1780625772737823200,10.9408232421875,0.5805059671401978,0.4508638381958008,-0.4883638322353363
1780625772747852300,10.950852294921875,0.5388496518135071,0.5171898603439331,-0.49117663502693176
1780625772757882000,10.960882080078125,0.48384469747543335,0.527723491191864,-0.454955518245697
1780625772767912200,10.970912109375,0.4278767704963684,0.5326708555221558,-0.39856600761413574
1780625772777941200,10.980941162109374,0.41114386916160583,0.5200788974761963,-0.3574414849281311
1780625772787971300,10.990971435546875,0.43747612833976746,0.46796107292175293,-0.30932191014289856
1780625772798001400,11.00100146484375,0.48333150148391724,0.3947931230068207,-0.2258930504322052
1780625772808030200,11.0110302734375,0.502406120300293,0.37320154905319214,-0.08773650974035263
1780625772818060000,11.02106005859375,0.46618396043777466,0.5135778188705444,0.05198836699128151
1780625772828090000,11.031090087890625,0.45656779408454895,0.6302043199539185,0.05618550628423691
1780625772838119200,11.041119140625,0.4487043023109436,0.5815004110336304,-0.07861252129077911
1780625772848149200,11.051149169921874,0.4378087520599365,0.5902230739593506,-0.17396406829357147
1780625772858179300,11.061179443359375,0.43588730692863464,0.5269586443901062,-0.258750319480896
1780625772868209200,11.071209228515626,0.412071168422699,0.4467519223690033,-0.33048176765441895
1780625772878238200,11.08123828125,0.36455878615379333,0.41416868567466736,-0.4013546109199524
1780625772888268300,11.091268310546875,0.30976158380508423,0.38265684247016907,-0.457420289516449
1780625772898298400,11.10129833984375,0.2635168731212616,0.34571772813796997,-0.49149462580680847
1780625772908327200,11.1113271484375,0.23032774031162262,0.3428657352924347,-0.48392778635025024
1780625772918357200,11.121357177734374,0.21279855072498322,0.3563740849494934,-0.425365149974823
1780625772928387000,11.131386962890625,0.20505674183368683,0.35408589243888855,-0.36776256561279297
1780625772938416000,11.141416015625,0.2024923861026764,0.3851301074028015,-0.330843448638916
1780625772948446200,11.1514462890625,0.19682012498378754,0.3863929808139801,-0.3260745108127594
1780625772958476300,11.161476318359375,0.2006252408027649,0.3987327218055725,-0.38490772247314453
1780625772968505000,11.171505126953125,0.22627387940883636,0.36962199211120605,-0.4177123010158539
1780625772978535200,11.18153515625,0.26033464074134827,0.28204527497291565,-0.3975127339363098
1780625772988565200,11.191565185546875,0.2843284010887146,0.2014702707529068,-0.2934936583042145
1780625772998595300,11.20159521484375,0.28370070457458496,0.17813298106193542,-0.17465968430042267
1780625773008624400,11.211624267578125,0.2627357542514801,0.1637873351573944,-0.11578945070505142
1780625773018654200,11.221654296875,0.23570440709590912,0.1262921541929245,-0.11429301649332047
1780625773028684000,11.23168408203125,0.2175711989402771,0.09179037064313889,-0.14497342705726624
1780625773038713300,11.24171337890625,0.21669982373714447,0.05000004917383194,-0.20480667054653168
1780625773048743200,11.2517431640625,0.22653166949748993,0.039021436125040054,-0.25786882638931274
1780625773058773200,11.261773193359375,0.24853284657001495,0.041738659143447876,-0.28828319907188416
1780625773068802000,11.271802001953125,0.273350328207016,0.037095967680215836,-0.29210004210472107
1780625773078832000,11.28183203125,0.26768285036087036,-0.0010269149206578732,-0.2861526608467102
1780625773088862200,11.2918623046875,0.25628557801246643,-0.055515188723802567,-0.25861451029777527
1780625773098891300,11.301891357421875,0.24307896196842194,-0.0969606339931488,-0.2097441703081131
1780625773108921300,11.31192138671875,0.23377972841262817,-0.12356960773468018,-0.13808037340641022
1780625773118951400,11.321951416015626,0.1962565928697586,-0.16054466366767883,-0.03652765229344368
1780625773128981000,11.33198095703125,0.14470233023166656,-0.1883014738559723,0.06580351293087006
1780625773139010300,11.34201025390625,0.0970274806022644,-0.1776685267686844,0.13896746933460236
1780625773149040000,11.3520400390625,0.05427921563386917,-0.17789676785469055,0.16541266441345215
1780625773159070200,11.3620703125,0.018263159319758415,-0.18897737562656403,0.1698039472103119
1780625773169099300,11.372099365234375,-0.005395297892391682,-0.19826409220695496,0.18016204237937927
1780625773179129000,11.382129150390625,-0.024156201630830765,-0.24159078299999237,0.18672780692577362
1780625773189159200,11.3921591796875,-0.04867938905954361,-0.27617591619491577,0.2048487514257431
1780625773199188200,11.402188232421874,-0.0847519040107727,-0.2692338526248932,0.22428210079669952
1780625773209218300,11.41221826171875,-0.11588612198829651,-0.23633450269699097,0.22397664189338684
1780625773219248400,11.422248291015626,-0.1155066192150116,-0.16708245873451233,0.2294853925704956
1780625773229277200,11.432277099609376,-0.14501658082008362,-0.13220436871051788,0.2146422564983368
1780625773239307300,11.442307373046875,-0.16931286454200745,-0.15163666009902954,0.18971213698387146
1780625773249337000,11.452337158203125,-0.18942105770111084,-0.17859691381454468,0.20141273736953735
1780625773259367200,11.4623671875,-0.19570159912109375,-0.2298201471567154,0.23510119318962097
1780625773269396200,11.472396240234374,-0.17908692359924316,-0.2969861328601837,0.28256484866142273
1780625773279426300,11.48242626953125,-0.1724388748407364,-0.37761786580085754,0.33730238676071167
1780625773289456000,11.4924560546875,-0.1658821851015091,-0.45724478363990784,0.3483462631702423
1780625773299485200,11.502485107421874,-0.1527610421180725,-0.5068517327308655,0.30873918533325195
1780625773309515300,11.512515380859375,-0.14089879393577576,-0.4680604040622711,0.25822967290878296
1780625773319545300,11.52254541015625,-0.146429643034935,-0.34909486770629883,0.2070178985595703
1780625773329574100,11.53257421875,-0.14470818638801575,-0.2210618108510971,0.15411420166492462
1780625773339604200,11.542604248046874,-0.12732146680355072,-0.09626021981239319,0.09475021064281464
1780625773349634000,11.552634033203125,-0.0861189067363739,0.003734018187969923,0.04265984520316124
1780625773359663400,11.562663330078125,-0.02948998101055622,0.07475253194570541,0.0025268071331083775
1780625773369692700,11.572692626953126,0.027302993461489677,0.09009979665279388,-0.03479526564478874
1780625773379722500,11.582722412109375,0.07375997304916382,0.026852918788790703,-0.048237837851047516
1780625773389752600,11.592752685546875,0.12790736556053162,-0.09502238780260086,-0.04904530569911003
1780625773399781600,11.60278173828125,0.1635385900735855,-0.27441638708114624,-0.033183254301548004
1780625773409811500,11.6128115234375,0.18854354321956635,-0.41825398802757263,0.0322042740881443
1780625773419841500,11.622841552734375,0.19851389527320862,-0.48819923400878906,0.13483931124210358
1780625773429870600,11.63287060546875,0.20309212803840637,-0.5468258261680603,0.22117792069911957
1780625773439900700,11.642900634765626,0.2044982761144638,-0.5885967016220093,0.271782785654068
1780625773449930800,11.6529306640625,0.19535565376281738,-0.5898028016090393,0.2693478465080261
1780625773459959600,11.66295947265625,0.15899470448493958,-0.5331600308418274,0.2327727973461151
1780625773469989600,11.67298974609375,0.1079416498541832,-0.4155367612838745,0.19035769999027252
1780625773480019500,11.68301953125,0.056649431586265564,-0.2801206111907959,0.13010446727275848
1780625773490049500,11.693049560546875,0.0595802403986454,-0.16803480684757233,0.05478282272815704
1780625773500078600,11.70307861328125,0.09244471043348312,-0.0528714694082737,-0.009812949225306511
1780625773510108700,11.713108642578124,0.16830486059188843,0.04115542769432068,-0.035687156021595
1780625773520138500,11.723138427734375,0.2603410482406616,0.07954063266515732,-0.03897642716765404
1780625773530167600,11.73316748046875,0.3322668969631195,0.009440906345844269,-0.00782623142004013
1780625773540197600,11.74319775390625,0.38731417059898376,-0.15673981606960297,0.04773982614278793
1780625773550227700,11.753227783203124,0.3774852454662323,-0.34494566917419434,0.10055457055568695
1780625773560256500,11.763256591796875,0.35001900792121887,-0.49073803424835205,0.13635703921318054
1780625773570286600,11.77328662109375,0.30949899554252625,-0.5983036160469055,0.18078629672527313
1780625773580316400,11.78331640625,0.23651400208473206,-0.6383141875267029,0.24630138278007507
1780625773590345700,11.793345703125,0.16594715416431427,-0.5846427083015442,0.33012038469314575
1780625773600375600,11.80337548828125,0.07422229647636414,-0.4967051148414612,0.40443456172943115
1780625773610405600,11.813405517578126,-0.005525260232388973,-0.39020317792892456,0.46968093514442444
1780625773620435700,11.823435791015624,-0.022706378251314163,-0.31563517451286316,0.5231193900108337
1780625773630464500,11.833464599609375,-0.012514726258814335,-0.3023737072944641,0.5277607440948486
1780625773640494600,11.84349462890625,0.022528745234012604,-0.4254186749458313,0.4619585871696472
1780625773650524700,11.853524658203124,0.058458514511585236,-0.5711042284965515,0.3745717406272888
1780625773660553700,11.8635537109375,0.08897008746862411,-0.6832842826843262,0.33497241139411926
1780625773670583600,11.87358349609375,0.08170738071203232,-0.6709674596786499,0.3119400441646576
1780625773680613600,11.883613525390626,0.04507160559296608,-0.6082097887992859,0.2866424322128296
1780625773690642700,11.893642578125,-0.00227913330309093,-0.4725206792354584,0.20755532383918762
1780625773700672500,11.903672607421875,-0.011335745453834534,-0.306528776884079,0.09623599052429199
1780625773710702600,11.91370263671875,0.020968398079276085,-0.13832591474056244,-0.026146382093429565
1780625773720732700,11.923732666015624,0.04602714627981186,0.04373709484934807,-0.1230899766087532
1780625773730761500,11.933761474609375,0.09173844009637833,0.2072322815656662,-0.19371141493320465
1780625773740791600,11.94379150390625,0.17383597791194916,0.31276935338974,-0.2489357888698578
1780625773750821600,11.953821533203126,0.25097575783729553,0.37021827697753906,-0.2901197075843811
1780625773760850700,11.9638505859375,0.2709808945655823,0.34909939765930176,-0.28999772667884827
1780625773770880800,11.973880859375,0.18934516608715057,0.2624249756336212,-0.24918052554130554
1780625773780910600,11.98391064453125,0.0270095132291317,0.06939984858036041,-0.19233934581279755
1780625773790939600,11.993939697265626,-0.1781894415616989,-0.13939571380615234,-0.12742586433887482
1780625773800969700,12.0039697265625,-0.33671411871910095,-0.22122693061828613,-0.0000476705827168189
1780625773810999600,12.01399951171875,-0.4270213544368744,-0.24205949902534485,0.12050697207450867
1780625773821028600,12.024028564453126,-0.46634799242019653,-0.26345905661582947,0.16390611231327057
1780625773831058400,12.034058349609374,-0.42633721232414246,-0.1999293565750122,0.19878420233726501
1780625773841088500,12.044088623046875,-0.33699294924736023,-0.04909457638859749,0.2428872138261795
1780625773851118600,12.05411865234375,-0.17470043897628784,0.10874432325363159,0.30690374970436096
1780625773861147600,12.064147705078126,-0.05035025626420975,0.266400009393692,0.48171523213386536
1780625773871177700,12.074177734375,0.03390044346451759,0.29733872413635254,0.6537303924560547
1780625773881207800,12.084207763671875,0.10395409911870956,0.1889035999774933,0.7096325755119324
1780625773891236600,12.094236572265626,0.10037481039762497,-0.04788097366690636,0.629427969455719
1780625773901266700,12.1042666015625,-0.062195196747779846,-0.38776078820228577,0.48101428151130676
1780625773911296500,12.114296630859375,-0.2876349687576294,-0.6026805639266968,0.3894747793674469
1780625773921325600,12.12432568359375,-0.4095001518726349,-0.5799299478530884,0.396563321352005
1780625773931355600,12.134355712890626,-0.4507104456424713,-0.4627988040447235,0.42442426085472107
1780625773941385500,12.144385498046875,-0.4733550548553467,-0.4565395712852478,0.36642593145370483
1780625773951415600,12.15441552734375,-0.4837634861469269,-0.5581521987915039,0.30074599385261536
1780625773961444600,12.164444580078126,-0.5261610150337219,-0.6769028306007385,0.2624257504940033
1780625773971474700,12.174474609375,-0.5783360600471497,-0.7579066157341003,0.16850006580352783
1780625773981504800,12.1845048828125,-0.5722342133522034,-0.6397874355316162,0.13896161317825317
1780625773991533600,12.194533447265625,-0.5930385589599609,-0.5251814723014832,0.09796731173992157
1780625774001563600,12.204563720703124,-0.6258178353309631,-0.40787696838378906,0.0777086466550827
1780625774011593500,12.214593505859375,-0.6481447219848633,-0.2821270227432251,0.05591972544789314
1780625774021622800,12.224622802734375,-0.6607422232627869,-0.13467925786972046,0.02865108661353588
1780625774031652600,12.234652587890626,-0.674919843673706,0.0036075180396437645,0.019699668511748314
1780625774041682400,12.244682373046874,-0.6617228388786316,0.05498149245977402,0.023083215579390526
1780625774051711500,12.25471142578125,-0.617381751537323,0.07315410673618317,0.027788221836090088
1780625774061741600,12.264741455078125,-0.5673883557319641,0.07591979950666428,0.03735163435339928
1780625774071771600,12.274771728515624,-0.5687257647514343,0.04177061468362808,0.042511507868766785
1780625774081801700,12.2848017578125,-0.5729607343673706,-0.02780180424451828,0.04891427978873253
1780625774091830500,12.29483056640625,-0.5696927905082703,-0.03026975505053997,0.03405650332570076
1780625774101860600,12.304860595703126,-0.5964562296867371,0.07505054026842117,0.04691930487751961
1780625774111890400,12.314890380859374,-0.6285629868507385,0.3231394290924072,0.06793563812971115
1780625774121919700,12.324919677734375,-0.640038013458252,0.6174754500389099,0.08206690847873688
1780625774131949600,12.334949462890625,-0.6108356714248657,0.8110066056251526,0.0926164835691452
1780625774141979600,12.344979736328124,-0.5249849557876587,0.982826292514801,0.09586421400308609
1780625774152008400,12.355008544921875,-0.4505639672279358,1.0578429698944092,0.050338804721832275
1780625774162038500,12.36503857421875,-0.3704358637332916,1.0634084939956665,-0.02002910152077675
1780625774172068600,12.375068603515626,-0.3014618456363678,1.1064488887786865,-0.12131790816783905
1780625774182098700,12.3850986328125,-0.30982762575149536,1.1456247568130493,-0.22630050778388977
1780625774192127700,12.395127685546875,-0.37331151962280273,1.127051591873169,-0.1821753978729248
1780625774202157600,12.405157470703125,-0.4602280557155609,0.9312387108802795,-0.04903145879507065
1780625774212187600,12.415187744140624,-0.5176500678062439,0.6744852066040039,0.04291790723800659
1780625774222216700,12.425216796875,-0.5629158020019531,0.5482415556907654,0.1135081872344017
1780625774232246500,12.43524658203125,-0.6253679990768433,0.46228453516960144,0.16376815736293793
1780625774242276600,12.445276611328126,-0.68165522813797,0.3451230525970459,0.21137508749961853
1780625774252305400,12.455305419921874,-0.712273359298706,0.24622255563735962,0.2317781001329422
1780625774262335500,12.46533544921875,-0.7014271020889282,0.1792864054441452,0.23182550072669983
1780625774272365600,12.475365478515625,-0.6738119721412659,0.12017780542373657,0.23249369859695435
