time,seconds_elapsed,z,y,x
1780625761873206800,0.076206787109375,0.11321105062961578,-0.4179832339286804,0.06804895401000977
1780625761883235800,0.08623583984375,0.12864567339420319,-0.3454190492630005,0.025802161544561386
1780625761893266000,0.096265869140625,0.15978696942329407,-0.2860593795776367,0.05866986885666847
1780625761903296000,0.1062958984375,0.1831735223531723,-0.24047988653182983,0.18262110650539398
1780625761913325000,0.116324951171875,0.16534453630447388,-0.2939887046813965,0.3299412131309509
1780625761923355000,0.12635498046875,0.17100641131401062,-0.4197162687778473,0.45802462100982666
1780625761933384000,0.136384033203125,0.17118379473686218,-0.5684648156166077,0.6134640574455261
1780625761943414000,0.1464140625,0.17940551042556763,-0.7642910480499268,0.7656093835830688
1780625761953444000,0.156444091796875,0.34039339423179626,-0.8011645674705505,0.8944870233535767
1780625761963473200,0.16647314453125,0.5475263595581055,-0.6490464210510254,1.0523775815963745
1780625761973503000,0.1765029296875,0.6632785201072693,-0.48046356439590454,1.208341121673584
1780625761983532000,0.186531982421875,0.7156935334205627,-0.40470167994499207,1.3268592357635498
1780625761993561900,0.196561767578125,0.7399059534072876,-0.38770273327827454,1.400212287902832
1780625762003592000,0.206592041015625,0.7694052457809448,-0.34864747524261475,1.4435580968856812
1780625762013620700,0.216620849609375,0.8076335787773132,-0.2948228716850281,1.444233775138855
1780625762023650800,0.22665087890625,0.8692819476127625,-0.34978213906288147,1.3509324789047241
1780625762033680000,0.236679931640625,0.8738988637924194,-0.5506311058998108,1.124072790145874
1780625762043710000,0.2467099609375,0.8423145413398743,-0.8069965839385986,0.8078985810279846
1780625762053740000,0.256739990234375,0.7410916686058044,-0.9974586367607117,0.5661084055900574
1780625762063768800,0.266768798828125,0.6597512364387512,-0.8998081684112549,0.5102952122688293
1780625762073799000,0.276798828125,0.7474997639656067,-0.6752483248710632,0.5043362379074097
1780625762083828000,0.286827880859375,0.8272765874862671,-0.43775030970573425,0.5564857125282288
1780625762093858000,0.296858154296875,0.7772132158279419,-0.10402138531208038,0.689664900302887
1780625762103887000,0.30688720703125,0.7421372532844543,0.36205071210861206,0.7503213286399841
1780625762113917000,0.3169169921875,0.6310321688652039,0.9455140829086304,0.5821608304977417
1780625762123947000,0.326947021484375,0.4244241714477539,1.2473607063293457,0.07393356412649155
1780625762133976000,0.33697607421875,0.14934951066970825,1.1431069374084473,-0.526755154132843
1780625762144006000,0.347005859375,-0.1016816571354866,0.8610712289810181,-0.8049622774124146
1780625762154035000,0.357034912109375,-0.25856849551200867,0.4733641743659973,-0.7079475522041321
1780625762164064800,0.367064697265625,-0.2706669569015503,-0.05391933396458626,-0.3861019015312195
1780625762174094800,0.3770947265625,-0.0938764363527298,-0.6753800511360168,0.07190966606140137
1780625762184124000,0.3871240234375,0.15108564496040344,-1.113308310508728,0.5171345472335815
1780625762194154000,0.397154052734375,0.3332153558731079,-1.1894574165344238,0.6932369470596313
1780625762204182800,0.407182861328125,0.43577873706817627,-0.997890055179596,0.5410460829734802
1780625762214212900,0.417212890625,0.4408022165298462,-0.6641523241996765,0.15352271497249603
1780625762224243000,0.427242919921875,0.32497867941856384,-0.34354206919670105,-0.29578956961631775
1780625762234272000,0.43727197265625,0.17846783995628357,-0.15308211743831635,-0.5209881663322449
1780625762244302000,0.447302001953125,0.06114627793431282,-0.20850889384746552,-0.2632155120372772
1780625762254331000,0.457330810546875,0.23537035286426544,-0.975141167640686,0.45098763704299927
1780625762264361000,0.46736083984375,0.7379179000854492,-2.471463918685913,1.4139611721038818
1780625762274391000,0.47739111328125,1.311376690864563,-3.5257792472839355,2.379699945449829
1780625762284420000,0.487420166015625,1.6024609804153442,-3.3954017162323,2.84177827835083
1780625762294450000,0.497449951171875,1.4042589664459229,-2.614264726638794,2.5137741565704346
1780625762304479000,0.50747900390625,0.9004936218261719,-1.4322105646133423,1.7533106803894043
1780625762314508800,0.5175087890625,0.4239289164543152,-0.3896678388118744,0.868564784526825
1780625762324539000,0.527538818359375,0.2301921844482422,0.09856227040290833,0.10087660700082779
1780625762334568000,0.53756787109375,0.3723111152648926,-0.09291712939739227,-0.26549699902534485
1780625762344598000,0.547597900390625,0.8302139639854431,-0.7752988934516907,-0.03771762177348137
1780625762354626800,0.557626708984375,1.4250649213790894,-1.3882122039794922,0.6885935068130493
1780625762364657700,0.56765771484375,1.8090459108352661,-1.559470772743225,1.3365718126296997
1780625762374686700,0.577686767578125,1.7602301836013794,-1.8659183979034424,0.9148463010787964
1780625762384716800,0.587716796875,1.6218316555023193,-2.490260124206543,-0.8225877285003662
1780625762394746600,0.59774658203125,1.7746682167053223,-2.9814324378967285,-2.692593812942505
1780625762404775700,0.607775634765625,2.4339990615844727,-3.5062687397003174,-3.660580635070801
1780625762414805800,0.6178056640625,3.4914140701293945,-3.8890559673309326,-3.4499785900115967
1780625762424834800,0.627834716796875,4.212130546569824,-3.7963664531707764,-2.001288414001465
1780625762434864600,0.63786474609375,3.9676201343536377,-3.9138753414154053,0.24473720788955688
1780625762444894500,0.64789453125,2.982059955596924,-4.427128314971924,2.313372850418091
1780625762454923500,0.657923583984375,2.05137300491333,-4.567756652832031,3.365809202194214
1780625762464953600,0.66795361328125,1.7994168996810913,-3.978666305541992,3.0339014530181885
1780625762474982700,0.677982666015625,2.1004714965820312,-2.5712430477142334,1.5866576433181763
1780625762485012500,0.688012451171875,2.388444423675537,-0.7830092310905457,-0.33831730484962463
1780625762495042600,0.69804248046875,2.3259947299957275,0.7146393656730652,-1.8158657550811768
1780625762505071600,0.708071533203125,1.854325294494629,1.625543475151062,-2.2286272048950195
1780625762515101700,0.718101806640625,1.3071092367172241,1.800105094909668,-1.6882892847061157
1780625762525130800,0.728130859375,1.1663590669631958,1.1447112560272217,-0.25268009305000305
1780625762535160600,0.73816064453125,-0.20345266163349152,0.09101230651140213,1.0636495351791382
1780625762545190700,0.748190673828125,-1.2658421993255615,-1.7411069869995117,2.0124740600585938
1780625762555219700,0.7582197265625,-1.722938060760498,-3.2500994205474854,2.584545373916626
1780625762565249800,0.768249755859375,-1.6939260959625244,-4.193382740020752,2.671724319458008
1780625762575278600,0.778278564453125,-1.3722373247146606,-4.538695335388184,2.451929807662964
1780625762585308700,0.78830859375,-0.9030157923698425,-3.8258414268493652,1.7919704914093018
1780625762595338500,0.79833837890625,-0.5954334735870361,-2.581272840499878,0.8413099646568298
1780625762605367600,0.808367431640625,-0.597304105758667,-1.0536011457443237,-0.18206582963466644
1780625762615397600,0.818397705078125,-0.5207294821739197,0.42410388588905334,-1.109177827835083
1780625762625426400,0.828426513671875,-0.39515209197998047,1.2074296474456787,-1.561888337135315
1780625762635456500,0.83845654296875,-0.39093104004859924,0.43039005994796753,-1.3654297590255737
1780625762645486600,0.848486572265625,-0.19508376717567444,-1.4547826051712036,-0.5112491250038147
1780625762655515600,0.858515625,0.38079097867012024,-1.0706902742385864,-0.10283143073320389
1780625762665545700,0.868545654296875,0.8000569343566895,-0.7702630162239075,0.04210018739104271
1780625762675574500,0.878574462890625,1.3098419904708862,-0.04865610972046852,0.050640687346458435
1780625762685604600,0.8886044921875,1.8098978996276855,0.48680785298347473,-0.0707818791270256
1780625762695634700,0.898634765625,2.213378667831421,1.1976524591445923,0.0061004566960036755
1780625762705663700,0.908663818359375,2.319035053253174,1.7416564226150513,0.0394006222486496
1780625762715693800,0.91869384765625,2.0033648014068604,1.3988652229309082,-0.4724554717540741
1780625762725722600,0.92872265625,1.5057570934295654,1.5160433053970337,-1.3591892719268799
1780625762735752700,0.938752685546875,1.2450549602508545,2.2899115085601807,-2.270366907119751
1780625762745782500,0.948782470703125,1.5490080118179321,3.3057456016540527,-2.4270424842834473
1780625762755811600,0.9588115234375,1.7663702964782715,3.8345844745635986,-2.2075862884521484
1780625762765841700,0.968841552734375,2.422274589538574,4.978573322296143,-0.8769481182098389
1780625762775870500,0.978870361328125,2.540178060531616,4.768500328063965,-0.4731854796409607
1780625762785900500,0.988900634765625,2.4923973083496094,4.6332316398620605,-0.5093839764595032
1780625762795930600,0.9989306640625,2.5083675384521484,4.166121482849121,-0.5595523715019226
1780625762805959700,1.008959716796875,2.235257148742676,3.2964353561401367,-0.7287030220031738
1780625762815989800,1.01898974609375,1.8171360492706299,2.0918068885803223,-0.8481416702270508
1780625762826018600,1.0290185546875,1.5926810503005981,0.64007568359375,-0.8926263451576233
1780625762836048600,1.039048583984375,1.622863531112671,-1.0310449600219727,-0.7938796877861023
1780625762846078700,1.04907861328125,1.9359945058822632,-2.471569538116455,-0.6334319710731506
1780625762856107800,1.059107666015625,2.290402889251709,-3.1820733547210693,-0.6454620957374573
1780625762866137900,1.069137939453125,2.529364585876465,-3.1581380367279053,-0.7923144102096558
1780625762876166700,1.079166748046875,2.7895379066467285,-2.735924005508423,-0.6918551921844482
1780625762886196700,1.08919677734375,3.0128896236419678,-2.3679845333099365,-0.2435203194618225
1780625762896226600,1.0992265625,3.0818450450897217,-2.1679208278656006,0.31467100977897644
1780625762906255600,1.109255615234375,3.055699110031128,-2.1344592571258545,0.693043053150177
1780625762916285700,1.11928564453125,3.068784713745117,-2.138853073120117,0.7897571921348572
1780625762926314500,1.129314453125,3.100348949432373,-1.9808940887451172,0.603115975856781
1780625762936344600,1.139344482421875,2.953467607498169,-1.6552172899246216,0.1648109406232834
1780625762946374700,1.149374755859375,2.6709301471710205,-1.6705260276794434,-0.3106916844844818
1780625762956403700,1.15940380859375,2.3681485652923584,-2.0062360763549805,-0.5680684447288513
1780625762966433500,1.16943359375,2.1754465103149414,-2.4093964099884033,-0.5395547747612
1780625762976462600,1.179462646484375,2.1213135719299316,-2.5245795249938965,-0.4507372975349426
1780625762986492700,1.18949267578125,2.0476865768432617,-1.9245654344558716,-0.5910049080848694
1780625762996522800,1.199522705078125,1.888053059577942,-0.7460781335830688,-0.83957839012146
1780625763006551800,1.2095517578125,1.7000393867492676,0.5355873107910156,-1.0493746995925903
1780625763016581600,1.21958154296875,1.609959363937378,1.4079943895339966,-1.0987128019332886
1780625763026610700,1.229610595703125,1.7037068605422974,1.7326182126998901,-1.0004326105117798
1780625763036640800,1.239640869140625,1.86721670627594,0.9416559934616089,-0.6853734850883484
1780625763046670600,1.249670654296875,2.1627285480499268,-0.5854179859161377,-0.04550103098154068
1780625763056699600,1.25969970703125,2.6747148036956787,-2.2554771900177,0.8499034643173218
1780625763066729500,1.2697294921875,3.3663101196289062,-3.6478753089904785,1.866085171699524
1780625763076758500,1.279758544921875,3.836804151535034,-4.338257312774658,2.881669282913208
1780625763086788600,1.28978857421875,4.190703392028809,-4.228157997131348,3.8143727779388428
1780625763096818700,1.299818603515625,4.566180229187012,-3.6233904361724854,4.5107645988464355
1780625763106847500,1.309847412109375,4.740506649017334,-2.929446220397949,4.869983673095703
1780625763116877600,1.319877685546875,4.630475997924805,-2.5370192527770996,4.962385177612305
1780625763126906600,1.32990673828125,4.361014366149902,-2.5313501358032227,5.057390213012695
1780625763136936700,1.339936767578125,3.9415624141693115,-2.5697832107543945,5.24329137802124
1780625763146966800,1.349966796875,3.303867816925049,-2.698986053466797,5.471553325653076
1780625763156995600,1.35999560546875,2.356346368789673,-2.8487846851348877,5.69436502456665
1780625763167025700,1.370025634765625,1.2364552021026611,-2.722099542617798,5.766420841217041
1780625763177054700,1.3800546875,-0.0511525422334671,-1.7930058240890503,5.372851371765137
1780625763187084800,1.390084716796875,-1.356314778327942,-0.5998885631561279,4.364404201507568
1780625763197114600,1.400114501953125,-2.581651449203491,0.489635169506073,2.8192574977874756
1780625763207143400,1.410143310546875,-3.5557055473327637,0.9032068252563477,0.9837499856948853
1780625763217173500,1.420173583984375,-4.077060699462891,0.9951283931732178,-0.7979170083999634
1780625763227202600,1.43020263671875,-4.278678894042969,0.7666547298431396,-2.2935938835144043
1780625763237232600,1.440232666015625,-4.231283664703369,0.7083220481872559,-3.140033721923828
1780625763247262700,1.4502626953125,-4.102249622344971,0.8611483573913574,-3.387495994567871
1780625763257291500,1.46029150390625,-4.159343719482422,0.7561730146408081,-3.4749906063079834
1780625763267321600,1.470321533203125,-3.8472166061401367,-0.007242071442306042,-3.267953395843506
1780625763277350700,1.4803505859375,-3.49931001663208,-1.0794581174850464,-2.490044593811035
1780625763287380700,1.490380615234375,-3.3069205284118652,-2.2141146659851074,-1.9145655632019043
1780625763297410800,1.500410888671875,-3.019768714904785,-3.109055757522583,-1.2652575969696045
1780625763307439600,1.510439697265625,-2.5554444789886475,-3.9483516216278076,-0.34500381350517273
1780625763317469700,1.5204697265625,-2.030264139175415,-3.2709875106811523,-0.6411026120185852
1780625763327498800,1.530498779296875,-1.3096976280212402,-1.8385933637619019,-1.1053688526153564
1780625763337528800,1.54052880859375,-1.2318413257598877,-0.41663143038749695,-2.383134126663208
1780625763347558700,1.55055859375,-1.2096928358078003,0.9378629326820374,-3.4584414958953857
1780625763357587500,1.56058740234375,-1.3614447116851807,1.1688250303268433,-3.736823558807373
1780625763367617500,1.570617431640625,-1.331519603729248,1.122806429862976,-3.41046142578125
1780625763377647600,1.580647705078125,-1.666175365447998,0.6659321188926697,-3.41485595703125
1780625763387676400,1.590676513671875,-1.30268132686615,1.0561443567276,-2.830427885055542
1780625763397706500,1.60070654296875,-0.8182229399681091,1.1812477111816406,-2.9569718837738037
1780625763407735600,1.610735595703125,-0.3171476125717163,1.4148743152618408,-3.3267366886138916
1780625763417765600,1.620765625,0.16789421439170837,1.8338788747787476,-3.9494431018829346
1780625763427795700,1.630795654296875,0.3747086524963379,2.144821882247925,-4.583961486816406
1780625763437824500,1.640824462890625,0.3106204569339752,2.0236575603485107,-5.000056266784668
1780625763447854600,1.6508544921875,0.41978421807289124,0.9153496026992798,-4.435937881469727
1780625763457883600,1.660883544921875,0.5961785316467285,-0.003682272508740425,-2.8659558296203613
1780625763467913700,1.670913818359375,1.2013695240020752,0.27005764842033386,-2.0343337059020996
1780625763477943600,1.680943603515625,1.2110953330993652,-0.3144943416118622,-1.7616212368011475
1780625763487972600,1.69097265625,0.9973137974739075,-0.4758771061897278,-1.2010456323623657
1780625763498002400,1.70100244140625,0.8701944351196289,-0.1474989503622055,-0.8893508911132812
1780625763508032500,1.711032470703125,0.7844215035438538,0.38095369935035706,-1.086251974105835
1780625763518061600,1.7210615234375,0.8662911653518677,0.2971096634864807,-1.4185045957565308
1780625763528091600,1.731091552734375,1.255236029624939,0.18549685180187225,-1.5933600664138794
1780625763538120400,1.741120361328125,1.8054420948028564,0.09197280555963516,-1.5691330432891846
1780625763548150500,1.751150634765625,2.129432201385498,-0.7990514039993286,-1.2351406812667847
1780625763558180600,1.7611806640625,2.5544464588165283,-1.1320369243621826,-0.8392669558525085
1780625763568209700,1.771209716796875,2.6735622882843018,-0.32425040006637573,-0.6802173852920532
1780625763578239700,1.78123974609375,2.832301139831543,0.9327991008758545,-1.0365816354751587
1780625763588268500,1.7912685546875,2.772730588912964,0.8201215267181396,-1.6849863529205322
1780625763598298600,1.801298583984375,2.9219541549682617,0.48723092675209045,-2.351203203201294
1780625763608328700,1.81132861328125,3.326794147491455,0.5804141163825989,-2.847215175628662
1780625763618357800,1.821357666015625,3.867887020111084,0.7533590793609619,-3.1287271976470947
1780625763628387600,1.8313876953125,4.349148273468018,0.7482516765594482,-3.2515695095062256
1780625763638416600,1.841416748046875,4.88629150390625,0.521541953086853,-3.195831775665283
1780625763648446500,1.851446533203125,5.667840003967285,-0.023368220776319504,-2.931735038757324
1780625763658476500,1.8614765625,6.532053470611572,-0.7509960532188416,-2.512016773223877
1780625763668505600,1.871505615234375,6.803206920623779,-0.8624615669250488,-1.9305280447006226
1780625763678535700,1.88153564453125,3.2239153385162354,1.7678242921829224,-0.06260301172733307
1780625763688565500,1.8915654296875,0.6736457943916321,1.31302809715271,0.9191247224807739
1780625763698594600,1.901594482421875,-0.04088307172060013,-0.09104165434837341,0.9687511324882507
1780625763708624600,1.911624755859375,0.011425407603383064,-0.21131853759288788,0.7570540308952332
1780625763718653700,1.92165380859375,0.004659508354961872,0.4853867292404175,0.6617958545684814
1780625763728683800,1.931683837890625,-0.033083342015743256,1.1051520109176636,0.7412515878677368
1780625763738713600,1.941713623046875,0.03583590313792229,1.472434639930725,0.8778666853904724
1780625763748742700,1.95174267578125,0.30125507712364197,1.3856632709503174,0.8823836445808411
1780625763758772700,1.961772705078125,0.6032522320747375,0.8697550892829895,0.5991352200508118
1780625763768802600,1.971802490234375,0.7217229604721069,0.49697884917259216,0.15455855429172516
1780625763778831400,1.981831298828125,0.8396944403648376,0.25880831480026245,-0.2802087366580963
1780625763788861400,1.991861328125,1.2841932773590088,0.37314367294311523,-0.6674515008926392
1780625763798890500,2.001890380859375,1.8906395435333252,1.3853832483291626,-1.141909122467041
1780625763808920600,2.011920654296875,2.11059832572937,2.068941593170166,-1.5192904472351074
1780625763818950700,2.02195068359375,2.1341562271118164,1.8030660152435303,-1.6502728462219238
1780625763828979500,2.0319794921875,2.202014207839966,1.5033338069915771,-1.7025117874145508
1780625763839009500,2.042009521484375,2.3197624683380127,1.1231147050857544,-1.6425672769546509
1780625763849038600,2.05203857421875,2.4370787143707275,0.741569995880127,-1.4797013998031616
1780625763859068700,2.062068603515625,2.4938621520996094,0.11541936546564102,-1.268308401107788
1780625763869098800,2.0720986328125,2.4446585178375244,-0.6854400634765625,-1.0181970596313477
1780625763879127600,2.08212744140625,2.328644037246704,-1.6502476930618286,-0.68038010597229
1780625763889157600,2.09215771484375,2.210272789001465,-2.7334673404693604,-0.3790591359138489
1780625763899187500,2.1021875,2.194024085998535,-3.5849416255950928,-0.08586825430393219
1780625763909216800,2.112216796875,2.410402297973633,-3.6216795444488525,0.23797373473644257
1780625763919246600,2.12224658203125,2.6854498386383057,-3.2074620723724365,0.483591765165329
1780625763929275400,2.132275390625,2.9451372623443604,-2.756856918334961,0.7509547472000122
1780625763939305500,2.142305419921875,2.894409656524658,-2.2559075355529785,1.1756163835525513
1780625763949335600,2.15233544921875,2.565800666809082,-1.5451704263687134,1.6973199844360352
1780625763959364600,2.162364501953125,2.2089741230010986,-0.8286023139953613,2.2694623470306396
1780625763969394700,2.172394775390625,2.026733160018921,-0.6341193318367004,2.688373327255249
1780625763979423500,2.182423583984375,1.6105530261993408,-0.803993284702301,2.8162200450897217
1780625763989453600,2.19245361328125,1.0219838619232178,-0.90927654504776,2.652662754058838
1780625763999483600,2.202483642578125,0.40424031019210815,-1.0965511798858643,2.2614729404449463
1780625764009512700,2.2125126953125,-0.10897530615329742,-1.2273893356323242,1.7741276025772095
1780625764019542800,2.222542724609375,-0.40035954117774963,-1.418418049812317,1.1593482494354248
1780625764029572600,2.232572509765625,-0.38331636786460876,-1.4301636219024658,0.5331602692604065
1780625764039601700,2.2426015625,-0.09569001197814941,-1.0747859477996826,0.12529893219470978
1780625764049631500,2.252631591796875,0.45624080300331116,-0.5198131203651428,0.13310624659061432
1780625764059660800,2.262660888671875,1.248786449432373,0.20330213010311127,0.6357582807540894
1780625764069690600,2.272690673828125,2.010162115097046,0.9693601131439209,1.3641564846038818
1780625764079720400,2.282720458984375,2.333770990371704,1.5361571311950684,1.842160940170288
1780625764089749500,2.29274951171875,2.4050464630126953,1.8702945709228516,1.8047890663146973
1780625764099779600,2.302779541015625,2.248415946960449,2.2948219776153564,1.2762902975082397
1780625764109809700,2.3128095703125,1.7298109531402588,2.3311269283294678,0.42982718348503113
1780625764119838700,2.322838623046875,1.0873390436172485,2.2312357425689697,-0.020489860326051712
1780625764129868500,2.33286865234375,0.47240111231803894,2.1182162761688232,-0.10650463402271271
1780625764139897600,2.342897705078125,-0.11415870487689972,1.6610558032989502,-0.20333285629749298
1780625764149927700,2.352927734375,-0.4845149517059326,0.6734836101531982,-0.639732837677002
1780625764159957800,2.362957763671875,-0.5648670792579651,-0.2514510452747345,-1.036220669746399
1780625764169986600,2.372986572265625,-0.3614710569381714,-0.6988394856452942,-0.9230619072914124
1780625764180016600,2.3830166015625,-0.07931189984083176,-0.7584129571914673,-0.623646080493927
1780625764190046500,2.39304638671875,0.14880062639713287,-0.5642573237419128,-0.4468582570552826
1780625764200075500,2.403075439453125,0.24655775725841522,-0.2760413885116577,-0.45558297634124756
1780625764210105600,2.413105712890625,0.36183425784111023,0.003200639970600605,-0.5491321086883545
1780625764220134400,2.423134521484375,0.5432677268981934,0.20330758392810822,-0.6760101318359375
1780625764230164500,2.43316455078125,0.8308835625648499,0.2423710972070694,-0.8152710795402527
1780625764240194600,2.443194580078125,1.1466253995895386,0.08627478033304214,-0.9917526841163635
1780625764250223600,2.4532236328125,1.389574408531189,-0.23859891295433044,-1.1646746397018433
1780625764260253700,2.463253662109375,1.5486345291137695,-0.6214063763618469,-1.2857697010040283
1780625764270283800,2.47328369140625,1.6956260204315186,-0.8224169611930847,-1.333071231842041
1780625764280312600,2.4833125,1.7968915700912476,-0.8038256168365479,-1.2974050045013428
1780625764290342700,2.4933427734375,1.917234182357788,-0.49245065450668335,-1.2292472124099731
1780625764300371700,2.503371826171875,1.9316027164459229,-0.10629957914352417,-1.2742098569869995
1780625764310401800,2.51340185546875,1.8287181854248047,0.21611388027668,-1.4298985004425049
1780625764320431600,2.523431640625,1.6635782718658447,0.4781625270843506,-1.585933804512024
1780625764330460700,2.533460693359375,1.4875507354736328,0.6465155482292175,-1.721835970878601
1780625764340490500,2.543490478515625,1.2292242050170898,0.7263921499252319,-1.958066701889038
1780625764350519600,2.55351953125,0.9443767666816711,0.8361868262290955,-2.291616439819336
1780625764360549400,2.56354931640625,0.6398440599441528,0.6574982404708862,-2.5858514308929443
1780625764370579500,2.573579345703125,0.3754236102104187,0.06085563451051712,-2.777214765548706
1780625764380608500,2.5836083984375,0.17330704629421234,-0.8500714898109436,-2.8968088626861572
1780625764390638600,2.593638671875,0.08777962625026703,-1.7613625526428223,-2.886601209640503
1780625764400668400,2.60366845703125,0.24211567640304565,-2.1189122200012207,-2.6668310165405273
1780625764410697500,2.613697509765625,0.4964049458503723,-1.8249447345733643,-2.271531581878662
1780625764420727600,2.6237275390625,0.6828407645225525,-1.2977662086486816,-1.8289839029312134
1780625764430757600,2.633757568359375,0.7786575555801392,-1.0123827457427979,-1.4889781475067139
1780625764440786400,2.643786376953125,0.8422102332115173,-1.102622628211975,-1.2958149909973145
1780625764450816500,2.65381640625,0.9604924321174622,-1.355108618736267,-1.1636505126953125
1780625764460845600,2.663845458984375,1.1338545083999634,-1.5767186880111694,-1.033361792564392
1780625764470875400,2.67387548828125,1.349130630493164,-1.6933704614639282,-0.8984559774398804
1780625764480905500,2.683905517578125,1.6054012775421143,-1.6683956384658813,-0.7081896066665649
1780625764490934300,2.693934326171875,1.8988656997680664,-1.4677014350891113,-0.44675853848457336
1780625764500964400,2.70396435546875,2.2193121910095215,-1.1383870840072632,-0.09644867479801178
1780625764510994400,2.713994384765625,2.513219118118286,-0.7463021278381348,0.28425872325897217
1780625764521023500,2.7240234375,2.699885606765747,-0.35563719272613525,0.5961117744445801
1780625764531053600,2.734053466796875,2.723954677581787,0.11558786034584045,0.8014710545539856
1780625764541082400,2.744082275390625,2.1863014698028564,0.6195945143699646,0.9607077836990356
1780625764551112400,2.754112548828125,1.2874281406402588,1.0354126691818237,1.0527985095977783
1780625764561142500,2.764142578125,0.6926584243774414,0.9119537472724915,0.9724839925765991
1780625764571171600,2.774171630859375,0.32670870423316956,0.34863874316215515,0.6596014499664307
1780625764581201700,2.78420166015625,0.0018964476184919477,-0.2984655499458313,0.2132895439863205
1780625764591231500,2.7942314453125,-0.22575774788856506,-0.6327018737792969,-0.09033586084842682
1780625764601260500,2.804260498046875,-0.3368522524833679,-0.771878719329834,-0.185957133769989
1780625764611290400,2.814290283203125,-0.34228697419166565,-0.9280054569244385,-0.13965009152889252
1780625764621319400,2.8243193359375,-0.2706153094768524,-1.102484941482544,-0.03709330037236214
1780625764631349500,2.834349609375,-0.2409926950931549,-1.2122974395751953,0.04780188202857971
1780625764641379300,2.84437939453125,-0.27584928274154663,-1.2351003885269165,0.08438456058502197
1780625764651408400,2.854408447265625,-0.25733470916748047,-1.0967662334442139,0.14567242562770844
1780625764661438500,2.8644384765625,-0.17271320521831512,-0.7353141903877258,0.27504581212997437
1780625764671468500,2.874468505859375,-0.15753425657749176,-0.2715449333190918,0.36850839853286743
1780625764681497600,2.88449755859375,-0.2413124293088913,-0.03699928894639015,0.2696666717529297
1780625764691527400,2.89452734375,-0.27354708313941956,-0.09322980046272278,0.07307583838701248
1780625764701556500,2.904556396484375,-0.29164421558380127,-0.2647784352302551,-0.09925264120101929
1780625764711586600,2.914586669921875,-0.3292562961578369,-0.4514590799808502,-0.1731039583683014
1780625764721616400,2.924616455078125,-0.4208776652812958,-0.611742377281189,-0.11535445600748062
1780625764731645700,2.934645751953125,-0.5336518883705139,-0.663431704044342,0.05410834401845932
1780625764741675300,2.94467529296875,-0.6655200123786926,-0.6384790539741516,0.28491950035095215
1780625764751705300,2.954705322265625,-0.7373265624046326,-0.5534754395484924,0.5425070524215698
1780625764761734400,2.964734375,-0.7169510126113892,-0.4560317397117615,0.7568053007125854
1780625764771764500,2.974764404296875,-0.6208497881889343,-0.40879738330841064,0.887148916721344
1780625764781793300,2.984793212890625,-0.5113663673400879,-0.3932930529117584,0.9049477577209473
1780625764791823400,2.9948232421875,-0.4251486361026764,-0.3452695906162262,0.8082888722419739
1780625764801853400,3.004853515625,-0.35979703068733215,-0.22806181013584137,0.6267812848091125
1780625764811882500,3.014882568359375,-0.31681814789772034,-0.05818036198616028,0.441853791475296
1780625764821912600,3.02491259765625,-0.292321115732193,0.10600157082080841,0.29740384221076965
1780625764831942700,3.034942626953125,-0.26083827018737793,0.27034232020378113,0.21305249631404877
1780625764841971500,3.044971435546875,-0.2088511437177658,0.3807605504989624,0.18664918839931488
1780625764852001500,3.05500146484375,-0.18121391534805298,0.3914504647254944,0.20531874895095825
1780625764862031400,3.06503125,-0.21081584692001343,0.3081357479095459,0.24135418236255646
1780625764872060400,3.075060302734375,-0.2488577663898468,0.20975752174854279,0.29826486110687256
1780625764882090500,3.085090576171875,-0.2441444993019104,0.12673035264015198,0.3514552116394043
1780625764892119300,3.095119384765625,-0.190826416015625,0.06092097610235214,0.36894097924232483
1780625764902149400,3.1051494140625,-0.13676252961158752,0.032575394958257675,0.3372112512588501
1780625764912179500,3.115179443359375,-0.12563876807689667,0.0912935733795166,0.2766016721725464
1780625764922208500,3.12520849609375,-0.17207425832748413,0.15836414694786072,0.18025656044483185
1780625764932238600,3.135238525390625,-0.22881530225276947,0.13933640718460083,0.051943596452474594
1780625764942268400,3.145268310546875,-0.26668912172317505,0.023695264011621475,-0.04002159461379051
1780625764952297500,3.15529736328125,-0.25009816884994507,-0.06606391072273254,-0.06857120990753174
1780625764962327600,3.16532763671875,-0.23084968328475952,-0.10994013398885727,-0.04610179364681244
1780625764972356600,3.175356689453125,-0.20368090271949768,-0.1040303185582161,0.029567399993538857
1780625764982386700,3.18538671875,-0.1909344494342804,-0.008710235357284546,0.14594091475009918
1780625764992416300,3.195416259765625,-0.1568681001663208,0.126151442527771,0.2666212320327759
1780625765002445600,3.205445556640625,-0.0979183167219162,0.23441925644874573,0.3637768626213074
1780625765012475400,3.215475341796875,-0.03714045509696007,0.25599005818367004,0.39362823963165283
1780625765022505500,3.22550537109375,-0.017629453912377357,0.192839577794075,0.35329893231391907
1780625765032534300,3.2355341796875,0.0011969644110649824,0.12958362698554993,0.28385329246520996
1780625765042564400,3.245564453125,0.02320403791964054,0.12102268636226654,0.2364664226770401
1780625765052593400,3.255593505859375,0.027622489258646965,0.11634324491024017,0.21351876854896545
1780625765062623500,3.26562353515625,0.022298475727438927,0.08046454191207886,0.19661305844783783
1780625765072653600,3.275653564453125,0.020316019654273987,0.019347388297319412,0.1790154129266739
1780625765082682400,3.285682373046875,0.04040948674082756,-0.038326893001794815,0.16771379113197327
1780625765092712400,3.29571240234375,0.08898687362670898,-0.09780167043209076,0.16586875915527344
1780625765102742500,3.305742431640625,0.15429465472698212,-0.1617351472377777,0.1571277529001236
1780625765112771600,3.315771484375,0.20124033093452454,-0.20550872385501862,0.14966849982738495
1780625765122801700,3.3258017578125,0.2107042521238327,-0.24848704040050507,0.13133715093135834
1780625765132831500,3.33583154296875,0.20202074944972992,-0.26389265060424805,0.11343751102685928
1780625765142860300,3.3458603515625,0.19309835135936737,-0.2639995515346527,0.12074542045593262
1780625765152890400,3.355890380859375,0.10883540660142899,-0.2833860218524933,0.14542147517204285
1780625765162919400,3.36591943359375,0.010252530686557293,-0.3970845341682434,0.09577250480651855
1780625765172949500,3.375949462890625,0.1401522159576416,-0.3578053116798401,0.15957678854465485
1780625765182979600,3.3859794921875,0.16363435983657837,-0.4259903132915497,0.1805829405784607
1780625765193008400,3.39600830078125,0.13398166000843048,-0.45283442735671997,0.14627955853939056
1780625765203038500,3.40603857421875,0.08410932123661041,-0.41197988390922546,0.11105214059352875
1780625765213068500,3.416068603515625,0.016798198223114014,-0.3425329029560089,0.06954783946275711
1780625765223097600,3.42609765625,-0.04289775714278221,-0.2074490338563919,0.05065467581152916
1780625765233127400,3.43612744140625,-0.06641027331352234,-0.08637906610965729,0.0805172324180603
1780625765243156500,3.446156494140625,-0.049218788743019104,-0.014825144782662392,0.14471255242824554
1780625765253186600,3.4561865234375,-0.048860859125852585,0.01478680968284607,0.14343076944351196
1780625765263216400,3.46621630859375,-0.07732848823070526,-0.021765297278761864,0.005134122911840677
1780625765273245700,3.47624560546875,-0.05268705636262894,-0.061353716999292374,-0.13734740018844604
1780625765283275300,3.486275146484375,0.035498082637786865,0.011356772854924202,-0.16510464251041412
1780625765293305300,3.496305419921875,0.11761878430843353,0.08378410339355469,-0.11797653883695602
1780625765303334400,3.50633447265625,0.15604238212108612,0.13826806843280792,-0.025057228282094002
1780625765313364500,3.516364501953125,0.16795922815799713,0.15897974371910095,0.07806356996297836
1780625765323394600,3.52639453125,0.22979702055454254,0.2659362852573395,0.21700945496559143
1780625765333423400,3.53642333984375,0.28981348872184753,0.406814306974411,0.35039258003234863
1780625765343453400,3.546453369140625,0.337508887052536,0.4798775017261505,0.3977252244949341
1780625765353482500,3.556482421875,0.380510151386261,0.493243932723999,0.36998921632766724
1780625765363512300,3.56651220703125,0.3895111382007599,0.4512564539909363,0.3012501299381256
1780625765373542400,3.57654248046875,0.3865414559841156,0.4553193747997284,0.24743962287902832
1780625765383571200,3.5865712890625,0.39575356245040894,0.4827895760536194,0.2107643187046051
1780625765393601300,3.596601318359375,0.3965461254119873,0.5269924998283386,0.18996049463748932
1780625765403631000,3.606631103515625,0.40417715907096863,0.5861011147499084,0.1849791705608368
1780625765413660200,3.61666015625,0.4182972311973572,0.6064215302467346,0.17651379108428955
1780625765423690200,3.626690185546875,0.43696385622024536,0.6228965520858765,0.15545514225959778
1780625765433720000,3.636719970703125,0.4634151756763458,0.6887288093566895,0.13526172935962677
1780625765443749000,3.6467490234375,0.5062436461448669,0.7239315509796143,0.0965655967593193
1780625765453779200,3.656779296875,0.5605121850967407,0.7884005904197693,0.09066615998744965
1780625765463808300,3.666808349609375,0.6038317680358887,0.7712520956993103,0.04906843602657318
1780625765473838300,3.67683837890625,0.5894957184791565,0.7189542651176453,-0.03838631138205528
1780625765483868200,3.6868681640625,0.5335617661476135,0.6955512762069702,-0.09612685441970825
1780625765493897200,3.696897216796875,0.4807773232460022,0.5533803105354309,-0.16332000494003296
1780625765503927300,3.70692724609375,0.4129619002342224,0.1571827530860901,-0.356061190366745
1780625765513957400,3.716957275390625,0.41736888885498047,-0.45008909702301025,-0.6550471186637878
1780625765523986400,3.726986328125,0.47581976652145386,-0.31397727131843567,-0.5893663763999939
1780625765534016300,3.737016357421875,0.441211462020874,-0.1456516534090042,-0.4864964485168457
1780625765544046000,3.747046142578125,0.4166504442691803,-0.25054630637168884,-0.4024180471897125
1780625765554075100,3.7570751953125,0.4752333164215088,-0.4875335693359375,-0.27009302377700806
1780625765564105200,3.767105224609375,0.591113805770874,-0.6317146420478821,-0.20254091918468475
1780625765574134000,3.777134033203125,0.7613656520843506,-0.6857360601425171,-0.42974719405174255
1780625765584164000,3.7871640625,1.1582448482513428,-0.13503886759281158,-0.5509059429168701
1780625765594194200,3.797194091796875,1.2299193143844604,0.26680096983909607,-0.8155567646026611
1780625765604223200,3.80722314453125,1.090009331703186,0.24798256158828735,-1.1854671239852905
1780625765614253300,3.81725341796875,0.8755896687507629,-0.09165842086076736,-1.4404017925262451
1780625765624283400,3.827283447265625,0.6964821219444275,-0.24391059577465057,-1.4458534717559814
1780625765634312200,3.837312255859375,0.49808216094970703,-0.35285893082618713,-1.3916590213775635
1780625765644342300,3.84734228515625,0.40591728687286377,-0.4513598382472992,-1.3714959621429443
1780625765654371300,3.857371337890625,0.45671868324279785,-0.43844085931777954,-1.3901904821395874
1780625765664401400,3.8674013671875,0.5712576508522034,-0.3314487934112549,-1.4470981359481812
1780625765674431200,3.87743115234375,0.6580471396446228,-0.17085488140583038,-1.5180929899215698
1780625765684460300,3.887460205078125,0.7110843658447266,-0.014278404414653778,-1.6005501747131348
1780625765694490000,3.897489990234375,0.6524636745452881,0.07856392115354538,-1.6960582733154297
1780625765704520200,3.907520263671875,0.4763428568840027,0.07680375874042511,-1.7382854223251343
1780625765714549200,3.91754931640625,0.32907378673553467,-0.013622280210256577,-1.647007942199707
1780625765724579300,3.927579345703125,0.22651977837085724,-0.06782125681638718,-1.448414921760559
1780625765734609200,3.937609130859375,0.15693910419940948,-0.07990774512290955,-1.2064547538757324
1780625765744638200,3.94763818359375,0.12134356051683426,-0.07188567519187927,-0.9452034831047058
1780625765754668300,3.957668212890625,0.11938747018575668,-0.07999073714017868,-0.6791225671768188
1780625765764697300,3.967697265625,0.15030141174793243,-0.1261678785085678,-0.44506698846817017
1780625765774727200,3.97772705078125,0.19926229119300842,-0.18927307426929474,-0.28345972299575806
1780625765784757200,3.98775732421875,0.23575687408447266,-0.1712954193353653,-0.21977248787879944
1780625765794786300,3.997786376953125,0.24990810453891754,-0.09000936150550842,-0.229071706533432
1780625765804816100,4.007816162109375,0.2258739173412323,0.0520186685025692,-0.22657276690006256
1780625765814846200,4.01784619140625,0.18246892094612122,0.22079864144325256,-0.16910602152347565
1780625765824875000,4.027875,0.13027870655059814,0.3128899931907654,-0.06258079409599304
1780625765834905000,4.037905029296875,0.11872004717588425,0.2910486161708832,0.07879471033811569
1780625765844935200,4.04793505859375,0.1435503214597702,0.1784953474998474,0.2340145707130432
1780625765854964200,4.057964111328125,0.19324010610580444,0.06666921079158783,0.37571921944618225
1780625765864994300,4.067994384765625,0.18112249672412872,0.05544746667146683,0.4563809335231781
1780625765875023000,4.078023193359375,0.15489143133163452,0.12791180610656738,0.5033159852027893
1780625765885053200,4.08805322265625,0.12432928383350372,0.21382315456867218,0.5258134603500366
1780625765895083300,4.098083251953125,0.09656822681427002,0.259627103805542,0.5347102880477905
1780625765905112300,4.1081123046875,0.07734034955501556,0.246161088347435,0.5410766005516052
1780625765915142400,4.118142333984375,0.0710156112909317,0.21302710473537445,0.5533758997917175
1780625765925172200,4.128172119140625,0.06255850940942764,0.20909543335437775,0.5760175585746765
1780625765935201300,4.138201171875,0.03499479219317436,0.2309999316930771,0.6071339249610901
1780625765945231000,4.148231201171875,0.006558422464877367,0.2356712967157364,0.6318790316581726
1780625765955261200,4.15826123046875,-0.019061187282204628,0.2088324874639511,0.647476077079773
1780625765965290200,4.168290283203125,-0.03690827637910843,0.18150374293327332,0.6729848384857178
1780625765975320300,4.1783203125,-0.04804295301437378,0.168583944439888,0.6848282217979431
1780625765985349000,4.18834912109375,-0.02850264124572277,0.15563711524009705,0.6611949801445007
1780625765995379200,4.198379150390625,0.015184652991592884,0.14168429374694824,0.5849284529685974
1780625766005409300,4.2084091796875,0.06364990770816803,0.14562755823135376,0.4599376320838928
1780625766015438300,4.218438232421875,0.07875029742717743,0.16826336085796356,0.3034937083721161
1780625766025468200,4.22846826171875,0.06748759001493454,0.2049386352300644,0.15121199190616608
1780625766035498200,4.238498291015625,0.05502638965845108,0.26860204339027405,0.02570866420865059
1780625766045527300,4.24852734375,0.0503520593047142,0.2943122982978821,-0.06695076078176498
1780625766055557400,4.258557373046875,0.05504588037729263,0.22188818454742432,-0.12583990395069122
1780625766065587200,4.268587158203125,0.08334727585315704,0.11837653815746307,-0.169513538479805
1780625766075616000,4.278615966796875,0.1212025135755539,0.08604682236909866,-0.21672286093235016
1780625766085646000,4.28864599609375,0.1539444625377655,0.10358361899852753,-0.2717916667461395
1780625766095676200,4.29867626953125,0.18487946689128876,0.12597334384918213,-0.3137393891811371
1780625766105705200,4.308705322265625,0.21450670063495636,0.14880767464637756,-0.35464465618133545
1780625766115735300,4.3187353515625,0.24650511145591736,0.14952033758163452,-0.3905928134918213
1780625766125764000,4.32876416015625,0.267265647649765,0.14647069573402405,-0.41652753949165344
1780625766135794200,4.338794189453125,0.2750207483768463,0.11150125414133072,-0.43938571214675903
1780625766145824300,4.34882421875,0.26491567492485046,0.055304188281297684,-0.47124361991882324
1780625766155853300,4.358853271484375,0.24533477425575256,0.008133478462696075,-0.5025328397750854
1780625766165883400,4.36888330078125,0.216812402009964,0.007688266225159168,-0.5205355286598206
1780625766175913200,4.378913330078125,0.18276283144950867,0.0565897598862648,-0.49235451221466064
1780625766185942300,4.3889423828125,0.14793941378593445,0.1275547444820404,-0.39917439222335815
1780625766195972000,4.39897216796875,0.1268777996301651,0.2403116673231125,-0.2890619933605194
1780625766206002200,4.409002197265625,0.13549785315990448,0.3742785155773163,-0.18950358033180237
1780625766216031200,4.41903125,0.178216814994812,0.4213021993637085,-0.11421254277229309
1780625766226061000,4.42906103515625,0.2320520430803299,0.4026656746864319,-0.07542107999324799
1780625766236090000,4.439090087890625,0.2990821897983551,0.36350202560424805,-0.09104957431554794
1780625766246120200,4.4491201171875,0.3724529445171356,0.35394179821014404,-0.15295659005641937
1780625766256150300,4.459150390625,0.4365946650505066,0.3650144338607788,-0.2527273893356323
1780625766266179300,4.469179443359375,0.48222899436950684,0.40556079149246216,-0.39002639055252075
1780625766276209200,4.479209228515625,0.4978758692741394,0.42854946851730347,-0.5746391415596008
1780625766286239200,4.4892392578125,0.4910271167755127,0.4479144513607025,-0.7943820357322693
1780625766296268300,4.499268310546875,0.46571722626686096,0.5024355053901672,-1.033856749534607
1780625766306298400,4.50929833984375,0.4301077723503113,0.576166570186615,-1.2132622003555298
1780625766316328200,4.519328125,0.385675847530365,0.6283983588218689,-1.2806974649429321
1780625766326357200,4.529357177734375,0.3389245271682739,0.62764972448349,-1.217801809310913
1780625766336387000,4.539386962890625,0.3148500621318817,0.585868239402771,-1.0322226285934448
1780625766346417200,4.549417236328125,0.3099718391895294,0.4816296696662903,-0.7794778347015381
1780625766356446200,4.5594462890625,0.31809288263320923,0.34358179569244385,-0.5511122941970825
1780625766366476800,4.569476806640625,0.29833072423934937,0.18366041779518127,-0.41803598403930664
1780625766376505900,4.579505859375,0.23053890466690063,0.02161293290555477,-0.375347375869751
1780625766386536000,4.589535888671875,0.1341632455587387,0.010565148666501045,-0.40456855297088623
1780625766396566000,4.59956591796875,0.026889244094491005,0.12761054933071136,-0.46034979820251465
1780625766406594800,4.6095947265625,-0.04995051398873329,0.2263725847005844,-0.4881224036216736
1780625766416625000,4.619625,-0.08975278586149216,0.2584186792373657,-0.4639451801776886
1780625766426654700,4.62965478515625,-0.08421406894922256,0.2332361787557602,-0.43092671036720276
1780625766436683800,4.639683837890625,-0.020271308720111847,0.18096444010734558,-0.43123698234558105
1780625766446713900,4.6497138671875,0.05857992544770241,0.1786961853504181,-0.4709714353084564
1780625766456744000,4.659743896484375,0.14298535883426666,0.20455947518348694,-0.5328683853149414
1780625766466772700,4.669772705078125,0.18455469608306885,0.19870275259017944,-0.6126817464828491
1780625766476802800,4.679802734375,0.16591016948223114,0.20888109505176544,-0.7258844375610352
1780625766486831900,4.689831787109375,0.09739691764116287,0.23684637248516083,-0.8755892515182495
1780625766496862000,4.699862060546875,0.013342492282390594,0.2756371796131134,-1.0221030712127686
1780625766506891800,4.709891845703125,-0.01602606475353241,0.35606369376182556,-1.1069358587265015
1780625766516920800,4.7199208984375,-0.024845123291015625,0.42357510328292847,-1.0836020708084106
1780625766526951000,4.729950927734375,0.006059831473976374,0.4800988435745239,-0.9585532546043396
1780625766536981000,4.73998095703125,0.07432889938354492,0.4658477306365967,-0.7316540479660034
1780625766547010000,4.750010009765625,0.13270960748195648,0.4084733724594116,-0.47841814160346985
1780625766557039600,4.76003955078125,0.16909638047218323,0.39053085446357727,-0.2585321068763733
1780625766567069700,4.770069580078125,0.19151468575000763,0.3957240879535675,-0.08286603540182114
1780625766577098800,4.7800986328125,0.17993474006652832,0.42534589767456055,0.010095326229929924
1780625766587128800,4.79012890625,0.13319016993045807,0.435636043548584,0.009356323629617691
1780625766597159000,4.800158935546875,0.07134970277547836,0.39594537019729614,-0.03423456475138664
1780625766607187700,4.810187744140625,0.015473505482077599,0.3482587933540344,-0.10016752034425735
1780625766617217800,4.8202177734375,-0.01966610737144947,0.30163484811782837,-0.15617139637470245
1780625766627246800,4.830246826171875,-0.038564812391996384,0.2651015818119049,-0.18085676431655884
1780625766637277000,4.84027685546875,-0.051571425050497055,0.22871772944927216,-0.17535465955734253
1780625766647307000,4.85030712890625,-0.05880601704120636,0.16344720125198364,-0.14574876427650452
1780625766657335800,4.860335693359375,-0.07230371981859207,0.08986085653305054,-0.07747116684913635
1780625766667366000,4.870365966796875,-0.10317867249250412,0.04747540503740311,0.025640668347477913
1780625766677395700,4.880395751953125,-0.14372344315052032,0.053846754133701324,0.10081052035093307
1780625766687425000,4.890425048828125,-0.16930517554283142,0.03326985239982605,0.09061447530984879
1780625766697454800,4.900454833984375,-0.1704825609922409,-0.005445316433906555,0.008586719632148743
1780625766707485000,4.91048486328125,-0.15695203840732574,-0.01706957258284092,-0.09528583288192749
1780625766717513700,4.920513671875,-0.15076126158237457,-0.019560961052775383,-0.18159329891204834
1780625766727543800,4.930543701171875,-0.13680173456668854,-0.01959925889968872,-0.20001082122325897
1780625766737572900,4.94057275390625,-0.11905389279127121,-0.010810027830302715,-0.16828803718090057
1780625766747603000,4.95060302734375,-0.09679882228374481,0.0015985695645213127,-0.1009608581662178
1780625766757632800,4.9606328125,-0.08034181594848633,0.034369032829999924,-0.021718505769968033
1780625766767661800,4.970661865234375,-0.07497008889913559,0.06310072541236877,0.05303073674440384
1780625766777692000,4.98069189453125,-0.08662008494138718,0.07009099423885345,0.10052687674760818
1780625766787722000,4.990721923828125,-0.11002977192401886,0.048732392489910126,0.11183548718690872
1780625766797751000,5.0007509765625,-0.13480302691459656,0.02126401849091053,0.08673039823770523
1780625766807780900,5.01078076171875,-0.16013769805431366,0.03305589780211449,0.03185025975108147
1780625766817810700,5.020810791015625,-0.1875663846731186,0.050551533699035645,-0.01246740110218525
1780625766827839700,5.03083984375,-0.20611394941806793,0.05001024529337883,-0.011695394292473793
1780625766837869800,5.040869873046875,-0.20130987465381622,0.04644826427102089,0.021698780357837677
1780625766847900000,5.05089990234375,-0.1949758529663086,0.05862731859087944,0.06345321238040924
1780625766857928700,5.0609287109375,-0.19645443558692932,0.06948955357074738,0.09931827336549759
1780625766867958800,5.070958740234375,-0.21036995947360992,0.0828937292098999,0.12139883637428284
1780625766877987800,5.08098779296875,-0.23340150713920593,0.09789691865444183,0.10440120846033096
1780625766888018000,5.091017822265625,-0.2649677097797394,0.11025391519069672,0.0263395793735981
1780625766898048000,5.101048095703125,-0.29236575961112976,0.10348469763994217,-0.08676993101835251
1780625766908076800,5.111076904296875,-0.30857354402542114,0.09886814653873444,-0.16520510613918304
1780625766918107000,5.12110693359375,-0.31174856424331665,0.09457993507385254,-0.17867085337638855
1780625766928136700,5.13113671875,-0.3084900379180908,0.07654907554388046,-0.13855423033237457
1780625766938166000,5.141166015625,-0.2998656630516052,0.07840023189783096,-0.060435473918914795
1780625766948195800,5.15119580078125,-0.304999440908432,0.09821437299251556,0.015226438641548157
1780625766958226000,5.161225830078125,-0.32584986090660095,0.1273493468761444,0.06325415521860123
1780625766968254700,5.171254638671875,-0.3487601578235626,0.15519890189170837,0.0966259241104126
1780625766978284800,5.181284912109375,-0.34788718819618225,0.1672973781824112,0.10556056350469589
1780625766988315000,5.19131494140625,-0.32581979036331177,0.17797349393367767,0.08943577855825424
1780625766998344000,5.201343994140625,-0.2860755920410156,0.1612834632396698,0.06569316238164902
1780625767008373800,5.211373779296875,-0.2457484006881714,0.17925702035427094,0.04718250781297684
1780625767018402800,5.22140283203125,-0.2106063812971115,0.2526654601097107,0.042767252773046494
1780625767028433000,5.231432861328125,-0.18295662105083466,0.32001277804374695,0.05695526674389839
1780625767038463000,5.241462890625,-0.1804436594247818,0.41129714250564575,0.036627624183893204
1780625767048492000,5.251491943359375,-0.2063840627670288,0.5180061459541321,0.005815192591398954
1780625767058521900,5.26152197265625,-0.2456800788640976,0.556422770023346,0.030907761305570602
1780625767068551700,5.2715517578125,-0.27860358357429504,0.4798676073551178,0.10518407076597214
1780625767078580700,5.281580810546875,-0.29843640327453613,0.39052680134773254,0.18942119181156158
1780625767088610800,5.29161083984375,-0.3075297176837921,0.39120256900787354,0.2270159125328064
1780625767098641000,5.301640869140625,-0.3008398711681366,0.43465471267700195,0.20734713971614838
1780625767108669700,5.311669677734375,-0.27893900871276855,0.41076523065567017,0.14953266084194183
1780625767118699800,5.32169970703125,-0.2524493336677551,0.38864660263061523,0.06115831434726715
1780625767128729900,5.331729736328125,-0.2569204270839691,0.42523449659347534,-0.0368306003510952
1780625767138759000,5.341759033203125,-0.26431068778038025,0.5116700530052185,-0.1454865038394928
1780625767148789000,5.3517890625,-0.1467778980731964,0.5182121396064758,-0.220580592751503
1780625767158817800,5.36181787109375,-0.1250515580177307,0.5165582895278931,-0.29553791880607605
1780625767168848000,5.371847900390625,-0.14418543875217438,0.5595831871032715,-0.3875417113304138
1780625767178878000,5.3818779296875,-0.14670798182487488,0.581880509853363,-0.4503023028373718
1780625767188907000,5.391906982421875,-0.14521056413650513,0.5566695332527161,-0.46326500177383423
1780625767198936800,5.401936767578125,-0.13565382361412048,0.4564265310764313,-0.40837088227272034
1780625767208966700,5.411966552734375,-0.1346333771944046,0.3358824551105499,-0.3012380003929138
1780625767218995700,5.42199560546875,-0.1345822513103485,0.2995723783969879,-0.17723588645458221
1780625767229025800,5.43202587890625,-0.15550680458545685,0.32097238302230835,-0.09822583943605423
1780625767239056000,5.442055908203125,-0.17080771923065186,0.24075156450271606,-0.06761971861124039
1780625767249085000,5.4520849609375,-0.16399376094341278,0.14883176982402802,-0.06606896221637726
1780625767259114800,5.46211474609375,-0.15497896075248718,0.1074473112821579,-0.07830033451318741
1780625767269144800,5.472144775390625,-0.12010721862316132,0.09204317629337311,-0.10159264504909515
1780625767279174000,5.482173828125,-0.07454053312540054,0.12106417119503021,-0.12457998096942902
1780625767289204000,5.492203857421875,-0.01218668557703495,0.10659008473157883,-0.14683441817760468
1780625767299233800,5.50223388671875,0.05195261910557747,0.0776929184794426,-0.18008850514888763
1780625767309262800,5.512262939453125,0.08642195165157318,0.014011532999575138,-0.17745627462863922
1780625767319292700,5.522292724609375,0.06265537440776825,-0.08306494355201721,-0.12963762879371643
1780625767329322000,5.532322021484375,-0.01956159807741642,-0.08946151286363602,-0.04726887494325638
1780625767339351800,5.542351806640625,-0.0850018635392189,-0.05270136892795563,0.002196943387389183
1780625767349382000,5.5523818359375,-0.11898213624954224,-0.04855188727378845,-0.0037694862112402916
1780625767359410700,5.56241064453125,-0.1410253942012787,-0.07740724086761475,0.006854662671685219
1780625767369440000,5.57243994140625,-0.16250014305114746,-0.11957436054944992,0.027618635445833206
1780625767379470000,5.582469970703125,-0.1651393324136734,-0.15026810765266418,0.07339970767498016
1780625767389499100,5.5924990234375,-0.18266192078590393,-0.12082404643297195,0.11051171272993088
1780625767399529000,5.602529052734375,-0.2272552251815796,-0.050835900008678436,0.07496970146894455
1780625767409559000,5.61255908203125,-0.3117113411426544,0.006849006749689579,0.06024174392223358
1780625767419588000,5.622588134765625,-0.4193075895309448,-0.14364676177501678,0.04502284526824951
1780625767429618200,5.6326181640625,-0.7110450863838196,-0.2759575843811035,-0.0012813080102205276
1780625767439648300,5.642648193359375,-1.5553357601165771,-0.7113290429115295,-0.5031710863113403
1780625767449677000,5.652677001953125,-3.114631414413452,-3.559415340423584,-1.4892023801803589
1780625767459707100,5.66270703125,-3.5935094356536865,-4.610199928283691,-1.4423121213912964
1780625767469736200,5.672736083984375,-4.29425048828125,-2.826230764389038,-2.1265182495117188
1780625767479766000,5.68276611328125,-3.676647424697876,0.5878493785858154,-1.69870924949646
1780625767489796000,5.692796142578125,-2.039362907409668,4.1060357093811035,-0.8923825025558472
1780625767499825000,5.702824951171875,0.45423004031181335,1.7007431983947754,0.20626437664031982
1780625767509855000,5.71285498046875,1.0439834594726562,1.0343117713928223,0.7030370831489563
1780625767519885000,5.722885009765625,0.8183085322380066,0.632054328918457,0.7047539949417114
1780625767529914000,5.7329140625,0.547408401966095,0.6646581888198853,0.7696697115898132
1780625767539944200,5.742944091796875,0.3924436569213867,0.8591853380203247,0.8400999307632446
1780625767549974300,5.752974365234375,0.2676277458667755,1.3530815839767456,0.8915424346923828
1780625767560003000,5.763003173828125,0.2291000783443451,1.6815422773361206,1.0109668970108032
1780625767570033200,5.773033203125,0.30007287859916687,1.7935709953308105,1.024965524673462
1780625767580063200,5.783063232421875,0.39778265357017517,1.5352802276611328,0.8607569336891174
1780625767590092300,5.79309228515625,0.4488219618797302,1.155113697052002,0.6469146013259888
1780625767600122000,5.8031220703125,0.2937868535518646,0.6605780720710754,0.3483276069164276
1780625767610152000,5.81315185546875,0.08253522217273712,0.4374919533729553,0.2134859412908554
1780625767620181000,5.823180908203125,-0.1157672181725502,0.3525243103504181,0.1924658715724945
1780625767630211000,5.833211181640625,-0.26080283522605896,0.40254345536231995,0.20238125324249268
1780625767640240000,5.843240234375,-0.34948262572288513,0.5331856608390808,0.22484713792800903
1780625767650270000,5.85327001953125,-0.36734747886657715,0.684979259967804,0.2218148112297058
1780625767660300000,5.863300048828125,-0.3343852758407593,0.7100734710693359,0.21679262816905975
1780625767670329000,5.8733291015625,-0.23369969427585602,0.616077721118927,0.23688508570194244
1780625767680359200,5.883359130859375,-0.11678158491849899,0.48394766449928284,0.29517555236816406
1780625767690389200,5.89338916015625,-0.04898563027381897,0.2811053991317749,0.31165316700935364
1780625767700418000,5.90341796875,-0.07328350841999054,0.14164310693740845,0.3262121379375458
1780625767710448000,5.9134482421875,-0.18735720217227936,0.17280058562755585,0.34317100048065186
1780625767720478000,5.92347802734375,-0.3120861053466797,0.17839135229587555,0.28241655230522156
1780625767730507000,5.933507080078125,-0.4149078130722046,0.09996045380830765,0.21143929660320282
1780625767740537000,5.943537109375,-0.47079983353614807,0.021595340222120285,0.16919757425785065
1780625767750567200,5.953567138671875,-0.4602036774158478,-0.13744916021823883,0.10580209642648697
1780625767760596000,5.963595947265625,-0.37520062923431396,-0.31215786933898926,0.08985429257154465
1780625767770626000,5.9736259765625,-0.2880752682685852,-0.3767242729663849,0.13667704164981842
1780625767780656000,5.98365625,-0.3245011866092682,-0.18706698715686798,0.18011240661144257
1780625767790685200,5.993685302734375,-0.3938717246055603,-0.1071087196469307,0.17576594650745392
1780625767800715300,6.00371533203125,-0.3391967713832855,-0.12002318352460861,0.18866629898548126
1780625767810744000,6.013744140625,-0.19758503139019012,-0.1841670274734497,0.2585178315639496
1780625767820774100,6.023774169921875,-0.14813360571861267,-0.2853253483772278,0.3376981317996979
1780625767830804200,6.03380419921875,-0.1618075668811798,-0.22178475558757782,0.40564656257629395
1780625767840833300,6.043833251953125,-0.23103590309619904,-0.1790279746055603,0.4184526205062866
1780625767850863000,6.053863037109375,-0.21284140646457672,-0.26888102293014526,0.409618616104126
1780625767860893000,6.063892822265625,-0.2376175969839096,-0.23513425886631012,0.35045570135116577
1780625767870922000,6.073921875,-0.17374736070632935,-0.3310154676437378,0.26337549090385437
1780625767880952000,6.0839521484375,-0.14868435263633728,-0.5145996809005737,0.2831595838069916
1780625767890982100,6.093982177734375,-0.15970180928707123,-0.6812752485275269,0.3577568829059601
1780625767901011000,6.104010986328125,-0.14299793541431427,-0.6984907388687134,0.3366025984287262
1780625767911041000,6.114041015625,-0.12006663531064987,-0.638144850730896,0.23257632553577423
1780625767921071000,6.124071044921875,-0.17039158940315247,-0.5009222626686096,0.05134076997637749
1780625767931100200,6.13410009765625,-0.2487107813358307,-0.16904446482658386,-0.11288387328386307
1780625767941130200,6.144130126953125,-0.29758989810943604,0.054220035672187805,-0.22694705426692963
1780625767951160300,6.154160400390625,-0.36028409004211426,0.14757412672042847,-0.30946770310401917
1780625767961189000,6.164189208984375,-0.43195801973342896,0.13229557871818542,-0.4415426552295685
1780625767971219000,6.174218994140625,-0.4193495213985443,-0.14043490588665009,-0.5431047677993774
1780625767981249000,6.1842490234375,-0.3178234398365021,-0.4978707730770111,-0.7137449383735657
1780625767991278000,6.194278076171875,-0.3125816285610199,-1.2117384672164917,-0.5954945087432861
1780625768001308200,6.20430810546875,-0.19272686541080475,-1.6254891157150269,-0.34344473481178284
1780625768011337000,6.2143369140625,0.3906763195991516,-1.5310410261154175,-0.15922671556472778
1780625768021367000,6.224366943359375,1.5008773803710938,-1.371117115020752,-0.03477640450000763
1780625768031397000,6.234397216796875,2.5768446922302246,-1.4315906763076782,0.38026517629623413
1780625768041426200,6.24442626953125,2.8000826835632324,-1.3906322717666626,0.9561476707458496
1780625768051456300,6.254456298828125,2.6528565883636475,-1.0085880756378174,1.24876868724823
1780625768061486000,6.264486083984375,2.527730703353882,-0.4470226764678955,1.1507494449615479
1780625768071515100,6.27451513671875,2.4304261207580566,-0.026961814612150192,0.9413986206054688
1780625768081545200,6.284545166015625,2.3598029613494873,0.15299837291240692,0.8149788975715637
1780625768091575000,6.294574951171875,2.184291362762451,0.20168423652648926,0.7580063343048096
1780625768101604000,6.30460400390625,1.8688807487487793,0.3487794101238251,0.6474792957305908
1780625768111634000,6.314634033203125,1.4974358081817627,0.549177885055542,0.44411173462867737
1780625768121664000,6.3246640625,1.118818998336792,0.6931318640708923,0.21404843032360077
1780625768131693000,6.334693115234375,0.7738476395606995,0.6184086799621582,-0.0398147776722908
1780625768141723100,6.34472314453125,0.4682759940624237,0.3967069685459137,-0.3154847025871277
1780625768151753200,6.354753173828125,0.19623836874961853,0.14758959412574768,-0.5835970044136047
1780625768161782000,6.364781982421875,-0.015950048342347145,-0.0073613692075014114,-0.8599742650985718
1780625768171812000,6.37481201171875,-0.18035204708576202,-0.02143803983926773,-1.0967684984207153
1780625768181842200,6.38484228515625,-0.3078697919845581,0.027752414345741272,-1.252429723739624
1780625768191871200,6.394871337890625,-0.3965354561805725,0.0758335068821907,-1.3146789073944092
1780625768201901300,6.4049013671875,-0.45066526532173157,0.08962894231081009,-1.3392164707183838
1780625768211930000,6.41493017578125,-0.46995073556900024,0.058547042310237885,-1.3511334657669067
1780625768221960200,6.424960205078125,-0.4768217206001282,0.03407605364918709,-1.3156065940856934
1780625768231990000,6.434989990234375,-0.4822351038455963,0.0361514575779438,-1.238959550857544
1780625768242019000,6.44501904296875,-0.49753284454345703,-0.01843482255935669,-1.1354559659957886
1780625768252049200,6.455049072265625,-0.46567508578300476,-0.13393661379814148,-1.0595005750656128
1780625768262079000,6.465078857421875,-0.4025019705295563,-0.25785455107688904,-1.010314702987671
1780625768272108000,6.47510791015625,-0.29893171787261963,-0.3628513216972351,-0.9295105338096619
1780625768282138000,6.48513818359375,-0.14163638651371002,-0.36705243587493896,-0.8090645670890808
1780625768292168200,6.495168212890625,0.012208173982799053,-0.2608059048652649,-0.687396764755249
1780625768302197000,6.505197021484375,0.08179231733083725,-0.1702698916196823,-0.6099304556846619
1780625768312227000,6.51522705078125,0.08676330745220184,-0.1694677621126175,-0.602270245552063
1780625768322257200,6.525257080078125,0.060482174158096313,-0.18964172899723053,-0.6572967767715454
1780625768332286200,6.5352861328125,0.029513074085116386,-0.24032355844974518,-0.7143930792808533
1780625768342316000,6.54531591796875,0.007708176039159298,-0.3122835159301758,-0.7208674550056458
1780625768352346000,6.55534619140625,-0.007897398434579372,-0.3352062404155731,-0.660978376865387
1780625768362375000,6.565375,0.0008897015359252691,-0.36679932475090027,-0.5207967758178711
1780625768372406000,6.575406005859375,0.037233080714941025,-0.3618186116218567,-0.37521737813949585
1780625768382436000,6.58543603515625,0.08499554544687271,-0.3054557144641876,-0.2706257104873657
1780625768392465000,6.59546484375,0.13158178329467773,-0.23055633902549744,-0.20155446231365204
1780625768402495000,6.605494873046875,0.15218213200569153,-0.13359196484088898,-0.1583486646413803
1780625768412524000,6.61552392578125,0.1318739503622055,-0.04525528848171234,-0.11419537663459778
1780625768422554000,6.62555419921875,0.11040141433477402,-0.010115409269928932,-0.12225943803787231
1780625768432584000,6.635583984375,0.0850030779838562,-0.006017024628818035,-0.2062837928533554
1780625768442613000,6.645613037109375,0.03485069423913956,-0.035821523517370224,-0.2920708656311035
1780625768452642800,6.655642822265625,-0.028141556307673454,-0.0929073914885521,-0.3390433192253113
1780625768462673000,6.6656728515625,-0.0515371598303318,-0.1411132663488388,-0.3797774314880371
1780625768472702000,6.675701904296875,0.012784996069967747,-0.14383460581302643,-0.48862701654434204
1780625768482732000,6.68573193359375,0.13187196850776672,-0.15945617854595184,-0.5985157489776611
1780625768492762000,6.69576220703125,0.25261417031288147,-0.17937566339969635,-0.6177953481674194
1780625768502791000,6.705791015625,0.3726995587348938,-0.16561990976333618,-0.6352893710136414
1780625768512821000,6.715821044921875,0.49835509061813354,-0.10620298981666565,-0.7161614298820496
1780625768522851000,6.72585107421875,0.6138443946838379,-0.025433309376239777,-0.7359697222709656
1780625768532880100,6.735880126953125,0.6998868584632874,0.09892133623361588,-0.5659600496292114
1780625768542910000,6.745909912109375,0.7374637722969055,0.2765238285064697,-0.2766195833683014
1780625768552939800,6.755939697265625,0.6744122505187988,0.40563350915908813,-0.12760916352272034
1780625768562969000,6.765968994140625,0.4423893988132477,0.40850040316581726,-0.2356131225824356
1780625768572999000,6.7759990234375,0.13112524151802063,0.30299487709999084,-0.5477794408798218
1780625768583029000,6.786029052734375,-0.11977861821651459,0.10704267770051956,-0.8252406120300293
1780625768593057800,6.796057861328125,-0.22578737139701843,-0.028972476720809937,-0.9405521750450134
1780625768603088000,6.806087890625,-0.19739887118339539,-0.08213955909013748,-0.9398858547210693
1780625768613118000,6.816117919921875,-0.09281314164400101,-0.11932465434074402,-0.851895809173584
1780625768623147000,6.82614697265625,0.06180626153945923,-0.14422067999839783,-0.7248196005821228
1780625768633177000,6.836177001953125,0.19023497402668,-0.21193984150886536,-0.6008962988853455
1780625768643207200,6.846207275390625,0.2542983889579773,-0.24657663702964783,-0.5133557915687561
1780625768653236000,6.856236083984375,0.2727492153644562,-0.24346038699150085,-0.47408226132392883
1780625768663266000,6.86626611328125,0.2624305486679077,-0.218084454536438,-0.4829428791999817
1780625768673296000,6.8762958984375,0.23946531116962433,-0.18058772385120392,-0.49139437079429626
1780625768683325000,6.886324951171875,0.20266228914260864,-0.13677313923835754,-0.4948863089084625
1780625768693355000,6.89635498046875,0.17196515202522278,-0.11506308615207672,-0.49444395303726196
1780625768703384800,6.906384765625,0.13794219493865967,-0.09485635161399841,-0.46278589963912964
1780625768713414000,6.916413818359375,0.09662914276123047,-0.0601009763777256,-0.4163641929626465
1780625768723444000,6.92644384765625,0.060490310192108154,-0.08577198535203934,-0.40026405453681946
1780625768733474000,6.93647412109375,0.03976680338382721,-0.14289653301239014,-0.42444077134132385
1780625768743502800,6.9465029296875,0.021089792251586914,-0.20374417304992676,-0.4698455333709717
1780625768753533000,6.956532958984375,0.019215647131204605,-0.2379070222377777,-0.5345592498779297
1780625768763563000,6.96656298828125,0.025290584191679955,-0.28556588292121887,-0.5986258387565613
1780625768773592000,6.976592041015625,0.0371096208691597,-0.32371875643730164,-0.6409091949462891
1780625768783622100,6.9866220703125,0.04858837649226189,-0.30440178513526917,-0.634196937084198
1780625768793652000,6.99665185546875,0.08773189783096313,-0.2551976442337036,-0.5481594800949097
1780625768803681000,7.006680908203125,0.14453072845935822,-0.21219077706336975,-0.4193577766418457
1780625768813710800,7.0167109375,0.17613115906715393,-0.1861550509929657,-0.32509472966194153
1780625768823741000,7.026740966796875,0.15363650023937225,-0.13227318227291107,-0.2814580500125885
1780625768833770000,7.03677001953125,0.07717534899711609,-0.028708159923553467,-0.27843573689460754
1780625768843800000,7.046800048828125,-0.01939353346824646,0.10767099261283875,-0.2894817292690277
1780625768853830000,7.056829833984375,-0.0980360358953476,0.21919487416744232,-0.2944483160972595
1780625768863859000,7.06685888671875,-0.13716958463191986,0.27742141485214233,-0.3199869394302368
1780625768873889000,7.076888916015625,-0.13851912319660187,0.27450770139694214,-0.40148887038230896
1780625768883919000,7.086919189453125,-0.11547212302684784,0.21914272010326385,-0.5417314767837524
1780625768893948200,7.0969482421875,-0.0673140212893486,0.13260848820209503,-0.6947190165519714
1780625768903978000,7.10697802734375,0.01465594582259655,0.019718965515494347,-0.8029139041900635
1780625768914007800,7.1170078125,0.08579064905643463,-0.10170449316501617,-0.8392460346221924
1780625768924036900,7.127036865234375,0.10619818419218063,-0.1522374451160431,-0.7900893688201904
1780625768934067000,7.13706689453125,0.06565991789102554,-0.15315893292427063,-0.673222005367279
1780625768944096000,7.147095947265625,-0.02593790926039219,-0.12622106075286865,-0.5142453908920288
1780625768954125800,7.157125732421875,-0.12596258521080017,-0.09372960031032562,-0.3633555471897125
1780625768964156000,7.167156005859375,-0.17828677594661713,-0.07100271433591843,-0.25746238231658936
1780625768974186000,7.17718603515625,-0.2053086906671524,-0.0745481625199318,-0.2026154100894928
1780625768984215000,7.187215087890625,-0.18700212240219116,-0.06147097796201706,-0.2143934965133667
1780625768994245000,7.1972451171875,-0.14557300508022308,-0.05840325355529785,-0.25160518288612366
1780625769004275200,7.207275146484375,-0.1078818142414093,-0.0937119722366333,-0.24032722413539886
1780625769014304000,7.217303955078125,-0.09746032953262329,-0.11211957782506943,-0.20350885391235352
1780625769024334000,7.227333984375,-0.10626979917287827,-0.12318288534879684,-0.16278564929962158
1780625769034364000,7.237364013671875,-0.11223462969064713,-0.15710604190826416,-0.15385058522224426
1780625769044393000,7.24739306640625,-0.11944247782230377,-0.21281804144382477,-0.1936805546283722
1780625769054422800,7.2574228515625,-0.13346201181411743,-0.22561949491500854,-0.2127058058977127
1780625769064452900,7.267452880859375,-0.16220444440841675,-0.20478984713554382,-0.17773637175559998
1780625769074482000,7.27748193359375,-0.19027802348136902,-0.16952702403068542,-0.13859306275844574
1780625769084512000,7.287511962890625,-0.19010652601718903,-0.12411586195230484,-0.12181861698627472
1780625769094542000,7.2975419921875,-0.20038360357284546,-0.0807359591126442,-0.09924881160259247
1780625769104571000,7.30757080078125,-0.2311526983976364,-0.026112131774425507,-0.10876934230327606
1780625769114601000,7.31760107421875,-0.2510189712047577,-0.029373876750469208,-0.19073577225208282
1780625769124631000,7.327631103515625,-0.22416764497756958,-0.12186013907194138,-0.3281916379928589
1780625769134660000,7.33766015625,-0.16411815583705902,-0.20687994360923767,-0.5175445079803467
1780625769144690000,7.34768994140625,-0.08356471359729767,-0.1358228325843811,-0.6988970041275024
1780625769154719000,7.357718994140625,-0.005275128409266472,0.05438718944787979,-0.7779549956321716
1780625769164748800,7.367748779296875,0.06637641787528992,0.2685101330280304,-0.7765094041824341
1780625769174779000,7.37777880859375,0.10812405496835709,0.487211674451828,-0.8975133895874023
1780625769184808000,7.387807861328125,0.12241431325674057,0.6244211792945862,-1.1146752834320068
1780625769194838000,7.397838134765625,0.13546951115131378,0.7205594182014465,-1.331363320350647
1780625769204868000,7.4078681640625,0.1460137516260147,0.763489842414856,-1.5104835033416748
1780625769214897000,7.41789697265625,0.11149641871452332,0.7289395928382874,-1.6313709020614624
1780625769224927000,7.427927001953125,0.04131307080388069,0.7006906867027283,-1.6660574674606323
1780625769234957000,7.43795703125,-0.019605407491326332,0.7154731750488281,-1.640743613243103
1780625769244986000,7.447986083984375,-0.0409567691385746,0.7343541979789734,-1.5913290977478027
1780625769255016200,7.45801611328125,-0.034596532583236694,0.7847098112106323,-1.490177035331726
1780625769265045800,7.468045654296875,-0.03442582115530968,0.8964847922325134,-1.3353685140609741
1780625769275075800,7.478075927734375,-0.041217416524887085,0.9742895364761353,-1.2404670715332031
1780625769285105000,7.48810498046875,-0.04414848983287811,1.0054676532745361,-1.1979302167892456
1780625769295135000,7.498135009765625,-0.034411557018756866,0.9916133880615234,-1.173814296722412
1780625769305165000,7.5081650390625,0.009583067148923874,0.9495143890380859,-1.22029709815979
1780625769315193900,7.51819384765625,0.09199625998735428,0.9001999497413635,-1.3696870803833008
1780625769325224000,7.528223876953125,0.18065236508846283,0.9062900543212891,-1.5739803314208984
1780625769335254000,7.53825390625,0.22575798630714417,1.017555594444275,-1.7080790996551514
1780625769345283000,7.548282958984375,0.23481085896492004,1.1203738451004028,-1.696539282798767
1780625769355313200,7.558313232421875,0.22184287011623383,1.270114541053772,-1.6234772205352783
1780625769365343000,7.568343017578125,0.2044399082660675,1.391960620880127,-1.5219897031784058
1780625769375372300,7.578372314453125,0.2365601807832718,1.3825761079788208,-1.447101354598999
1780625769385402000,7.588402099609375,0.2365066409111023,1.407160758972168,-1.4555803537368774
1780625769395432200,7.59843212890625,0.2029372602701187,1.449658751487732,-1.485239863395691
1780625769405461200,7.608461181640625,0.17563533782958984,1.4825359582901,-1.5059329271316528
1780625769415491300,7.6184912109375,0.1818307340145111,1.5577237606048584,-1.5498780012130737
1780625769425521400,7.628521484375,0.2543100118637085,1.558730125427246,-1.6327252388000488
1780625769435550200,7.63855029296875,0.41584646701812744,1.4479562044143677,-1.7599769830703735
1780625769445580300,7.648580322265625,0.5822069644927979,1.3022695779800415,-1.926245927810669
1780625769455610400,7.6586103515625,0.6873504519462585,1.2828845977783203,-2.0799672603607178
1780625769465639400,7.668639404296875,0.7552202939987183,1.2764840126037598,-2.1084415912628174
1780625769475669200,7.678669189453125,0.8876367807388306,1.3685302734375,-2.0923655033111572
1780625769485699000,7.688698974609375,1.0458335876464844,1.4228854179382324,-2.042386770248413
1780625769495728000,7.69872802734375,1.1222219467163086,1.4241015911102295,-1.9444254636764526
1780625769505758200,7.70875830078125,1.0830644369125366,1.2854803800582886,-1.7845649719238281
1780625769515788300,7.718788330078125,1.0353659391403198,1.0646893978118896,-1.6057419776916504
1780625769525817000,7.728817138671875,0.9707056879997253,0.9042991995811462,-1.4127227067947388
1780625769535847200,7.73884716796875,0.8264608979225159,0.721184492111206,-1.2428481578826904
1780625769545877200,7.748877197265625,0.7937538027763367,0.49417051672935486,-1.1316715478897095
1780625769555906300,7.75890625,0.6406099200248718,0.2717735171318054,-1.0359768867492676
1780625769565936400,7.768936279296875,0.4052954614162445,0.10374348610639572,-0.9524239301681519
1780625769575966500,7.778966552734375,0.15353833138942719,-0.028515730053186417,-0.7739326357841492
1780625769585995300,7.788995361328125,-0.16200152039527893,-0.1593128889799118,-0.5996559262275696
1780625769596025300,7.799025390625,-0.47800955176353455,-0.3319164514541626,-0.42856070399284363
1780625769606055200,7.80905517578125,-0.733482301235199,-0.44943031668663025,-0.27732378244400024
1780625769616084200,7.819084228515625,-0.8866643905639648,-0.46458810567855835,-0.150042325258255
1780625769626114300,7.8291142578125,-0.9505535960197449,-0.5512811541557312,-0.020790057256817818
1780625769636144000,7.83914404296875,-1.0029981136322021,-0.6017635464668274,0.10328278690576553
1780625769646173200,7.849173095703125,-1.0666254758834839,-0.6463446021080017,0.20778150856494904
1780625769656203300,7.859203369140625,-1.1354362964630127,-0.7313267588615417,0.3023306727409363
1780625769666233300,7.8692333984375,-1.2548942565917969,-0.7780561447143555,0.39568617939949036
1780625769676262400,7.879262451171875,-1.3717678785324097,-0.8203262090682983,0.513227641582489
1780625769686292200,7.889292236328125,-1.3544669151306152,-0.6470881104469299,0.4226950705051422
1780625769696322300,7.899322265625,-1.0987896919250488,-0.21765851974487305,0.04096856340765953
1780625769706351400,7.909351318359375,-0.15727752447128296,0.7364330887794495,-0.8676442503929138
1780625769716381200,7.919381103515625,0.7739958763122559,0.6192510724067688,-1.23817777633667
1780625769726411300,7.929411376953125,0.6551552414894104,0.38812148571014404,-0.7801723480224609
1780625769736440000,7.939440185546875,-0.02082783728837967,0.8549685478210449,-0.6718801856040955
1780625769746470100,7.94947021484375,-0.8930487632751465,0.939927339553833,-0.45352309942245483
1780625769756500200,7.959500244140625,-0.986702024936676,0.4653948247432709,-0.2550714612007141
1780625769766529300,7.969529296875,-0.9017855525016785,-0.09635133296251297,-0.5054320693016052
1780625769776559400,7.979559326171875,-1.115415334701538,-0.13666941225528717,-0.5682601928710938
1780625769786589200,7.989589111328125,-1.1914794445037842,0.09088093042373657,-0.4574532210826874
1780625769796618200,7.9996181640625,-1.0613282918930054,0.2943132817745209,-0.4530092775821686
1780625769806648300,8.0096484375,-1.0012290477752686,0.17167524993419647,-0.5302494764328003
1780625769816678400,8.019678466796876,-1.207326889038086,0.026072632521390915,-0.5081239938735962
1780625769826707500,8.02970751953125,-1.2362449169158936,0.16073431074619293,-0.5578659772872925
1780625769836737300,8.0397373046875,-1.09018075466156,0.2182169407606125,-0.47364211082458496
1780625769846767000,8.04976708984375,-1.0900468826293945,0.16617637872695923,-0.28070569038391113
1780625769856796200,8.059796142578126,-1.0800482034683228,0.012793457135558128,-0.14140264689922333
1780625769866826200,8.069826171875,-1.0451819896697998,-0.1851116269826889,-0.07003205269575119
1780625769876856300,8.079856201171875,-1.0736263990402222,-0.35579848289489746,-0.0788726732134819
1780625769886885000,8.089885009765625,-1.0897126197814941,-0.4563367962837219,-0.026413992047309875
1780625769896915200,8.099915283203124,-1.0279712677001953,-0.5370250344276428,0.06441166996955872
1780625769906945300,8.1099453125,-0.950051486492157,-0.5836950540542603,0.07409146428108215
1780625769916974300,8.119974365234375,-0.9004725813865662,-0.5368573069572449,0.02806367725133896
1780625769927004400,8.13000439453125,-0.8731594681739807,-0.49746012687683105,-0.04816611111164093
1780625769937034500,8.140034423828125,-0.8719952702522278,-0.48746585845947266,-0.10701165348291397
1780625769947063300,8.150063232421875,-0.8536173105239868,-0.5029106140136719,-0.1633487045764923
1780625769957093000,8.160093017578125,-0.8202975988388062,-0.4736616313457489,-0.20391984283924103
1780625769967123200,8.170123291015624,-0.738349974155426,-0.4203462302684784,-0.22106952965259552
1780625769977152300,8.18015234375,-0.6702070832252502,-0.4746553301811218,-0.22731927037239075
1780625769987182300,8.190182373046875,-0.572055995464325,-0.5033924579620361,-0.21248573064804077
1780625769997212200,8.200212158203126,-0.49013763666152954,-0.4406666159629822,-0.16663095355033875
1780625770007241200,8.2102412109375,-0.42208588123321533,-0.36913543939590454,-0.11717179417610168
1780625770017271300,8.220271240234375,-0.3533805310726166,-0.32662010192871094,-0.08338484168052673
1780625770027301400,8.23030126953125,-0.2857082784175873,-0.32421475648880005,-0.07032336294651031
1780625770037330200,8.240330078125,-0.2051534503698349,-0.3493637442588806,-0.07675132155418396
1780625770047360300,8.2503603515625,-0.1391984075307846,-0.36877793073654175,-0.060297250747680664
1780625770057390300,8.260390380859375,-0.0688326433300972,-0.3794809877872467,-0.0704951137304306
1780625770067419400,8.27041943359375,0.007481301203370094,-0.38781481981277466,-0.0643828958272934
1780625770077449200,8.28044921875,0.1082705408334732,-0.38689687848091125,-0.10205807536840439
1780625770087479300,8.290479248046875,0.20597045123577118,-0.41809341311454773,-0.1383202075958252
1780625770097508000,8.300508056640625,0.2264457792043686,-0.44301849603652954,-0.12986716628074646
1780625770107538200,8.3105380859375,0.20081977546215057,-0.4709137976169586,-0.09867516160011292
1780625770117568300,8.320568359375,0.18459054827690125,-0.4933028519153595,-0.07914748042821884
1780625770127598300,8.330598388671875,0.16177818179130554,-0.5040414929389954,-0.0606108121573925
1780625770137627400,8.34062744140625,0.14339537918567657,-0.4705014228820801,-0.07172643393278122
1780625770147657200,8.3506572265625,0.14148323237895966,-0.46770909428596497,-0.07948875427246094
1780625770157687300,8.360687255859375,0.14386151731014252,-0.4994998276233673,-0.0761071965098381
1780625770167716400,8.37071630859375,0.17212164402008057,-0.5205289721488953,-0.07581264525651932
1780625770177746200,8.38074609375,0.1935712993144989,-0.5405838489532471,-0.05929439142346382
1780625770187776300,8.3907763671875,0.19626721739768982,-0.5306656956672668,-0.02882409654557705
1780625770197805000,8.40080517578125,0.22213783860206604,-0.47049498558044434,-0.03525872901082039
1780625770207835100,8.410835205078126,0.2555250823497772,-0.396551251411438,-0.05529288947582245
1780625770217865200,8.420865234375,0.2742646038532257,-0.3170994520187378,-0.10131528973579407
1780625770227894300,8.430894287109375,0.32182520627975464,-0.25781962275505066,-0.14083154499530792
1780625770237924400,8.44092431640625,0.3614529073238373,-0.20162242650985718,-0.18711353838443756
1780625770247954400,8.450954345703124,0.426810085773468,-0.10288041085004807,-0.2555953860282898
1780625770257983200,8.460983154296875,0.4668549597263336,-0.07747291028499603,-0.27495917677879333
1780625770268013300,8.471013427734375,0.4816024601459503,-0.07200277596712112,-0.2598382830619812
1780625770278043400,8.48104345703125,0.4645020067691803,-0.07353983074426651,-0.2137194573879242
1780625770288072400,8.491072509765624,0.4136582612991333,-0.2048664391040802,-0.21330294013023376
1780625770298102300,8.501102294921875,0.33393269777297974,-0.28251683712005615,-0.19116654992103577
1780625770308132000,8.511132080078125,0.257851779460907,-0.3460436165332794,-0.17811307311058044
1780625770318161200,8.5211611328125,0.18307198584079742,-0.3917032480239868,-0.19257764518260956
1780625770328191200,8.531191162109375,0.35434627532958984,-0.3002431094646454,-0.10022134333848953
1780625770338221300,8.54122119140625,0.15751969814300537,-0.3363538384437561,-0.172224223613739
1780625770348250000,8.55125,0.1519070863723755,-0.3671559691429138,-0.1758652925491333
1780625770358280200,8.5612802734375,0.1783001571893692,-0.3625622093677521,-0.16779808700084686
1780625770368310300,8.571310302734375,0.1988946497440338,-0.34084200859069824,-0.17378246784210205
1780625770378338800,8.5813388671875,0.21863742172718048,-0.31955382227897644,-0.21762433648109436
1780625770388369000,8.591368896484376,0.24632737040519714,-0.2835337817668915,-0.27700138092041016
1780625770398399000,8.60139892578125,0.24049822986125946,-0.30175602436065674,-0.3150199353694916
1780625770408428000,8.611427978515625,0.21356329321861267,-0.33628976345062256,-0.33629167079925537
1780625770418458000,8.6214580078125,0.2075200229883194,-0.3441978394985199,-0.3460284173488617
1780625770428487700,8.63148779296875,0.1621464192867279,-0.3592308461666107,-0.3217664957046509
1780625770438516700,8.641516845703125,0.09290805459022522,-0.35522544384002686,-0.299079030752182
1780625770448546800,8.651546875,0.04614054411649704,-0.35688379406929016,-0.2281382828950882
1780625770458577000,8.661576904296876,0.021117141470313072,-0.35855457186698914,-0.13313032686710358
1780625770468606000,8.67160595703125,0.035381563007831573,-0.3526149392127991,-0.04955499619245529
1780625770478635800,8.6816357421875,0.04802527651190758,-0.39255639910697937,0.05453382059931755
1780625770488665900,8.691665771484375,0.09170990437269211,-0.33642521500587463,0.118529312312603
1780625770498696000,8.701696044921874,0.1156708225607872,-0.2862301170825958,0.17459014058113098
1780625770508725000,8.71172509765625,0.32789066433906555,-0.2516455054283142,0.23927059769630432
1780625770518755000,8.721755126953125,0.16579054296016693,-0.18011519312858582,0.18482376635074615
1780625770528785000,8.731784912109376,0.047837816178798676,-0.33169275522232056,0.028593942523002625
1780625770538814000,8.74181396484375,0.020658133551478386,-0.43146848678588867,-0.11675144731998444
1780625770548843800,8.75184375,-0.0031561190262436867,-0.46190229058265686,-0.2511361539363861
1780625770558873900,8.761873779296875,0.005343416705727577,-0.5126306414604187,-0.38372674584388733
1780625770568903000,8.77190283203125,-0.0051126861944794655,-0.5051577687263489,-0.4556179940700531
1780625770578933000,8.78193310546875,-0.029625888913869858,-0.5670939087867737,-0.51949143409729
1780625770588962800,8.791962890625,-0.060246117413043976,-0.6226692795753479,-0.5347633361816406
1780625770598992000,8.801991943359376,-0.13553591072559357,-0.6683995723724365,-0.5086836218833923
1780625770609022000,8.81202197265625,-0.11792255938053131,-0.5853148102760315,-0.4324277639389038
1780625770619052000,8.822052001953125,-0.34088924527168274,-0.8084065914154053,-0.4930984079837799
1780625770629080800,8.832080810546875,-0.44925248622894287,-0.9208531975746155,-0.5327326655387878
1780625770639111000,8.84211083984375,-0.51200270652771,-0.9770545363426208,-0.5288939476013184
1780625770649140700,8.852140625,-0.5294003486633301,-0.9882006645202637,-0.525573194026947
1780625770659169800,8.862169677734375,-0.5221065282821655,-0.9916812181472778,-0.5312815308570862
1780625770669200000,8.872199951171876,-0.4733850359916687,-1.010788083076477,-0.533099889755249
1780625770679230000,8.88222998046875,-0.4034261107444763,-0.9749177098274231,-0.5496639609336853
1780625770689258800,8.8922587890625,-0.35919126868247986,-0.8638277053833008,-0.5535090565681458
1780625770699288800,8.902288818359375,-0.359718382358551,-0.712279200553894,-0.5231478214263916
1780625770709319000,8.91231884765625,-0.30545487999916077,-0.5987311005592346,-0.44462448358535767
1780625770719348000,8.922347900390625,-0.26049020886421204,-0.4733940064907074,-0.33411115407943726
1780625770729378000,8.9323779296875,-0.2152303159236908,-0.29673612117767334,-0.21082833409309387
1780625770739408000,8.942407958984376,-0.14751465618610382,-0.09835831820964813,-0.09058848768472672
1780625770749437000,8.95243701171875,-0.06295576691627502,0.11209636926651001,0.02020021714270115
1780625770759467000,8.962467041015625,-0.0020316927693784237,0.3172954320907593,0.12888602912425995
1780625770769496800,8.972496826171875,0.07224679738283157,0.4643019139766693,0.2024095207452774
1780625770779527000,8.98252685546875,0.16223075985908508,0.5778520107269287,0.21638137102127075
1780625770789555700,8.9925556640625,0.22590215504169464,0.6555907130241394,0.1946350634098053
1780625770799585800,9.002585693359375,0.2739880084991455,0.685722291469574,0.12026801705360413
1780625770809616000,9.012615966796876,0.3000483810901642,0.7072592973709106,0.041445109993219376
1780625770819645000,9.02264501953125,0.3162030279636383,0.6968134045600891,-0.011464118957519531
1780625770829675000,9.032675048828125,0.30585187673568726,0.6415624022483826,-0.035440292209386826
1780625770839705000,9.042705078125,0.2979535162448883,0.6257413625717163,-0.036421287804841995
1780625770849734000,9.05273388671875,0.28810086846351624,0.6474418640136719,-0.022580306977033615
1780625770859764000,9.062763916015625,0.3086265027523041,0.6596770286560059,0.013857053592801094
1780625770869793800,9.072793701171875,0.3466484546661377,0.7032415270805359,0.06662119925022125
1780625770879822800,9.08282275390625,0.4161369800567627,0.737838864326477,0.12016130238771439
1780625770889853000,9.09285302734375,0.48694297671318054,0.8052056431770325,0.17751087248325348
1780625770899882800,9.1028828125,0.5781108140945435,0.9098532795906067,0.24340222775936127
1780625770909911800,9.112911865234375,0.66579669713974,0.9971250891685486,0.3076307475566864
1780625770919942000,9.12294189453125,0.7725499868392944,1.0784860849380493,0.3460918068885803
1780625770929972000,9.132971923828125,0.8480982780456543,1.1815993785858154,0.3734554946422577
1780625770940000800,9.143000732421875,0.8912560343742371,1.2631863355636597,0.3893446922302246
1780625770950030800,9.15303076171875,0.9412906765937805,1.296634554862976,0.3598885238170624
1780625770960061000,9.16306103515625,0.995367705821991,1.2899761199951172,0.3183092474937439
1780625770970090000,9.173090087890625,1.0295342206954956,1.2692087888717651,0.3087828457355499
1780625770980120000,9.1831201171875,1.1178772449493408,1.272984266281128,0.2524948716163635
1780625770990150000,9.19314990234375,1.200157642364502,1.2684191465377808,0.2356913685798645
1780625771000180000,9.203179931640625,1.2552111148834229,1.3024091720581055,0.24484869837760925
1780625771010208800,9.213208740234375,1.344099760055542,1.3927854299545288,0.24213705956935883
1780625771020238800,9.22323876953125,1.428179144859314,1.4602952003479004,0.2358727604150772
1780625771030269000,9.23326904296875,1.4844766855239868,1.4920419454574585,0.23231743276119232
1780625771040298000,9.243298095703125,1.5479599237442017,1.4558919668197632,0.2177463322877884
1780625771050327800,9.253327880859375,1.5925135612487793,1.3822699785232544,0.2118823230266571
1780625771060358000,9.26335791015625,1.5721790790557861,1.179243803024292,0.3002874255180359
1780625771070387000,9.273386962890624,1.5640673637390137,1.105852484703064,0.31773537397384644
1780625771080417000,9.2834169921875,1.625327229499817,1.1445609331130981,0.2630716860294342
1780625771090446800,9.29344677734375,1.713545560836792,1.2421671152114868,0.20726485550403595
1780625771100476000,9.303475830078124,1.7926180362701416,1.3152706623077393,0.15457482635974884
1780625771110505700,9.313505615234375,1.807752251625061,1.3509790897369385,0.18963374197483063
1780625771120535800,9.323535888671875,1.8327977657318115,1.3625476360321045,0.20796604454517365
1780625771130564900,9.33356494140625,1.855628490447998,1.2430028915405273,0.20299844443798065
1780625771140595000,9.343594970703125,1.798789143562317,1.0846914052963257,0.2083233892917633
1780625771150625000,9.353625,1.7144604921340942,1.0583585500717163,0.1540771871805191
1780625771160653800,9.36365380859375,1.6735525131225586,0.9845382571220398,0.12804101407527924
1780625771170684000,9.373683837890624,1.6119587421417236,0.8480275273323059,0.18040195107460022
1780625771180714000,9.3837138671875,1.5320570468902588,0.7637069821357727,0.2745321989059448
1780625771190743800,9.393743896484375,1.5341585874557495,0.7525142431259155,0.25181064009666443
1780625771200773000,9.403773193359376,1.5792895555496216,0.7501141428947449,0.19426561892032623
1780625771210802700,9.413802734375,1.5705968141555786,0.7702492475509644,0.13665293157100677
1780625771220832800,9.423832763671875,1.5231236219406128,0.8087846040725708,0.035241372883319855
1780625771230861800,9.43386181640625,1.4167311191558838,0.7437438368797302,-0.012782344594597816
1780625771240892000,9.443891845703124,1.234666347503662,0.5972586274147034,-0.02242128551006317
1780625771250922000,9.453921875,1.0675615072250366,0.49507415294647217,-0.03083660826086998
1780625771260950800,9.46395068359375,0.9620479941368103,0.3934295177459717,-0.040862586349248886
1780625771270980900,9.47398095703125,0.9285643100738525,0.28937554359436035,-0.09465018659830093
1780625771281011000,9.484010986328125,0.9384934306144714,0.22480644285678864,-0.16834212839603424
1780625771291040000,9.4940400390625,0.9636035561561584,0.19735191762447357,-0.2630595862865448
1780625771301070000,9.504070068359376,0.973520815372467,0.11465544253587723,-0.2883323132991791
1780625771311100000,9.514099853515624,0.8511059284210205,0.10080833733081818,-0.250419020652771
1780625771321129000,9.52412890625,0.6878542900085449,0.15690532326698303,-0.37364181876182556
1780625771331158800,9.53415869140625,0.6745821833610535,0.2996033728122711,-0.5199007987976074
1780625771341188900,9.54418896484375,0.8776285648345947,0.3762305676937103,-0.6071760654449463
1780625771351218000,9.554218017578124,1.1214933395385742,0.4542446732521057,-0.664732038974762
1780625771361247700,9.564247802734375,1.349664330482483,0.4460325539112091,-0.6031309962272644
1780625771371277800,9.57427783203125,1.4362239837646484,0.4868966341018677,-0.5363210439682007
1780625771381307400,9.584307373046874,1.412723422050476,0.6026696562767029,-0.5694014430046082
1780625771391336400,9.59433642578125,1.3915082216262817,0.6503777503967285,-0.684625506401062
1780625771401366300,9.6043662109375,1.3193796873092651,0.5544975399971008,-0.7312295436859131
1780625771411396400,9.614396240234376,1.1907122135162354,0.333920419216156,-0.7131365537643433
1780625771421425400,9.62442529296875,1.058528184890747,0.16379347443580627,-0.588768720626831
1780625771431455500,9.63445556640625,0.968024492263794,0.021334603428840637,-0.4475945830345154
1780625771441485300,9.6444853515625,0.938008189201355,-0.1139286607503891,-0.3812926709651947
1780625771451514400,9.654514404296876,0.9647631049156189,-0.22930745780467987,-0.2993493378162384
1780625771461544200,9.664544189453125,0.9869678020477295,-0.35976314544677734,-0.20847097039222717
1780625771471574300,9.67457421875,1.0027790069580078,-0.4309321343898773,-0.153696671128273
1780625771481603300,9.684603271484375,1.0174295902252197,-0.49309954047203064,-0.08785831183195114
1780625771491633400,9.69463330078125,1.0169286727905273,-0.5223062038421631,-0.017730355262756348
1780625771501663500,9.70466357421875,0.9803400635719299,-0.46884778141975403,0.0708281472325325
1780625771511693300,9.714693359375,0.8993320465087891,-0.34487149119377136,0.175742045044899
1780625771521722400,9.724722412109376,0.7853415012359619,-0.18406985700130463,0.24668334424495697
1780625771531752400,9.73475244140625,0.6979314684867859,-0.002534671686589718,0.27826792001724243
1780625771541782300,9.7447822265625,0.643047571182251,0.09866289049386978,0.2745973467826843
1780625771551811600,9.7548115234375,0.6105293035507202,0.0751035064458847,0.2819005250930786
1780625771561841200,9.764841064453124,0.5668322443962097,-0.027752762660384178,0.3525352478027344
1780625771571871200,9.774871337890625,0.5028309226036072,-0.12997554242610931,0.4666820466518402
1780625771581900300,9.784900390625,0.42464548349380493,-0.22182196378707886,0.5965493321418762
1780625771591930400,9.794930419921876,0.34556451439857483,-0.2776005268096924,0.6939389705657959
1780625771601960400,9.80496044921875,0.2744956314563751,-0.3282668888568878,0.7430725693702698
1780625771611989200,9.8149892578125,0.1757543832063675,-0.38411977887153625,0.7576712369918823
1780625771622019300,9.825019287109376,0.05542033165693283,-0.46207892894744873,0.7294310331344604
1780625771632049400,9.83504931640625,-0.06405386328697205,-0.5635262131690979,0.7087841033935547
1780625771642078500,9.845078369140625,-0.19006173312664032,-0.6334026455879211,0.6862223744392395
1780625771652108500,9.855108642578125,-0.3173520565032959,-0.6782457828521729,0.6487522125244141
1780625771662138400,9.865138427734376,-0.4305728077888489,-0.7206173539161682,0.585768461227417
1780625771672167400,9.87516748046875,-0.5184587240219116,-0.7047417163848877,0.5096004605293274
1780625771682197200,9.885197265625,-0.5769686698913574,-0.6565869450569153,0.4811984598636627
1780625771692227300,9.895227294921876,-0.612723171710968,-0.6296994090080261,0.5069773197174072
1780625771702257400,9.90525732421875,-0.6057218909263611,-0.5669844746589661,0.49499914050102234
1780625771712286200,9.9152861328125,-0.46751663088798523,-0.4268020689487457,0.3973226547241211
1780625771722316300,9.92531640625,-0.10926553606987,-0.23238234221935272,0.2246084362268448
1780625771732346400,9.935346435546874,0.3210213780403137,-0.11670286953449249,0.03158731386065483
1780625771742375400,9.94537548828125,0.6111630797386169,-0.025560595095157623,0.029935168102383614
1780625771752405500,9.955405517578125,0.6330979466438293,0.0727425366640091,0.22046250104904175
1780625771762435300,9.965435302734376,0.6157738566398621,0.07941445708274841,0.24461208283901215
1780625771772464400,9.97546435546875,0.6900909543037415,-0.04866548255085945,0.00710180914029479
1780625771782494200,9.985494140625,0.7970828413963318,-0.12373962253332138,-0.24856464564800262
1780625771792524300,9.995524169921875,0.8126253485679626,0.010220039635896683,-0.324356347322464
1780625771802553300,10.00555322265625,0.7290122509002686,0.09548387676477432,-0.2857850193977356
1780625771812583400,10.01558349609375,0.6044751405715942,-0.01777583360671997,-0.25250110030174255
1780625771822613200,10.02561328125,0.48318159580230713,-0.16374464333057404,-0.2673143148422241
1780625771832642300,10.035642333984375,0.38291358947753906,-0.19641098380088806,-0.3247677683830261
1780625771842672400,10.04567236328125,0.34294167160987854,-0.08883998543024063,-0.4251828193664551
1780625771852702500,10.055702392578125,0.3452405035495758,0.06914379447698593,-0.4710775911808014
1780625771862732300,10.065732177734375,0.41547298431396484,0.1790793091058731,-0.382760226726532
1780625771872761300,10.07576123046875,0.5337045192718506,0.20989128947257996,-0.26250970363616943
1780625771882791200,10.085791259765625,0.6554068922996521,0.14097480475902557,-0.18344193696975708
1780625771892821200,10.0958212890625,0.729747474193573,0.02466391585767269,-0.18120035529136658
1780625771902850300,10.105850341796875,0.7777829170227051,-0.02168469876050949,-0.24067950248718262
1780625771912880400,10.11588037109375,0.7783927917480469,0.011902820318937302,-0.30053645372390747
1780625771922910500,10.125910400390625,0.7268689274787903,0.12458893656730652,-0.29653894901275635
1780625771932939300,10.135939208984375,0.6679832339286804,0.25965142250061035,-0.2326585054397583
1780625771942969300,10.14596923828125,0.6322596073150635,0.29772937297821045,-0.12165466696023941
1780625771952999400,10.15599951171875,0.6379476189613342,0.26408272981643677,-0.03771821781992912
1780625771963028500,10.166028564453125,0.658943772315979,0.2510164976119995,-0.001067786943167448
1780625771973058600,10.17605859375,0.6805497407913208,0.286624014377594,-0.006050827447324991
1780625771983088000,10.186088134765624,0.700261652469635,0.37027695775032043,-0.02999923750758171
1780625771993118200,10.1961181640625,0.7327567338943481,0.42520731687545776,-0.056505415588617325
1780625772003147300,10.206147216796875,0.7624274492263794,0.47577011585235596,-0.07498455792665482
1780625772013177300,10.21617724609375,0.7843213081359863,0.512522280216217,-0.10770895332098007
1780625772023207400,10.22620751953125,0.8282771706581116,0.5476084351539612,-0.15267102420330048
1780625772033236200,10.236236328125,0.8961957693099976,0.6126242280006409,-0.14894740283489227
1780625772043266300,10.246266357421876,0.9722884893417358,0.6324511766433716,-0.10985098779201508
1780625772053296400,10.25629638671875,1.0480542182922363,0.6040229797363281,-0.07909813523292542
1780625772063325400,10.266325439453125,1.1217143535614014,0.5797470211982727,-0.06533347815275192
1780625772073355500,10.27635546875,1.1332980394363403,0.5413383841514587,-0.03830772638320923
1780625772083385300,10.28638525390625,1.110560417175293,0.5383656024932861,-0.021073278039693832
1780625772093414400,10.296414306640624,1.118030309677124,0.5884420871734619,-0.0646580383181572
1780625772103444200,10.3064443359375,1.1705114841461182,0.6165152788162231,-0.127240851521492
1780625772113474300,10.316474365234376,1.2493247985839844,0.5420737862586975,-0.18884217739105225
1780625772123504400,10.32650439453125,1.3396884202957153,0.43773725628852844,-0.2927091717720032
1780625772133533200,10.336533203125,1.4218446016311646,0.3126341998577118,-0.3718812167644501
1780625772143563300,10.346563232421875,1.4381840229034424,0.08287499099969864,-0.41021740436553955
1780625772153593300,10.35659326171875,1.358572006225586,-0.19028358161449432,-0.39034411311149597
1780625772163622400,10.366622314453124,1.20137619972229,-0.29141557216644287,-0.29007792472839355
1780625772173652500,10.376652587890625,1.0725923776626587,-0.26620209217071533,-0.2073308378458023
1780625772183682600,10.3866826171875,1.0203031301498413,-0.30497997999191284,-0.16236424446105957
1780625772193711400,10.39671142578125,0.9981091618537903,-0.3694431185722351,-0.12678387761116028
1780625772203741400,10.406741455078125,1.0129640102386475,-0.3895547091960907,-0.13138358294963837
1780625772213771300,10.416771240234375,1.0823729038238525,-0.453754186630249,-0.2247750461101532
1780625772223800300,10.42680029296875,1.0831023454666138,-0.5316889882087708,-0.27514538168907166
1780625772233830400,10.436830322265624,0.992370069026947,-0.5564353466033936,-0.2975124716758728
1780625772243860200,10.446860107421875,0.8320416212081909,-0.5279154777526855,-0.2955129146575928
1780625772253889300,10.45688916015625,0.6688060760498047,-0.5372618436813354,-0.2642916142940521
1780625772263919400,10.46691943359375,0.5359795689582825,-0.562238335609436,-0.3037281930446625
1780625772273949400,10.476949462890625,0.4532596468925476,-0.5741296410560608,-0.3998723030090332
1780625772283979500,10.4869794921875,0.41830968856811523,-0.5528919100761414,-0.484979510307312
1780625772294008300,10.49700830078125,0.38310670852661133,-0.5289344191551208,-0.5492873787879944
1780625772304038400,10.507038330078124,0.3412734866142273,-0.49037086963653564,-0.5669776797294617
1780625772314068200,10.517068115234375,0.2917429506778717,-0.436323344707489,-0.5157091617584229
1780625772324097300,10.52709716796875,0.2326199859380722,-0.3929064869880676,-0.4293260872364044
1780625772334127400,10.53712744140625,0.1625751256942749,-0.3399660587310791,-0.3450338542461395
1780625772344157400,10.547157470703125,0.1018858477473259,-0.24496570229530334,-0.2861888110637665
1780625772354186200,10.557186279296875,0.07922634482383728,-0.13281786441802979,-0.2399805635213852
1780625772364216300,10.56721630859375,0.04834166541695595,0.03475695475935936,-0.19471053779125214
1780625772374247400,10.577247314453125,0.05703528970479965,0.17266474664211273,-0.15122351050376892
1780625772384276200,10.587276123046875,0.1302027851343155,0.2093067318201065,-0.12092583626508713
1780625772394306300,10.597306396484376,0.21743595600128174,0.17844149470329285,-0.09601995348930359
1780625772404336000,10.607336181640624,0.26974916458129883,0.10601291060447693,-0.11464811861515045
1780625772414366200,10.6173662109375,0.28912606835365295,0.07103575021028519,-0.1470649242401123
1780625772424395300,10.627395263671875,0.2536439001560211,0.06371725350618362,-0.18122096359729767
1780625772434425000,10.637425048828124,0.13126206398010254,0.142844557762146,-0.19925455749034882
1780625772444455200,10.647455078125,-0.011556179262697697,0.22302360832691193,-0.21251460909843445
1780625772454484200,10.657484130859375,-0.08128998428583145,0.3341730535030365,-0.19446396827697754
1780625772464514300,10.667514404296876,-0.07370118796825409,0.4077678620815277,-0.16006897389888763
1780625772474544400,10.67754443359375,-0.005870478227734566,0.4646841287612915,-0.15682870149612427
1780625772484573200,10.6875732421875,0.08859457075595856,0.49802467226982117,-0.13993126153945923
1780625772494603300,10.697603271484375,0.1520976424217224,0.48778319358825684,-0.118430495262146
1780625772504633000,10.707633056640624,0.16086918115615845,0.47952020168304443,-0.11037255823612213
1780625772514662100,10.717662109375,0.1349419802427292,0.48763909935951233,-0.09982883930206299
1780625772524692200,10.727692138671875,0.0932045727968216,0.4806276559829712,-0.12232301384210587
1780625772534722300,10.737722412109376,0.05165073648095131,0.5017814040184021,-0.13759677112102509
1780625772544752000,10.747752197265624,-0.0355096161365509,0.505816638469696,-0.10426066815853119
1780625772554781200,10.75778125,-0.10551772266626358,0.46603167057037354,-0.10293121635913849
1780625772564811300,10.767811279296875,-0.11293525248765945,0.3823324143886566,-0.06080567464232445
1780625772574841300,10.77784130859375,-0.08855986595153809,0.309751957654953,0.003836437128484249
1780625772584870400,10.787870361328125,-0.02350805141031742,0.25448739528656006,0.04895569756627083
1780625772594900200,10.797900146484375,0.06828232109546661,0.25154805183410645,0.06354769319295883
1780625772604930000,10.807929931640626,0.17690904438495636,0.2634640634059906,0.04963614046573639
1780625772614959400,10.81795947265625,0.28531089425086975,0.26310452818870544,0.032455023378133774
1780625772624989200,10.8279892578125,0.37111958861351013,0.27444007992744446,0.038169752806425095
1780625772635019300,10.838019287109375,0.4309839904308319,0.27687445282936096,0.06479363888502121
1780625772645048000,10.848048095703126,0.46528536081314087,0.23497852683067322,0.09002476930618286
1780625772655078100,10.858078125,0.47324633598327637,0.21705518662929535,0.10044731944799423
1780625772665108200,10.868108154296875,0.4588654041290283,0.2276383936405182,0.09260507673025131
1780625772675138300,10.87813818359375,0.4229223132133484,0.24506105482578278,0.0531277135014534
1780625772685167400,10.88816748046875,0.4149012565612793,0.27114343643188477,-0.03514353558421135
1780625772695197200,10.898197265625,0.42452192306518555,0.30699169635772705,-0.1187920942902565
1780625772705227300,10.908227294921875,0.46560078859329224,0.32986804842948914,-0.194133460521698
1780625772715256300,10.91825634765625,0.5249698162078857,0.35454702377319336,-0.2937825322151184
1780625772725286100,10.9282861328125,0.5662826895713806,0.388680100440979,-0.3977912962436676
1780625772735316200,10.938316162109375,0.5829945206642151,0.44126901030540466,-0.48181483149528503
1780625772745345000,10.948344970703126,0.5502123236656189,0.5094462633132935,-0.5021196007728577
1780625772755375000,10.958375,0.4982369840145111,0.534498393535614,-0.4723356366157532
1780625772765405200,10.9684052734375,0.43887248635292053,0.5373542308807373,-0.42051538825035095
1780625772775434200,10.978434326171875,0.4079824686050415,0.5337283611297607,-0.37154677510261536
1780625772785464300,10.98846435546875,0.4261278510093689,0.48859143257141113,-0.32984083890914917
1780625772795494400,10.998494384765625,0.46991103887557983,0.420114129781723,-0.2582673132419586
1780625772805524200,11.008524169921875,0.5019840002059937,0.37198662757873535,-0.1337154656648636
1780625772815553300,11.01855322265625,0.4771696925163269,0.4731169641017914,0.01789749041199684
1780625772825583000,11.0285830078125,0.4507956802845001,0.6198238134384155,0.0648019090294838
1780625772835613200,11.03861328125,0.44884464144706726,0.5973610877990723,-0.05167170614004135
1780625772845642200,11.048642333984375,0.43826204538345337,0.5952913761138916,-0.15838953852653503
1780625772855672000,11.058672119140626,0.43647506833076477,0.5543814897537231,-0.243832528591156
1780625772865702100,11.0687021484375,0.42017990350723267,0.4681895673274994,-0.31910353899002075
1780625772875731200,11.078731201171875,0.3781605362892151,0.426414430141449,-0.38899075984954834
1780625772885761300,11.08876123046875,0.32147055864334106,0.3969990909099579,-0.4508368670940399
1780625772895791400,11.098791259765624,0.2728862464427948,0.36284297704696655,-0.49183890223503113
1780625772905820200,11.108820068359375,0.23444826900959015,0.3427598774433136,-0.4963974356651306
1780625772915850200,11.118850341796875,0.21578137576580048,0.36459648609161377,-0.4489838480949402
1780625772925880300,11.12888037109375,0.20400471985340118,0.3549809157848358,-0.3854725658893585
1780625772935910100,11.13891015625,0.20362628996372223,0.38315528631210327,-0.3449336588382721
1780625772945939200,11.148939208984375,0.19809283316135406,0.39583083987236023,-0.3268314599990845
1780625772955969300,11.15896923828125,0.19505256414413452,0.39746415615081787,-0.3760155141353607
1780625772965999000,11.1689990234375,0.2185533493757248,0.39455991983413696,-0.4195127785205841
1780625772976028200,11.179028076171875,0.2493240386247635,0.31003227829933167,-0.413694828748703
1780625772986058200,11.189058349609375,0.277442991733551,0.2262018918991089,-0.33190613985061646
1780625772996088300,11.19908837890625,0.2849278151988983,0.1862824410200119,-0.20624381303787231
1780625773006117000,11.2091171875,0.2686918377876282,0.17669537663459778,-0.13067318499088287
1780625773016147200,11.219147216796875,0.24152575433254242,0.1417997181415558,-0.1162835881114006
1780625773026177300,11.22917724609375,0.21921905875205994,0.10347874462604523,-0.14053623378276825
1780625773036206300,11.239206298828124,0.21541659533977509,0.06580673158168793,-0.19339092075824738
1780625773046236200,11.249236083984375,0.22034095227718353,0.04419311508536339,-0.2533065974712372
1780625773056266200,11.259266357421875,0.24059243500232697,0.04973142594099045,-0.2874073386192322
1780625773066296300,11.26929638671875,0.27086320519447327,0.04477674886584282,-0.29749852418899536
1780625773076325000,11.2793251953125,0.27034786343574524,0.016657765954732895,-0.2955474853515625
1780625773086355200,11.289355224609375,0.2574490010738373,-0.03304625302553177,-0.2729961574077606
1780625773096385300,11.29938525390625,0.24553218483924866,-0.08414512872695923,-0.23062394559383392
1780625773106414300,11.309414306640624,0.23500332236289978,-0.11065421998500824,-0.16505226492881775
1780625773116444200,11.319444091796875,0.20744040608406067,-0.1433120220899582,-0.06844370067119598
1780625773126474200,11.32947412109375,0.15498778223991394,-0.17995905876159668,0.035696592181921005
1780625773136503300,11.33950341796875,0.10864398628473282,-0.17364898324012756,0.11865885555744171
1780625773146533400,11.349533447265625,0.062429629266262054,-0.17227071523666382,0.15634864568710327
1780625773156563200,11.359563232421875,0.024631120264530182,-0.1802985519170761,0.16285236179828644
1780625773166592000,11.369592041015625,-0.001673395512625575,-0.1876317858695984,0.17110134661197662
1780625773176622000,11.3796220703125,-0.019675031304359436,-0.223543182015419,0.17913052439689636
1780625773186652200,11.389652099609375,-0.04339044168591499,-0.26552698016166687,0.19419978559017181
1780625773196682200,11.39968212890625,-0.07718195766210556,-0.26703912019729614,0.2152092009782791
1780625773206711300,11.409711181640626,-0.11258146911859512,-0.24077428877353668,0.21947018802165985
1780625773216741400,11.419741455078125,-0.11999145150184631,-0.18690146505832672,0.21806669235229492
1780625773226771200,11.429771240234375,-0.13944287598133087,-0.12319507449865341,0.2179419845342636
1780625773236800300,11.43980029296875,-0.16545583307743073,-0.14146114885807037,0.18705545365810394
1780625773246830300,11.449830322265624,-0.18495717644691467,-0.1621665060520172,0.1882704198360443
1780625773256860200,11.459860107421875,-0.19760586321353912,-0.2101619988679886,0.21855296194553375
1780625773266889200,11.46988916015625,-0.18447457253932953,-0.2699660360813141,0.26478761434555054
1780625773276919000,11.4799189453125,-0.17438066005706787,-0.3511255979537964,0.32018670439720154
1780625773286949000,11.48994921875,-0.17038585245609283,-0.431257963180542,0.34506046772003174
1780625773296978200,11.499978271484375,-0.15936489403247833,-0.4951661229133606,0.31423118710517883
1780625773307008300,11.51000830078125,-0.14324770867824554,-0.4811815917491913,0.26457440853118896
1780625773317038300,11.520038330078124,-0.14421772956848145,-0.3766285479068756,0.2144053727388382
1780625773327068400,11.530068359375,-0.14814066886901855,-0.24763606488704681,0.16177207231521606
1780625773337097200,11.54009716796875,-0.13519743084907532,-0.11959181725978851,0.10353273898363113
1780625773347127300,11.550127197265626,-0.0990946888923645,-0.01065852865576744,0.047359663993120193
1780625773357157000,11.5601572265625,-0.0447547510266304,0.06723546981811523,0.007535820826888084
1780625773367186400,11.5701865234375,0.013106935657560825,0.0985267236828804,-0.033190127462148666
1780625773377215700,11.5802158203125,0.06047631800174713,0.05511533468961716,-0.053464241325855255
1780625773387245600,11.59024560546875,0.11395969986915588,-0.05090900510549545,-0.05428241565823555
1780625773397274400,11.6002744140625,0.15321895480155945,-0.22129245102405548,-0.04759681597352028
1780625773407304400,11.610304443359375,0.1821448802947998,-0.38532134890556335,0.005928459577262402
1780625773417334500,11.62033447265625,0.19517652690410614,-0.46777334809303284,0.10386700928211212
1780625773427364600,11.630364501953125,0.1993531882762909,-0.5294653177261353,0.19603468477725983
1780625773437393700,11.6403935546875,0.20391730964183807,-0.574245810508728,0.2568860650062561
1780625773447423700,11.650423828125,0.19868981838226318,-0.5923636555671692,0.2683663070201874
1780625773457453600,11.66045361328125,0.16816386580467224,-0.5447216033935547,0.2378227859735489
1780625773467482600,11.670482666015625,0.12120010703802109,-0.44295334815979004,0.19643151760101318
1780625773477512700,11.6805126953125,0.06454215198755264,-0.30621734261512756,0.13967955112457275
1780625773487542500,11.69054248046875,0.053431496024131775,-0.18938472867012024,0.06902814656496048
1780625773497571600,11.700571533203124,0.07880476862192154,-0.07781960070133209,-0.004972313065081835
1780625773507601400,11.710601318359375,0.14493553340435028,0.028757497668266296,-0.0379159078001976
1780625773517631500,11.720631591796876,0.23770222067832947,0.08269289880990982,-0.04501216858625412
1780625773527660500,11.73066064453125,0.3126113712787628,0.0475158616900444,-0.02784522995352745
1780625773537690600,11.740690673828125,0.3762281835079193,-0.10462520271539688,0.027317624539136887
1780625773547720700,11.750720703125,0.38290196657180786,-0.29421690106391907,0.08301135152578354
1780625773557750800,11.760750732421876,0.35533052682876587,-0.4554033875465393,0.12308579683303833
1780625773567779600,11.770779541015624,0.3212524950504303,-0.5703946352005005,0.16092385351657867
1780625773577809700,11.7808095703125,0.256081759929657,-0.6278174519538879,0.22177468240261078
1780625773587839500,11.790839599609376,0.1823684424161911,-0.5999876856803894,0.3020952045917511
1780625773597868800,11.800868896484374,0.0941363200545311,-0.5162816047668457,0.3788832128047943
1780625773607898600,11.810898681640625,0.009245071560144424,-0.41289058327674866,0.4498624801635742
1780625773617928400,11.820928466796875,-0.02339543029665947,-0.32586246728897095,0.5082530379295349
1780625773627957500,11.83095751953125,-0.018770288676023483,-0.28793758153915405,0.5247470140457153
1780625773637987600,11.840987548828124,0.010273347608745098,-0.37958574295043945,0.4789068400859833
1780625773648017700,11.851017578125,0.050000183284282684,-0.5296045541763306,0.3853673040866852
1780625773658046500,11.86104638671875,0.08157782256603241,-0.6606640219688416,0.3370453119277954
1780625773668076500,11.87107666015625,0.08460891246795654,-0.6763898134231567,0.3126976490020752
1780625773678106600,11.881106689453125,0.05391411855816841,-0.6242259740829468,0.29024800658226013
1780625773688136700,11.89113671875,0.007253603078424931,-0.5081214904785156,0.22729292511940002
1780625773698165800,11.901165771484376,-0.016087671741843224,-0.3428891599178314,0.1191086620092392
1780625773708195600,11.911195556640624,0.012054753489792347,-0.18074922263622284,0.00010063359513878822
1780625773718225400,11.921225341796875,0.037233609706163406,0.0032187600154429674,-0.10836086422204971
1780625773728254500,11.93125439453125,0.07485325634479523,0.17753270268440247,-0.18270736932754517
1780625773738284500,11.941284423828124,0.15225030481815338,0.2960159182548523,-0.24226416647434235
1780625773748314600,11.951314697265625,0.2295514941215515,0.3652888536453247,-0.28796499967575073
1780625773758343700,11.96134375,0.27376610040664673,0.36837252974510193,-0.29948264360427856
1780625773768373500,11.97137353515625,0.2175130695104599,0.3035469353199005,-0.26835453510284424
1780625773778403600,11.981403564453124,0.07395323365926743,0.13065293431282043,-0.21089445054531097
1780625773788433700,11.99143359375,-0.13027407228946686,-0.09045213460922241,-0.15285733342170715
1780625773798462700,12.001462646484375,-0.3056248426437378,-0.20175814628601074,-0.04181283339858055
1780625773808492500,12.011492431640624,-0.4126468300819397,-0.23070107400417328,0.09222551435232162
1780625773818522600,12.021522705078125,-0.4649830162525177,-0.2600264847278595,0.1546556055545807
1780625773828551400,12.031551513671875,-0.44579222798347473,-0.2203451246023178,0.17782656848430634
1780625773838581500,12.04158154296875,-0.36557647585868835,-0.08191508054733276,0.2291392832994461
1780625773848611600,12.051611572265625,-0.2176288366317749,0.06937026977539062,0.27292394638061523
1780625773858640600,12.061640625,-0.08073011040687561,0.240947887301445,0.4255681037902832
1780625773868670700,12.071670654296875,0.015278907492756844,0.3169155716896057,0.6113819479942322
1780625773878700500,12.081700439453124,0.09038591384887695,0.23131728172302246,0.7061574459075928
1780625773888730600,12.091730712890625,0.11526364833116531,0.038820214569568634,0.6503254771232605
1780625773898759700,12.101759765625,-0.011165125295519829,-0.3036210238933563,0.5116717219352722
1780625773908789800,12.111789794921876,-0.23537962138652802,-0.5689389109611511,0.3957033157348633
1780625773918819600,12.121819580078125,-0.39118680357933044,-0.5965990424156189,0.381717711687088
1780625773928848400,12.131848388671875,-0.4399579167366028,-0.4746016263961792,0.4212320148944855
1780625773938878500,12.14187841796875,-0.47288283705711365,-0.4447649121284485,0.37676069140434265
1780625773948908500,12.151908447265624,-0.481977641582489,-0.5250547528266907,0.3082365393638611
1780625773958937600,12.1619375,-0.5071799159049988,-0.6456637382507324,0.26441875100135803
1780625773968967700,12.1719677734375,-0.5780687928199768,-0.7404873371124268,0.19612275063991547
1780625773978997800,12.181997802734376,-0.5723041296005249,-0.6701802015304565,0.13415072858333588
1780625773989026600,12.192026611328124,-0.5874754786491394,-0.5522919297218323,0.1018749549984932
1780625773999056600,12.202056640625,-0.6179100871086121,-0.4273073673248291,0.0745735615491867
1780625774009086700,12.212086669921876,-0.6451659798622131,-0.308600515127182,0.0588991679251194
1780625774019116500,12.222116455078124,-0.658549427986145,-0.16795392334461212,0.026995565742254257
1780625774029145600,12.2321455078125,-0.675595760345459,-0.017238948494195938,0.015259655192494392
1780625774039175400,12.242175537109375,-0.6691431999206543,0.055043768137693405,0.01632784865796566
1780625774049205500,12.25220556640625,-0.63231360912323,0.07560862600803375,0.019463762640953064
1780625774059234600,12.262234619140624,-0.5796272158622742,0.08182363957166672,0.028979234397411346
1780625774069264600,12.2722646484375,-0.5644870400428772,0.06568052619695663,0.03397192806005478
1780625774079294700,12.282294677734376,-0.5753905773162842,-0.008508218452334404,0.04504508525133133
1780625774089323500,12.292323486328126,-0.5701917409896851,-0.032898612320423126,0.029603052884340286
1780625774099353600,12.302353515625,-0.5893004536628723,0.041229940950870514,0.03599117696285248
1780625774109383700,12.3123837890625,-0.621984601020813,0.2573426365852356,0.056725289672613144
1780625774119413500,12.32241357421875,-0.6414411067962646,0.5579685568809509,0.07452666014432907
1780625774129442800,12.33244287109375,-0.6248459815979004,0.7756333351135254,0.0837259441614151
1780625774139472400,12.342472412109375,-0.5473567843437195,0.9497947692871094,0.08850844949483871
1780625774149502500,12.35250244140625,-0.4694216549396515,1.0572912693023682,0.0612911693751812
1780625774159531500,12.362531494140624,-0.39425554871559143,1.0616856813430786,-0.0071065304800868034
1780625774169561600,12.3725615234375,-0.31779560446739197,1.1033401489257812,-0.09697435796260834
1780625774179591700,12.382591796875,-0.2979430556297302,1.145112156867981,-0.21518036723136902
1780625774189620500,12.392620361328126,-0.36030977964401245,1.1451605558395386,-0.2147798091173172
1780625774199650600,12.402650634765624,-0.43753108382225037,1.0062335729599,-0.0852297991514206
1780625774209680600,12.4126806640625,-0.5097153186798096,0.7331336736679077,0.012872743420302868
1780625774219710500,12.42271044921875,-0.5497170686721802,0.5765899419784546,0.09511249512434006
1780625774229739800,12.43273974609375,-0.6118682026863098,0.4902524948120117,0.14069853723049164
1780625774239769600,12.44276953125,-0.6701328158378601,0.3833380341529846,0.19634795188903809
1780625774249799400,12.45279931640625,-0.7112205028533936,0.2746026813983917,0.2226622849702835
1780625774259828500,12.462828369140626,-0.7077666521072388,0.202736496925354,0.22812069952487946
1780625774269858600,12.472858642578124,-0.6816160678863525,0.14181190729141235,0.2226160764694214
1780625774279888600,12.482888671875,-0.6499577164649963,0.07594393938779831,0.26227426528930664
1780625774289917700,12.492917724609375,-0.6165879964828491,0.01556412037461996,0.34713006019592285
