time,seconds_elapsed,z,y,x
1780626535909835500,0.06583544921875,1.5450784014463423,-0.38864129792898894,-1.9010950484938918
1780626535919865300,0.075865234375,0.9534539862781762,0.1478013282433152,-2.23301770324856
1780626535929895400,0.0858955078125,0.6502461154848337,0.2753857978880405,-1.9073272208817302
1780626535939925500,0.095925537109375,0.5535428140550851,0.31934710468947886,-1.6342419550210237
1780626535949955600,0.10595556640625,0.47967035311460493,0.4517676161885261,-1.711376048105955
1780626535959985400,0.1159853515625,0.5302344191819429,0.49908729350715875,-1.720367894465476
1780626535970015500,0.126015380859375,0.9428560198962688,0.45873745520114895,-1.7615674814686177
1780626535980045600,0.136045654296875,1.2270195830017327,0.42752807794511316,-1.852026481681317
1780626535990075600,0.14607568359375,1.3893424808114767,0.24944383964091538,-1.9376728209152816
1780626536000105500,0.15610546875,1.4188859706819057,-0.11869652205109596,-1.922928694639355
1780626536010135300,0.16613525390625,0.8013806798040867,-0.3972717636302113,-1.8474743713349102
1780626536020165400,0.176165283203125,0.18011282152235508,-0.4893713706567883,-1.8302124170191585
1780626536030195500,0.186195556640625,-0.44967152069211,0.21322452526837585,-1.7530444216646253
1780626536040225500,0.1962255859375,-0.4648129757225513,0.25835750619769093,-1.7659958193048835
1780626536050255600,0.206255615234375,-1.3333324242979288,0.8242389928221702,-2.0538550220578906
1780626536060285700,0.21628564453125,-2.7200585851311683,1.4449746439233422,-2.388882510960102
1780626536070315500,0.2263154296875,-2.307066982060671,1.3258368078455327,-2.329896799636632
1780626536080345300,0.236345458984375,0.07561141356229782,0.18355331736505032,-1.828208383720368
1780626536090375400,0.24637548828125,1.7649883958280086,-0.8411182314306497,-0.9952655676998198
1780626536100405500,0.256405517578125,3.0705858409821984,-1.2717729169636964,-0.9176698484525084
1780626536110435600,0.266435546875,3.533016890004277,-1.2719178783923386,-1.095992498622462
1780626536120465400,0.27646533203125,3.2303257365614173,-0.6088634269997477,-1.3270605044215917
1780626536130495500,0.28649560546875,2.417741525697708,0.5564113552287221,-0.2176574662145227
1780626536140525600,0.296525634765625,1.3252163378596304,2.158446154128015,0.27311180680776015
1780626536150555400,0.306555419921875,0.15000292994081973,3.4152933046385643,-1.0863942838676273
1780626536160585500,0.31658544921875,-0.05896306110024452,3.770928112761676,-1.4931167435407637
1780626536170615600,0.326615478515625,-0.21041385176181793,2.4567265053912997,-2.6527792388454077
1780626536180645400,0.336645263671875,-0.4187421294212341,-0.1070157288685441,-3.216168616393208
1780626536190675500,0.346675537109375,-0.1374339557468891,-1.568207055838406,-3.1859450353041288
1780626536200705500,0.35670556640625,0.23216040414571762,0.06351356401145458,-3.3771088276728984
1780626536210735600,0.366735595703125,0.12964520156681536,2.1568802199855446,-3.1063790388971566
1780626536220765700,0.376765625,0.4867039050132036,3.411745256768167,-2.7165777572780847
1780626536230795300,0.386795166015625,1.4848609563708304,4.588942531980574,-2.711303031745553
1780626536240825300,0.396825439453125,2.3608897576630112,5.942564003330469,-2.4908430022656916
1780626536250855400,0.40685546875,2.7933903633236885,7.027993095427751,-1.884427114548534
1780626536260885500,0.416885498046875,2.6914818944662806,7.698602199983596,-1.705617046187818
1780626536270915600,0.42691552734375,2.560408705922961,8.14377290212512,-2.1309759634003043
1780626536280945700,0.436945556640625,3.0460926202386616,7.134658403423428,-3.1660461566135285
1780626536290975500,0.4469755859375,2.1974083374679085,4.254453679999709,-3.0212834654137493
1780626536301005600,0.457005615234375,0.004289221626520156,1.933953215870261,-2.1619889413014053
1780626536311035400,0.467035400390625,-0.06868950534462928,3.3955198058933016,-2.531346277567744
1780626536321065500,0.4770654296875,-0.23361060295403002,6.278168415337801,-3.9980440929993986
1780626536331094500,0.487094482421875,-1.5056459702461957,6.780366242080927,-3.779678697711229
1780626536341124600,0.49712451171875,-1.538400238856673,6.44583384321928,-2.2701479949861763
1780626536351154700,0.50715478515625,-0.34799978320002556,6.570044160255789,-1.526774098470807
1780626536361184500,0.5171845703125,-0.005786766707897186,7.732101149481535,-1.1478531073063611
1780626536371214300,0.52721435546875,0.13525836527347565,8.772706180468202,-0.08923369620144367
1780626536381244400,0.537244384765625,0.42262627737820146,9.67367536174953,0.34476211645305155
1780626536391274500,0.5472744140625,0.7732792054355144,9.692014151516556,-0.0940115781277418
1780626536401304600,0.5573046875,0.47046179526448245,9.851516731208562,-0.9392477662712335
1780626536411334400,0.56733447265625,-0.239968447548151,10.439158798742294,-1.2645160777032374
1780626536421364500,0.577364501953125,-0.602301876527071,11.60147356212139,-1.849084144619107
1780626536431394600,0.58739453125,-1.7145532168373465,12.383837406766414,-2.5197692370206117
1780626536441424400,0.59742431640625,-3.162539317536354,11.612862386620044,-3.2337305765688416
1780626536451454500,0.607454345703125,-3.932667073203623,10.967052207756042,-4.766140050578117
1780626536461484500,0.617484619140625,-4.288107527798414,11.410858635807037,-7.92636875308454
1780626536471514400,0.627514404296875,-2.858872012537718,8.955182808512449,-6.818933580884337
1780626536481544400,0.63754443359375,-6.215249894610047,7.190513561636209,-7.674889900484681
1780626536491574500,0.647574462890625,-12.861796279788017,6.395960097503662,-12.411665324890613
1780626536501604600,0.6576044921875,-17.068540698629615,3.260892139738798,-18.808128111219403
1780626536511634700,0.667634765625,-16.677244210016728,-0.06058861647546291,-25.05598439040184
1780626536521664300,0.677664306640625,-15.039867464101313,-4.742983046874404,-28.817202717792988
1780626536531694300,0.6876943359375,-11.242768845033645,-7.535897609379887,-31.04143476477861
1780626536541724400,0.697724365234375,-5.917268818554282,-9.468397119310497,-31.1291527957201
1780626536551754500,0.70775439453125,-0.24362229388058185,-11.805642382013797,-28.39768200521469
1780626536561784800,0.717784912109375,5.475891078954935,-13.955584034907817,-24.03435235543251
1780626536571814700,0.727814697265625,8.89315159201324,-12.908653892552852,-20.808696364247798
1780626536581844700,0.7378447265625,11.475127986621857,-10.84702414484024,-19.273040455663203
1780626536591874800,0.747874755859375,15.477952591896056,-11.523961283373833,-19.33365771371126
1780626536601905000,0.75790478515625,17.97032119629383,-11.716853506970406,-19.262895493745802
1780626536611935000,0.76793505859375,19.566337173295018,-12.537319995516539,-18.18846710361242
1780626536621965000,0.777965087890625,19.987730694007873,-13.107403025484084,-15.183352390450239
1780626536631995000,0.787994873046875,18.244590557372568,-11.930419100761412,-11.45630170559883
1780626536642024700,0.798024658203125,13.895557143968343,-9.793411163720489,-8.324237021303176
1780626536652054800,0.8080546875,10.744703588050603,-6.592331979909539,-3.9142005654036995
1780626536662084900,0.8180849609375,7.045186222290992,-1.6562079953745006,2.294818910384178
1780626536672115000,0.828114990234375,4.860644380658865,2.2107661239519714,6.401432391434907
1780626536682144800,0.838144775390625,1.4557701787039636,6.280181508725881,13.643117337381838
1780626536692174800,0.8481748046875,0.7197592121720313,10.456610284280776,19.55158500984311
1780626536702205000,0.858204833984375,1.920976829919219,15.86457875061035,27.305605730187892
1780626536712235000,0.868235107421875,1.3697326481953263,7.537220382416248,21.317810253989695
1780626536722264800,0.878264892578125,3.1855782478183508,0.23143910413384436,10.922699855810404
1780626536732295000,0.888294921875,2.9530604085370897,-0.5972244271323085,7.2924974338173865
1780626536742324700,0.89832470703125,2.8185084379673,0.03693827629685402,4.422644008538127
1780626536752354800,0.908354736328125,3.861694717618823,-3.6300577528253197,-2.2420196326106785
1780626536762385000,0.918385009765625,2.3602029444426296,-10.742747777807711,-12.256689867234229
1780626536772415000,0.9284150390625,2.6223747482314703,-6.253111130970716,-12.602829701781273
1780626536782445000,0.938445068359375,-1.4539906018108129,-3.1398592836946246,-5.056893513467908
1780626536792474600,0.948474609375,-6.912124490278959,2.1446534833580255,-1.3863959059655666
1780626536802504700,0.958504638671875,-0.8945622368484735,9.370933939424157,8.192885015818476
1780626536812534800,0.96853466796875,2.680505450160801,13.18773737591505,15.320290671634673
1780626536822564900,0.97856494140625,5.479466014832258,11.81393557858467,14.897005638086794
1780626536832595000,0.988594970703125,0.6077570731930434,5.857278752493858,6.063454236033558
1780626536842625000,0.998625,-7.517863940039277,1.6267168202131985,-2.4974954458922145
1780626536852654800,1.00865478515625,-12.2413379843235,0.1130956333041191,-7.196289222428202
1780626536862685000,1.018684814453125,-12.295372356849908,-3.0611914051711557,-8.872890894272922
1780626536872714800,1.02871484375,-9.72520213536918,-1.309243692702055,-8.800450511962175
1780626536882744800,1.038744873046875,-5.0079409742504355,-2.0527309864640233,-7.181956161171198
1780626536892775000,1.04877490234375,-0.6416068819552659,-3.8525603940486906,-3.468469306769967
1780626536902804700,1.0588046875,1.9056991812884807,-2.242526413089037,-1.4158721758186816
1780626536912834800,1.068834716796875,3.6630046213984486,-4.061224771794676,-0.07162146714329719
1780626536922865000,1.078864990234375,4.8390848752796645,-4.822504327356815,2.280434411200881
1780626536932895000,1.08889501953125,5.911917520654201,-4.572233681502938,3.8653994173556563
1780626536942925000,1.098925048828125,3.6093501881003376,-4.357198015159368,5.797172951099276
1780626536952955000,1.108954833984375,0.1432430804170668,-3.0527877339631315,7.9063862877637145
1780626536962984700,1.118984619140625,6.846901199740171,0.976004256260395,5.282994763705134
1780626536973014800,1.129014892578125,7.747866873890161,1.1709475671678782,2.9118980848044154
1780626536983044900,1.139044921875,6.894260332286358,-0.726076724755764,2.6453923434644935
1780626536993075000,1.149074951171875,5.510459703511,-3.225928962907195,3.2029344562888142
1780626537003105000,1.15910498046875,4.2791304406166075,-4.616945514410734,3.2210730473086238
1780626537013134800,1.169134765625,3.391099066841602,-5.152826999568939,2.9193428478524086
1780626537023164700,1.17916455078125,2.2751573475807905,-5.9939615976125,2.7871006155297158
1780626537033194800,1.18919482421875,1.3835785104572773,-6.185510005384684,2.3921456044092775
1780626537043224800,1.199224853515625,-4.96371254094541,1.7086229500055312,-3.0391251193135975
1780626537053255000,1.2092548828125,-8.59133663688302,7.884214203444123,-7.254372578084468
1780626537063285000,1.219284912109375,-3.2308570669591425,-2.203618298023939,-3.5267198356866833
1780626537073314800,1.229314697265625,-0.9424106142163277,-7.122617837017774,-1.933339760147035
1780626537083345000,1.239344970703125,0.8197919502854347,-7.131977786037325,-1.9669195197962224
1780626537093375000,1.249375,3.071837886869907,-3.160804456567764,-2.100712634822726
1780626537103404800,1.25940478515625,5.591092160105705,1.402124805495143,-1.8060462362729013
1780626537113435000,1.269434814453125,6.804905640053748,6.035220075196027,-1.1939238805424421
1780626537123464700,1.279464599609375,8.209235846638679,9.59282663205564,-0.09583192542269825
1780626537133494800,1.289494873046875,7.351103936564922,12.148086869174241,1.7090544732905923
1780626537143524900,1.29952490234375,4.100266742372512,11.694080534148215,0.44108372508883475
1780626537153555000,1.309554931640625,-1.5798317349195479,8.437774553155899,1.6735037058293818
1780626537163585000,1.3195849609375,-5.882791379413009,5.2067047202289105,3.5297742548212407
1780626537173615000,1.329614990234375,-8.334667229902744,2.2920184660106897,3.8756364414706823
1780626537183644700,1.339644775390625,-8.512878017196059,-1.070101174584031,4.549408393971622
1780626537193674800,1.3496748046875,-7.230633390578627,-2.875731377401948,4.157110619361698
1780626537203704800,1.359704833984375,-4.384565914556384,-3.2315222528696057,2.8575203056678173
1780626537213735000,1.36973486328125,-1.3269149584710598,-3.2281337794750926,1.58393098693192
1780626537223765000,1.379764892578125,0.4622621221959591,-2.972131311970949,1.216955577366054
1780626537233794800,1.389794921875,1.3416729671418666,-2.178269337233901,1.2996850062400103
1780626537243825000,1.399824951171875,1.7902128534555435,-1.8472879088521004,1.2961796284675597
1780626537253854700,1.409854736328125,1.373207923090458,-1.757695316210389,1.23170569499135
1780626537263884800,1.419884765625,0.457985760051012,-1.9413953485697506,0.9175693106874823
1780626537273915000,1.429914794921875,-0.21637248617159202,-1.9499650239944457,0.10154635754674672
1780626537283945000,1.439945068359375,0.0958007813657634,-1.0490712460368872,-0.9432251454696059
1780626537293974800,1.449974853515625,1.7671745076954364,-0.9975479795485734,-1.4450100074976682
1780626537304004900,1.4600048828125,2.400351999479532,-0.30320261009633537,-1.1755161902576685
1780626537314035000,1.470034912109375,1.7646119637310504,0.12131225750744343,-0.3216059895321727
1780626537324065000,1.48006494140625,1.3793652766764164,0.14466098439097402,-0.0861500509724021
1780626537334094800,1.4900947265625,1.6631915706515312,-0.5691016177147626,-0.8602113466963172
1780626537344124700,1.500124755859375,1.8155659058988094,-1.1147376041680574,-1.3741069177567957
1780626537354154800,1.51015478515625,1.738821688914299,0.05229191277325153,-1.2156862880825996
1780626537364184800,1.520184814453125,1.6676368596225977,1.5645920802116393,-0.894764481422305
1780626537374215000,1.53021484375,1.7414467767208814,2.1309493676543236,-0.7053437333285808
1780626537384245000,1.540244873046875,1.6024644224882125,2.090044525814056,-0.41159518027603625
1780626537394275000,1.550275146484375,1.3256383626639843,2.0697434960633516,-0.1775125758960843
1780626537404305000,1.560304931640625,1.1640636528730393,1.9498755921453237,-0.17324352027475834
1780626537414334700,1.570334716796875,1.6527613620519637,0.44070378586053843,-0.3495852988258004
1780626537424364800,1.58036474609375,2.2956986158281563,-0.06074117668867111,-0.18745821584910152
1780626537434395000,1.590394775390625,2.451815060213208,-0.1231038170993328,0.46540509639680383
1780626537444425000,1.600425048828125,2.058719997745752,-0.9334995780080556,0.8998489450797438
1780626537454454800,1.610454833984375,1.3649948060184716,-1.9106559269130228,0.8023173761323094
1780626537464484900,1.62048486328125,0.6088268943816423,-2.3621505713790656,0.8138210591822862
1780626537474515000,1.630514892578125,0.6025619887679815,-1.909167734181881,1.1218474361732602
1780626537484544800,1.640544677734375,1.3614046725720166,-0.8800415440648793,1.6720011923119424
1780626537494574800,1.650574951171875,2.0356904198139905,0.1667138262450695,2.3514409613162277
1780626537504605000,1.66060498046875,1.9355156428813933,0.9984820455282926,2.9616096256956457
1780626537514634800,1.670634765625,1.2813199129879473,1.7075222952872513,3.424380281935632
1780626537524664800,1.680664794921875,0.8095131328552961,2.2575889576643706,3.8214489242091774
1780626537534695000,1.69069482421875,0.9983411757528782,2.9433178899407384,3.856765152262151
1780626537544725000,1.70072509765625,0.7754471971243619,2.9102134927183387,3.3224329423725605
1780626537554755000,1.710755126953125,-0.44109132387340066,1.6052245348513126,2.1136551185041665
1780626537564784000,1.7207841796875,-1.3335334998279809,-0.010166589227318763,0.9810273451194167
1780626537574814200,1.730814208984375,-1.0203080928891897,-0.9272907864958048,0.44771863305866716
1780626537584843800,1.74084375,-0.019776092561148106,-0.6184715055614709,0.306551043741405
1780626537594873900,1.750873779296875,0.7158482492733746,0.04007774336636066,0.39171851341724395
1780626537604904000,1.760904052734375,0.7795955489754677,0.8348983340024948,0.4283505002439022
1780626537614934000,1.77093408203125,0.4082307453442365,1.122138820335269,0.40182723497748374
1780626537624964000,1.780964111328125,0.07211728783622384,0.5924374851167201,0.19555062915086746
1780626537634994000,1.790993896484375,-0.049400282984972,-0.19829905107617377,-0.2578942726001143
1780626537645024000,1.80102392578125,-0.07001980410031974,-0.8593740190893411,-0.5943728370934724
1780626537655054000,1.81105419921875,-0.07801146044135093,-1.2170914787054061,-0.7529302448898554
1780626537665084000,1.821083984375,-0.026661796954274175,-1.1667711582660674,-0.9027014119014144
1780626537675114000,1.831114013671875,0.11041779239699244,-1.050634257569909,-1.0419240046307443
1780626537685144000,1.84114404296875,-0.45825390946790573,-1.0380383953690528,-0.9848217689663171
1780626537695174000,1.851173828125,-0.9997416902005671,-0.9404343457072972,-0.909597016634047
1780626537705204000,1.861203857421875,-1.164246608224511,-1.011793947044015,-0.9056427260503173
1780626537715234000,1.871234130859375,-1.3443190977364778,-1.0349912827581167,-0.8235384433373808
1780626537725264100,1.88126416015625,-1.5122861389130353,-0.8100292656838893,-0.8245183942854404
1780626537735294200,1.891294189453125,-1.688348808261752,-0.5195224710315466,-0.8234732691466807
1780626537745323800,1.90132373046875,-1.7422610157132148,-0.37707799364626404,-0.8249205453455448
1780626537755353900,1.911353759765625,-1.7878648290246724,-0.09506430205106735,-0.7630307831436395
1780626537765384000,1.921384033203125,-2.0484603234075007,0.45934477344453334,-0.6025469373293221
1780626537775414000,1.9314140625,-2.3760569316565987,1.2459838111907242,-0.2859574607849121
1780626537785444000,1.941444091796875,-2.4816391205906867,3.611383739754557,0.29452348294779657
1780626537795474200,1.95147412109375,-1.5837766731530427,2.927729860186577,0.6581440291278063
1780626537805504000,1.96150390625,-1.8947491865985095,-1.1659621799707411,0.6318832141898572
1780626537815533800,1.971533935546875,-2.535342653727531,-2.790167894145846,0.3970174966081977
1780626537825564000,1.98156396484375,-2.414694851478189,-2.212211938846111,0.3051443918138742
1780626537835594000,1.991593994140625,-1.5351175639241932,-0.46670682664513585,0.11356398146823048
1780626537845624000,2.0016240234375,-0.32124387822151185,1.919943395218253,0.09667027594298123
1780626537855654000,2.01165380859375,0.28032150072455403,2.954068416535854,0.229647544541955
1780626537865684000,2.02168408203125,0.10868746147304773,2.2906343181759117,0.07531111544147133
1780626537875714000,2.031714111328125,-0.40460605204105377,1.3766869973778724,-0.1901090226188302
1780626537885744000,2.041744140625,-0.8029051128923893,0.974196914577484,-0.3891933788537979
1780626537895774000,2.05177392578125,-0.941589360961318,0.41356501904428,-0.47606823696941136
1780626537905804000,2.061803955078125,-1.1379515987560151,-0.2900958757638931,-0.3091179716199636
1780626537915833900,2.071833740234375,-1.113824580976367,-0.7895873661577701,-0.08531915310621262
1780626537925864000,2.081864013671875,-1.3538140713125466,-0.4974579387396574,0.23780717786103486
1780626537935894000,2.09189404296875,-1.5350877533078193,-0.3701233522027731,0.5042831085845828
1780626537945924000,2.101924072265625,-1.6109030188791453,-0.5230296023696661,0.7172901917099952
1780626537955954200,2.1119541015625,-1.4750725528061388,-0.9816974994659423,0.6980003848284483
1780626537965984000,2.12198388671875,-1.9792162529200314,-0.5326145923167467,0.6478738333955407
1780626537976013800,2.132013916015625,-1.097526795517653,-1.650672280818224,0.3923565190598368
1780626537986044000,2.1420439453125,-0.5432908846318721,-2.0836808360010384,0.22250293348431585
1780626537996074000,2.152073974609375,0.4980285782344639,-2.801331093195081,-0.10790303309708833
1780626538006104000,2.16210400390625,0.7696794273778795,-2.6791543278127907,-0.31696108633577824
1780626538016134100,2.172134033203125,-0.023943770167231558,-1.623933326974511,-0.21513152793347834
1780626538026164000,2.1821640625,-0.602096709343791,-0.1364835231542587,-0.0927834976375103
1780626538036194000,2.192194091796875,-0.9393151324190199,1.264970251211524,-0.14272037171721458
1780626538046224000,2.202223876953125,-0.6781583508916199,1.5957342374503611,-0.4754427985474467
1780626538056254000,2.21225390625,-0.18976459309533236,1.5566753157377242,-0.7765943213328719
1780626538066284000,2.222283935546875,0.32812194729745386,1.9008114092469215,-1.147006719610095
1780626538076313900,2.23231396484375,0.713887835920602,2.1048370212763547,-1.4762225996240972
1780626538086344000,2.242343994140625,0.28650471940413114,2.3056290582120416,-1.5410311718821526
1780626538096374000,2.2523740234375,0.13245748250856995,1.9989532190471886,-1.5796251064315436
1780626538106404000,2.262404052734375,0.24137173847481608,1.779544159924984,-1.6844933018773793
1780626538116434200,2.27243408203125,0.08551832894012332,1.698901181936264,-1.6740288987472653
1780626538126464000,2.282464111328125,-0.6046485857836902,1.9962591576576232,-1.3075827737525105
1780626538136493800,2.292493896484375,-0.6708417442679405,1.193943242830038,-0.9894351079806685
1780626538146524000,2.30252392578125,-0.7720838581711054,-0.7887479927241802,-1.1299851499214768
1780626538156554000,2.312553955078125,-1.6517729355365036,-2.909787960782647,-1.1971730185315013
1780626538166584000,2.322583984375,0.6037615007508546,-5.838844101136923,-2.1819030175611376
1780626538176614100,2.3326142578125,3.3760680864483117,-7.059179676330089,-3.0389483014419674
1780626538186644000,2.34264404296875,2.7046587714254855,-6.789308257949352,-2.4912837317705154
1780626538196673800,2.352673828125,0.7969143480449914,-4.7173885868906975,-1.012189083841443
1780626538206703900,2.362703857421875,-1.1847796931654213,-1.14253980332911,0.2933145455494523
1780626538216734000,2.37273388671875,-3.0795524067699906,3.7703923984497782,1.7037603124052285
1780626538226764000,2.382763916015625,-4.099916029238701,7.590854941970109,2.9502617177292705
1780626538236794000,2.392794189453125,-3.1021079374492166,8.285593110132217,2.6281410566732286
1780626538246824000,2.402823974609375,-0.6165338154971599,5.572427207124233,0.6553291178375482
1780626538256854000,2.41285400390625,0.8377635872405021,2.989117518085241,-1.0443795810893177
1780626538266884000,2.422884033203125,0.5130453109066934,2.1620932784587144,-1.4325959316045045
1780626538276914000,2.432913818359375,0.038723260017484426,0.45133857712149617,-0.9560340658992529
1780626538286944000,2.442944091796875,-2.344456509256363,0.9995628265023231,0.5238210450083017
1780626538296973800,2.452973876953125,-4.484508051776886,0.11264145979583262,1.2028586629524827
1780626538307004000,2.46300390625,-3.0139702197909353,-1.4467133042842149,0.7650836240202188
1780626538317034000,2.473033935546875,-0.786376002895832,-1.379669812580943,0.3506289626598358
1780626538327064000,2.48306396484375,0.37462124814391135,-1.116003094059229,0.6585536328420043
1780626538337094100,2.49309423828125,1.1190493298873305,-1.2413017908543347,1.1463096772566437
1780626538347124200,2.503124267578125,0.8920316954575479,-1.3396166191339491,1.8743068486809729
1780626538357153800,2.51315380859375,0.20799846118316054,-0.5580436326056718,2.7686174488559363
1780626538367184000,2.523183837890625,0.15226312995776534,-1.1244552805840968,3.2987621439278123
1780626538377214000,2.5332138671875,1.0134073735900222,-2.8036908080637453,3.092353143893182
1780626538387244000,2.543244140625,1.7954843641176819,-2.93290813960731,2.935903229770064
1780626538397274000,2.553274169921875,2.5387106688559054,-1.7830214806467293,3.0443291176974774
1780626538407304000,2.563303955078125,2.7048057786807416,-1.7787451185017824,2.8999738382548093
1780626538417334000,2.573333984375,2.926984887038171,1.6312743373870848,2.506801034376025
1780626538427363800,2.58336376953125,1.7910256311431527,3.451993972787261,3.721565823699534
1780626538437394000,2.593393798828125,1.684678303055465,1.1889806519865989,3.347400210368633
1780626538447424000,2.603424072265625,1.592127737390995,1.9600252302378416,3.15235431586951
1780626538457454000,2.6134541015625,1.5782710614740847,0.5259492892086506,2.58457137953788
1780626538467484000,2.62348388671875,1.079345242138952,0.19902853439450263,1.675536380700767
1780626538477514000,2.633513916015625,0.7527731546320021,-1.3724410303711891,0.15846388429403305
1780626538487544000,2.6435439453125,0.596512771731615,-2.4845202289849517,-1.2124199797630308
1780626538497574100,2.65357421875,0.7662125549849123,-2.776663684928417,-2.435095396080613
1780626538507604000,2.66360400390625,0.8580746269285678,-3.2570179286539553,-3.1710780133008956
1780626538517633800,2.6736337890625,0.885204625916481,-3.205816733726859,-3.334757878677547
1780626538527663900,2.683663818359375,0.800115847500041,-3.0625264531672,-3.646229719947278
1780626538537694000,2.69369384765625,0.5032511351883411,-2.7628526017189023,-3.4963130069851873
1780626538547724000,2.70372412109375,0.26824294039607044,-2.3271967468976973,-2.724725407898426
1780626538557754000,2.713754150390625,0.2842319156339392,-2.2883780636817215,-1.9395590730533003
1780626538567784200,2.7237841796875,0.683271017730236,-1.5825076761305332,-1.42303666062057
1780626538577814300,2.733814208984375,1.151049857521057,-2.0504759010136127,-1.2501385927826165
1780626538587844000,2.743843994140625,1.424564016318321,-2.449915364071727,-1.061427162002027
1780626538597874200,2.753874267578125,1.083241811186075,-2.6738077060878274,-1.2216457810088992
1780626538607904300,2.763904296875,0.778979462903738,-3.188759215942025,-1.2476298248320816
1780626538617934300,2.773934326171875,1.1345084725648165,-3.2749861315429207,-0.7999190828189253
1780626538627964200,2.783964111328125,0.6305284385800362,-2.2538825043618678,-0.47533524651974435
1780626538637994200,2.793994140625,0.4234662353336811,-1.895892073023319,-0.17559622088074683
1780626538648024300,2.8040244140625,0.826305862224102,-2.922339399319887,-0.40850159817487
1780626538658054400,2.814054443359375,0.7983762372910976,-4.601279743245244,-1.0550409680962562
1780626538668084200,2.824084228515625,0.5089350260436535,-7.42384125599563,-3.5807620992586013
1780626538678114000,2.834114013671875,0.4141419421494007,-9.761729492777585,-4.3997874490857125
1780626538688144100,2.84414404296875,-0.23922201309502122,-9.770326640731096,-3.4379049494192
1780626538698174200,2.85417431640625,-0.8652455414712429,-8.6355165548712,-2.2867612761348486
1780626538708204300,2.864204345703125,-1.3280045072734354,-7.524950098907947,-1.8301614174842833
1780626538718234400,2.874234375,-1.8282640594303607,-6.428215184420347,-1.620427364680171
1780626538728264400,2.884264404296875,-2.3994833999514578,-5.1215889807403085,-1.3904635937958956
1780626538738294000,2.8942939453125,-2.256345679605007,-3.8601995106250047,-1.0834665598526596
1780626538748324000,2.904323974609375,-1.3244202190458774,-2.688171162483096,-0.6752091456972062
1780626538758354200,2.914354248046875,-0.5385118336617947,-1.5672861416012047,0.10990998900532722
1780626538768384300,2.92438427734375,0.18277531872987746,0.13612228862643241,2.0403268474429845
1780626538778414300,2.934414306640625,0.6096826344281434,4.062805903506279,4.731306053084134
1780626538788444200,2.944444091796875,-0.36340540559198703,9.494738013747334,6.340111369031668
1780626538798475300,2.954475341796875,1.194223301880434,18.164293616342544,8.486720662632584
1780626538808505300,2.96450537109375,3.5207214720547197,25.419171221339703,10.067093080300092
1780626538818535400,2.974535400390625,-0.8095878055267035,18.785801713120936,7.790413637718558
1780626538828565200,2.984565185546875,-4.3548686954289675,7.093036353224515,4.9028234802186486
1780626538838595000,2.994594970703125,-5.282225532898306,0.20630057122409343,3.30843685798496
1780626538848625200,3.004625244140625,-4.981697110447287,-3.415008934739232,2.3622882262840865
1780626538858655200,3.0146552734375,-5.075083250153065,-5.3104100093752145,1.3790212855443358
1780626538868685300,3.024685302734375,-4.730872922363877,-5.342495000422001,0.501337702782452
1780626538878715400,3.03471533203125,-4.1493519680589435,-4.70869265473783,-0.13872764881923794
1780626538888745200,3.0447451171875,-2.5688310818314553,-2.9467507869988676,-0.7498974530652165
1780626538898775300,3.054775390625,0.2493967856287956,0.9751321496009826,-1.4700279827676712
1780626538908805000,3.06480517578125,1.2881886297136544,4.729496957835555,-2.303758588165045
1780626538918835200,3.074835205078125,0.5660960061579943,4.832643444055319,-3.026618688961863
1780626538928865300,3.084865234375,-0.17786796520501374,3.4335645821273326,-3.143423113656044
1780626538938895000,3.09489501953125,-0.13518968395143746,2.1476018117696047,-2.8688112227499483
1780626538948925200,3.10492529296875,0.3729566759325564,0.4272200349092483,-2.7117870158702133
1780626538958955300,3.114955322265625,0.5712796924062072,-0.3337491395294666,-2.5625360733404756
1780626538968985300,3.1249853515625,0.38705928943455215,-0.2287193237811327,-2.0191769457779825
1780626538979015400,3.135015380859375,0.32194559675008055,0.19961539437174797,-1.3549891064412891
1780626538989045200,3.145045166015625,-0.2311997424200177,0.7412246095269918,-0.9717403152056038
1780626538999075000,3.155074951171875,-1.002884664401412,0.9778986917048692,-0.7294635907150805
1780626539009105200,3.165105224609375,-1.383674079786241,0.6909171485692263,-0.5892972873948514
1780626539019135200,3.17513525390625,-1.651184614254534,0.03778057233989238,-0.4528711935162544
1780626539029165300,3.185165283203125,-1.8627935210198163,-0.7795587240964174,-0.11822598192989825
1780626539039195400,3.1951953125,-1.953545220568776,-1.3465338511765002,0.38343116206526756
1780626539049225200,3.20522509765625,-1.956186382727325,-1.5246283186137675,0.9983981666371226
1780626539059255000,3.215255126953125,-1.5168255359083413,-1.3567220677137375,1.5876695889383554
1780626539069285000,3.22528515625,-0.7701911762923002,-0.9961153163969516,1.9681337178915739
1780626539079315200,3.235315185546875,-0.05517009855806827,-0.685825962910056,1.9776535336479544
1780626539089345300,3.24534521484375,0.01775660596489906,-0.6644827306300402,1.7912153084963558
1780626539099375400,3.255375244140625,0.026509236741065978,-0.9451602051854133,1.3750026975527405
1780626539109405200,3.2654052734375,0.03801701144427061,-1.255807286068797,0.7681079402774572
1780626539119435300,3.275435302734375,0.17953268354684113,-1.438022048306465,0.211614751984179
1780626539129465300,3.28546533203125,0.11085340733528136,-1.241096039149165,-0.05124707989543676
1780626539139495200,3.2954951171875,-0.2070031665354967,-0.8169979356527328,0.03331920901685953
1780626539149525200,3.305525146484375,-0.3129787387013435,-0.2067149972438812,0.14656126505434514
1780626539159555000,3.31555517578125,-0.42895255779027935,0.22696400454640386,0.11781126364916562
1780626539169585200,3.325585205078125,-0.6189853003025054,0.21446868011057377,-0.13833879563212395
1780626539179615200,3.335615234375,-0.9767477681040764,0.03497019109427929,-0.4657201536953449
1780626539189645300,3.345645263671875,-1.1533546273320912,-0.4279840050190687,-0.6950903426006436
1780626539199675400,3.35567529296875,-0.6407073027670384,-1.2363894688934087,-1.0911565298333763
1780626539209705500,3.36570556640625,0.11705080067068338,-1.9440595993429421,-1.8463284161701798
1780626539219735000,3.375735107421875,0.27253157750070095,-2.3280074787586926,-2.5509090561717747
1780626539229765000,3.38576513671875,-0.15791443371772765,-2.062442233139276,-2.8196961864471435
1780626539239795200,3.395795166015625,-0.7680541642636061,-1.0047674094080925,-2.532558283706009
1780626539249825300,3.4058251953125,-1.4001011907130478,0.5089057999491692,-1.8074533265918493
1780626539259855400,3.41585546875,-2.141649625366926,1.8654712157964706,-0.8546402685657143
1780626539269885200,3.42588525390625,-3.058229340495169,2.179151380765438,0.06985854912400245
1780626539279915300,3.435915283203125,-3.285788096064329,1.257948389750719,0.45627749482840296
1780626539289945000,3.445945068359375,-2.7694863406449555,0.06780746181309223,0.47011342021822927
1780626539299975200,3.45597509765625,-2.0759271531343457,-0.8794897554010153,0.35808453936278817
1780626539310005200,3.466005126953125,-1.5859399886667727,-1.5359119291722774,0.12423165208548306
1780626539320035300,3.476035400390625,-1.3235679861307144,-1.9171113866627216,-0.01943944448530674
1780626539330065200,3.486065185546875,-1.1696484672680496,-2.072679549515247,-0.01805734247714281
1780626539340095200,3.49609521484375,-1.3218904083073137,-1.8776216723173855,0.17634294759482144
1780626539350125300,3.506125244140625,-1.4694623117089272,-1.0129384409040212,0.35774230179637667
1780626539360155400,3.5161552734375,-1.284421532265097,0.11765724213123321,0.4697220828130841
1780626539370185200,3.526185302734375,-1.8868008579425513,0.9340262322306633,0.5003443078309298
1780626539380215000,3.536215087890625,-2.698184606975317,1.431837806713581,0.46592532087862487
1780626539390245000,3.5462451171875,-2.984518499857187,1.6201877107053995,0.5935112518280744
1780626539400275200,3.556275146484375,-2.5371897428989407,1.1242360848754644,0.8771241953134536
1780626539410305300,3.56630517578125,-1.645250255769491,-0.05315642064809799,1.1684873145341872
1780626539420335400,3.57633544921875,-0.769188136729598,-1.1855594453662632,1.397665195737779
1780626539430365400,3.586365478515625,-0.04842771162576973,-2.2676737138271332,1.485947290302813
1780626539440395300,3.596395263671875,0.7503449776370078,-3.1768279551297423,1.4670423910856245
1780626539450425000,3.606425048828125,1.9283505735576152,-3.2511253634840247,1.297777419053018
1780626539460455200,3.616455078125,2.7272628174215554,-2.677031928831339,1.0166852262169122
1780626539470485200,3.6264853515625,2.763851549628377,-1.734470507967472,0.4591717549651861
1780626539480515300,3.636515380859375,2.211656643050909,-0.8961170650750399,-0.36430180644243954
1780626539490545200,3.646545166015625,1.5126210699558258,-0.6727852795511484,-1.0250731153339148
1780626539500575200,3.6565751953125,1.3376876968979834,-0.871688726261258,-1.5111860687166452
1780626539510605300,3.666605224609375,1.8173241477429867,-1.0007254405409096,-1.556394160708785
1780626539520635100,3.67663525390625,2.116891616207361,-0.6515905158311128,-1.2950906641870736
1780626539530665200,3.686665283203125,2.0011820010125634,-0.41657647581994534,-0.754661598727107
1780626539540695300,3.6966953125,1.616370052113384,-0.32124154013395306,-0.040571664363145826
1780626539550725000,3.70672509765625,1.3837421765863895,-0.24186229847073554,0.742497990463674
1780626539560755200,3.716755126953125,1.3188577626131475,-0.36120939338505265,1.240387598618865
1780626539570785000,3.726784912109375,1.2343031641386448,-0.40170623894631863,1.38525199662745
1780626539580815000,3.736815185546875,0.8551999482750892,-0.5553454795628786,1.1989286300271749
1780626539590845200,3.74684521484375,0.21271350700631736,-0.9114280314534902,0.8630211434200405
1780626539600875300,3.756875244140625,0.17253332617878914,-1.0729238307893276,0.769167678463459
1780626539610905000,3.766905029296875,0.4103649078287184,-0.9758639710068702,0.7149006662249565
1780626539620935200,3.77693505859375,0.10031433153375982,-0.7033686338633298,1.0133245176121592
1780626539630965000,3.786965087890625,-0.26081600526571275,-0.4436035989552736,1.5608768590807913
1780626539640995000,3.7969951171875,-0.4285191348090768,0.1906552583247423,2.1058523357987404
1780626539651025200,3.807025146484375,-0.5799941831290721,0.7613081971347332,2.4507667202040553
1780626539661055000,3.817054931640625,-0.2472816931709647,1.015503322955966,2.532672557735443
1780626539671085000,3.8270849609375,0.0961406991109252,0.7262924133330583,2.2068746694713828
1780626539681115100,3.837115234375,0.10205401480793952,0.05939677634239197,1.5781909819751978
1780626539691145200,3.847145263671875,-0.16335019503086803,-0.7469184372544289,0.7169982230260967
1780626539701175300,3.85717529296875,-0.15321984616070985,-1.2475129204541444,-0.013306348557770251
1780626539711205000,3.867205078125,0.11792173828631639,-1.0719283900111913,-0.7196782558903098
1780626539721235000,3.87723486328125,0.243221019603312,-0.6294277838617562,-1.2597925563126802
1780626539731265000,3.88726513671875,0.3164209881097078,0.011525018098950386,-1.2876315803527831
1780626539741295000,3.897295166015625,0.4843602644965052,0.8398059797883033,-0.8976496814697981
1780626539751325200,3.9073251953125,0.6758125184178352,1.7868465918928385,-0.08691080621182919
1780626539761355300,3.917355224609375,0.46600160098522897,2.3085627735763787,0.5425450347006321
1780626539771385000,3.927385009765625,0.1309922322615981,2.127354558032751,0.8649538650482892
1780626539781415200,3.937415283203125,0.026888299186527728,1.0292723205894232,0.922103739246726
1780626539791445000,3.947445068359375,-0.07446370483189821,-0.5850824461787939,0.6183356042221189
1780626539801475000,3.95747509765625,-0.24182810394018886,-1.5977853247612714,0.3064101739659905
1780626539811505200,3.967505126953125,-0.1269680913120508,-1.4110370107471941,0.059926937696337695
1780626539821535200,3.97753515625,0.15661533381789922,-0.4338911832362413,0.08114186742156744
1780626539831565000,3.98756494140625,0.23506781602501867,0.8251485088825226,0.22464549847096205
1780626539841595100,3.99759521484375,-0.08851122714579104,1.6433371156245469,0.440436074835062
1780626539851625200,4.007625244140625,-0.6834718009993433,1.7389485301643608,0.8641519010156392
1780626539861655000,4.017655029296875,-0.9892170813158154,1.5602432373523711,1.3854317371085285
1780626539871685000,4.02768505859375,-1.0519593686938284,1.1138234119325876,1.8035095574021338
1780626539881715000,4.03771484375,-0.9006517858952283,0.41532852158546446,1.982611448316276
1780626539891745000,4.0477451171875,-0.5322971969306468,-0.23914719429314135,1.9494450917735695
1780626539901775000,4.057775146484375,-0.21555413725972175,-0.5075204830706119,1.7633134483531117
1780626539911805200,4.06780517578125,0.3306029504582286,-0.23772271444797513,1.4793576827794312
1780626539921835300,4.077835205078125,0.8600503109157085,0.4940080905467272,1.142249003688991
1780626539931865000,4.087864990234375,1.1477680593714117,1.0856178926676512,0.617592969161272
1780626539941895000,4.09789501953125,1.3641691688492894,1.0330407332122324,0.05991174012720585
1780626539951925000,4.107925048828125,1.3705086010038852,0.5705769509643316,-0.5318772179529071
1780626539961955000,4.117955078125,1.1589666219949721,-0.0014513678520917891,-0.9858721548020839
1780626539971985200,4.127985107421875,0.8686091726854444,-0.4226210166811943,-1.1984382161617277
1780626539982015200,4.13801513671875,0.6771770847693085,-0.6480600036174059,-1.133684881222248
1780626539992045000,4.148045166015625,0.4572112685471773,-0.5945803423643112,-0.969115081268549
1780626540002075100,4.1580751953125,0.21182634890824556,-0.4033756334632635,-0.7946966719955205
1780626540012106200,4.168106201171875,0.1295198216214776,-0.06485153461694718,-0.5608657042890787
1780626540022136300,4.17813623046875,0.05732756885290145,0.3203133193731308,-0.27328794882595536
1780626540032166000,4.188165771484375,-0.06524316428303718,0.7026777289897203,0.1343865508750081
1780626540042196000,4.198196044921875,0.019998247411847112,0.8273609242349863,0.6233543091669679
1780626540052226000,4.20822607421875,0.18487346005290745,0.7959884653717278,1.0970771520540117
1780626540062256000,4.218256103515625,0.3415504609301686,0.6379267321377993,1.4146268519327043
1780626540072286200,4.2282861328125,0.6617322628781199,0.4153869737744331,1.4890148611798881
1780626540082316300,4.23831640625,0.7668389432549476,0.21416355968415735,1.4576687058016657
1780626540092346000,4.24834619140625,0.9779042446628212,-0.04493102861642837,1.2193068166673182
1780626540102376200,4.258376220703125,1.1652411722198128,-0.11181611488759517,0.8360442891672253
1780626540112406000,4.268406005859375,1.13822281691283,-0.06747603790163993,0.41183015807569023
1780626540122436000,4.27843603515625,0.9751999541401862,-0.045856326767802234,0.0942208369642496
1780626540132466200,4.288466064453125,0.5867883733138441,-0.036090135034918785,-0.036493162877857685
1780626540142496000,4.29849609375,0.2612979435637593,-0.15348200422823427,0.06263298178464174
1780626540152526000,4.308526123046875,0.010251637162268162,-0.41234161472916603,0.26533319042921066
1780626540162556200,4.31855615234375,-0.03715951783210039,-0.6495224773854017,0.5355427547231316
1780626540172586200,4.328586181640625,0.09842354935109615,-0.7561252415388822,0.7767842909470201
1780626540182616000,4.338615966796875,0.3914332667350769,-1.0309271020591257,0.89220018389225
1780626540192646100,4.348646240234375,0.7380810508042573,-1.2614438306510447,0.8127037455901504
1780626540202676000,4.358676025390625,0.9545879587441682,-1.3668056548327208,0.5885720418602228
1780626540212706000,4.3687060546875,0.8109834976688027,-1.394224407634139,0.3577680207595229
1780626540222736100,4.378736083984375,0.7035343458190559,-1.2599071226030587,0.22511136241704224
1780626540232766200,4.38876611328125,0.5091086290448904,-1.136693415388465,0.2636024211138487
1780626540242796300,4.39879638671875,0.32484511758387086,-0.959286345693469,0.41130379611402745
1780626540252826000,4.408826171875,0.27977146562635896,-0.6520809296965598,0.6885796455323696
1780626540262856000,4.41885595703125,0.3760919052183628,-0.33049218356013293,1.050436689171195
1780626540272886000,4.428885986328125,0.4391887051224708,-0.1550672275930643,1.2861214680507778
1780626540282916000,4.438916015625,0.44409313603788614,-0.0038151743739843367,1.302493926180899
1780626540292946200,4.4489462890625,0.45038668322414155,0.4002624698787927,1.1525690299123525
1780626540302976300,4.458976318359375,0.25474457639753817,1.054919972065091,0.9824725754916668
1780626540313006000,4.469006103515625,0.3971209569826722,1.6031342845737933,0.8283996196329593
1780626540323036200,4.4790361328125,0.4384560069337487,1.673057715627551,0.7136199787646532
1780626540333066200,4.489066162109375,0.13023790676295757,1.1421791533231735,0.6563073152199387
1780626540343096000,4.499095947265625,-0.2969160771727562,0.4369079007089138,0.6627873248890042
1780626540353126100,4.509126220703125,-0.5544283647179603,-0.07701660418510436,0.7493877499774098
1780626540363156000,4.519156005859375,-0.5276575544312596,-0.30044600486457346,0.8415361645817756
1780626540373186000,4.52918603515625,-0.39366730939745903,-0.26279870351552964,0.8185244145676493
1780626540383216000,4.539216064453125,-0.12984832292348145,0.09010521833896637,0.6638824266493321
1780626540393246200,4.54924609375,0.11897650803625583,0.5467383947372436,0.3515665357708931
1780626540403276300,4.5592763671875,0.41635289619714017,0.8816226757764816,0.0522106642305851
1780626540413306000,4.56930615234375,0.4959320443466305,0.9300304405927657,-0.29494536162167784
1780626540423336000,4.5793359375,0.12903700654059647,0.7520774274528026,-0.6262196354702114
1780626540433366000,4.589365966796875,-0.26972879503965375,0.25793489687144755,-0.958163771404326
1780626540443396000,4.59939599609375,-0.4630184935212135,-0.2713473361521959,-1.2378078112587332
1780626540453426200,4.60942626953125,-0.6940984089538454,-0.6457347755402326,-1.4820713256523013
1780626540463456300,4.619456298828125,-0.9698293670177459,-0.9227700942009687,-1.7577280494362115
1780626540473486000,4.629486083984375,-1.0434121973618864,-1.0658744967997074,-1.9453177827104926
1780626540483516200,4.63951611328125,-0.9197104143694043,-1.1451853494018316,-2.102733034734428
1780626540493546000,4.6495458984375,-0.8536179397806525,-1.0772960545241832,-2.2371783300593493
1780626540503576000,4.659576171875,-0.9516425529420375,-0.990698552045226,-2.4162869429752227
1780626540513606100,4.669606201171875,-0.8159431659027934,-0.6241811153799295,-2.433413142082095
1780626540523636200,4.67963623046875,-0.6691770259261131,-0.19604396562576293,-2.2177529140993952
1780626540533666000,4.689666015625,-0.5725906288743019,0.10339081636965274,-1.9130366845697164
1780626540543696100,4.699696044921875,-0.5854334515735506,0.28229601566791535,-1.4760688703671097
1780626540553726200,4.709726318359375,-0.7112766305088997,0.2817120783001184,-0.9888722134009003
1780626540563756300,4.71975634765625,-0.7087389287248254,0.0740787971675396,-0.6517816544890404
1780626540573786600,4.72978662109375,-0.5147440045833588,-0.16718085923492906,-0.5093231485784053
1780626540583816700,4.739816650390625,-0.5014008311465382,-0.2661632115125656,-0.5108692089766264
1780626540593846800,4.7498466796875,-0.5482964378342032,-0.13536182564795016,-0.5288774516150355
1780626540603876900,4.759876953125,-0.6307526027247309,0.19855916331708431,-0.5424000732719898
1780626540613906700,4.76990673828125,-0.6884750161141157,0.5977881984949112,-0.4830842532113194
1780626540623936800,4.779936767578125,-0.7472340790748596,0.9546879119873046,-0.37701515754312276
1780626540633966600,4.789966552734375,-0.9814356336593627,1.0908762515872716,-0.2212663774266839
1780626540643996700,4.79999658203125,-1.1165154274955391,0.9377391152739525,-0.039245091934502124
1780626540654026800,4.81002685546875,-1.107589778240025,0.8430570905387401,0.10987374864816665
1780626540664056800,4.820056884765625,-1.0248401833608747,0.8816735291808843,0.29095073902755975
1780626540674087000,4.8300869140625,-0.8812500430718064,0.9730945062935352,0.4300432756364345
1780626540684116700,4.84011669921875,-0.666513944196701,0.9072755879491567,0.5782745197296142
1780626540694146600,4.850146484375,-0.44532793852984903,0.7604150476872921,0.5959381867140531
1780626540704176600,4.8601767578125,-0.5436132484540342,0.7765759088933467,0.5113014629140495
1780626540714206700,4.870206787109375,-0.684675331570208,0.9155839820891618,0.41257805383354423
1780626540724236800,4.88023681640625,-0.7585261652007699,1.3199562253743409,0.392371132107079
1780626540734267000,4.890266845703125,-0.8666878492340445,2.0471827046871183,0.5718643604263663
1780626540744296700,4.900296630859375,-1.092632447604835,2.5583628793090583,0.6735670775786042
1780626540754326800,4.910326904296875,-1.1732003145307301,2.710681684976816,0.7390206697419285
1780626540764356900,4.92035693359375,-1.088520043849945,2.3263737400770186,0.8270031968384981
1780626540774386700,4.93038671875,-1.1464496702492237,1.525281814086437,0.9930974298804998
1780626540784416800,4.940416748046875,-1.26287912415117,0.4909463648885488,1.1449077015042304
1780626540794446600,4.950446533203125,-0.8269666642203927,-0.5205290177255869,1.124697272646427
1780626540804476700,4.9604765625,-0.14124007003158331,-0.8834750256448983,0.9234636294230818
1780626540814506800,4.9705068359375,0.022700784368813037,-0.6713000094294548,0.7738809707209467
1780626540824536800,4.980536865234375,-0.08876987808197737,-0.35571488762199877,0.6580909837663174
1780626540834567000,4.99056689453125,-0.041244449058175085,-0.17194120550453662,0.49461891592144963
1780626540844596700,5.0005966796875,0.19047113392949103,-0.05835691190063953,0.30511808832883835
1780626540854626600,5.01062646484375,0.4268810122132301,-0.19275719904005525,-0.023067279593646524
1780626540864656600,5.02065673828125,0.6689537385642528,-0.5430974078863859,-0.5335486582964658
1780626540874686700,5.030686767578125,0.8739622241511941,-0.9940174673348665,-1.0570417865246533
1780626540884716800,5.040716796875,1.093670850741863,-1.2670406277447939,-1.6448501505360007
1780626540894747000,5.050746826171875,1.4053211173184215,-1.3331763569533823,-2.084259512671828
1780626540904776700,5.060776611328125,1.8193582839190958,-1.2144295660197735,-2.2256793231844902
1780626540914806800,5.070806884765625,2.0188383614733816,-1.2602408846020698,-2.094008168748021
1780626540924836600,5.080836669921875,1.5956242012046276,-2.350062658700347,-1.9346803611010313
1780626540934866700,5.09086669921875,1.246421471955627,-4.2109792799323795,-1.9515818115413188
1780626540944896800,5.100896728515625,1.3762769552722574,-5.70773934841156,-1.9118805002719164
1780626540954926800,5.1109267578125,1.7640873553350567,-6.334478916102648,-1.7938304594308137
1780626540964956700,5.120956787109375,1.8048039811268448,-5.407366408783197,-1.613200336036086
1780626540974986800,5.13098681640625,1.491383928398788,-2.884123942694068,-1.4040104731112717
1780626540985016800,5.141016845703125,1.5484034542158245,0.17883739475905894,-1.0574819315075874
1780626540995047700,5.151047607421875,1.7630524593293666,2.7939900827825066,-0.4559878642320633
1780626541005076700,5.16107666015625,1.3427847277760505,4.13242421413362,0.19727555324733256
1780626541015107600,5.171107666015625,0.33321137939095496,3.716237029892206,0.8934887623980641
1780626541025137700,5.1811376953125,0.04065934264659881,1.0537661258548499,1.3959233205065131
1780626541035167700,5.191167724609375,0.23542875829190013,-2.3089263461917637,1.402962133102119
1780626541045197800,5.20119775390625,0.041400808663666244,-4.2529742550969125,0.9561799041107296
1780626541055227600,5.2112275390625,0.3445613331839442,-4.380577721703053,0.18846447028219698
1780626541065257700,5.2212578125,0.2350537874996662,-3.457788338279724,-0.5375947188168764
1780626541075287800,5.231287841796875,-0.003227437613904476,-2.9146470912516116,-1.0091980853319167
1780626541085318000,5.24131787109375,-0.2170835387840867,-2.278707733538747,-1.108628473637998
1780626541095347700,5.25134765625,-0.7073325690582394,-1.0290075321733951,-0.6726151836812496
1780626541105377800,5.261377685546875,-0.7985100928038358,0.6183662916213274,0.16440817965120078
1780626541115407600,5.27140771484375,-0.6670984660863876,2.165616776409745,1.023009753063321
1780626541125437700,5.281437744140625,-1.037879405415058,3.5275814209520813,1.8334768256425857
1780626541135467800,5.2914677734375,-1.329997434656322,4.307549894893169,2.3987065703600643
1780626541145497900,5.301497802734375,-1.1693591289326548,3.5501837133824825,2.46177969712764
1780626541155528000,5.31152783203125,-0.9323813876330852,1.3808593146264552,1.9251406716004014
1780626541165557500,5.3215576171875,-0.5624173176452517,-0.633147096645832,0.9957868150949477
1780626541175587600,5.331587646484375,-0.0559925208568573,-1.9906097535938023,-0.04598024540841579
1780626541185617700,5.34161767578125,0.002328150686621666,-2.8718939911961554,-0.8218933064788579
1780626541195647700,5.351647705078125,-0.38864451279938217,-3.3172593391269443,-1.1635615485697983
1780626541205677800,5.361677734375,-0.6662693217858672,-3.0956928097099063,-1.0393909790217877
1780626541215708000,5.3717080078125,-0.3864443724066019,-1.5319354267567395,-0.0853913415595889
1780626541225737700,5.38173779296875,-0.32261049039959905,0.3978098160296678,1.0529311363354326
1780626541235767800,5.391767822265625,-0.33671646490246054,1.6117682574063539,1.7572870276704429
1780626541245797600,5.401797607421875,-0.09998276149183512,2.1650305009543893,1.6697689032152294
1780626541255827700,5.41182763671875,-0.1531716231048107,1.9948241564184426,0.6873670548722147
1780626541265857800,5.42185791015625,-0.33680268188118934,1.0818541562199593,-0.4772577390149235
1780626541275887600,5.4318876953125,-0.3649357204318046,-0.014423662149906157,-1.3036419271722435
1780626541285917700,5.441917724609375,-0.5070198400720953,-1.0148878214061259,-1.6185650779396294
1780626541295947800,5.45194775390625,-0.34391280614733694,-1.2026228083699941,-1.2456798598080874
1780626541305977900,5.461977783203125,-0.0229354699075222,-0.05173837054371833,-0.26086072119027376
1780626541316008000,5.472008056640625,-0.008451894263923168,1.5782114402413367,0.8630155904620885
1780626541326037800,5.482037841796875,0.05378507394045591,2.7064211049228906,1.6727923426896332
1780626541336067600,5.492067626953125,0.13757745587080716,2.881538602375984,1.7671920433521269
1780626541346097700,5.50209765625,-0.003204348999261856,2.2380869693368672,0.9957274861231445
1780626541356127700,5.512127685546875,0.024193068753182886,0.9438251571893691,-0.20129910967499018
1780626541366157800,5.52215771484375,0.2965802693471312,-0.25130641864240166,-1.178491698937118
1780626541376188000,5.53218798828125,0.6423249670967459,-0.6369184318780898,-1.558634048590064
1780626541386217700,5.5422177734375,0.79231065364182,-0.5969090775728225,-1.367698219758272
1780626541396247600,5.55224755859375,0.6361190981939434,-0.39494565877020354,-0.7822489860936999
1780626541406277600,5.562277587890625,0.5366060000404715,0.0879039089024067,-0.0010924714118242262
1780626541416307700,5.5723076171875,0.5262044330134987,0.785379977595806,0.6508470039874314
1780626541426337800,5.582337890625,0.6028162557899952,1.4264403315842151,1.0116381719604135
1780626541436368000,5.592367919921875,0.7608151529207825,1.8916414298415183,1.0763871229857205
1780626541446397700,5.602397705078125,0.8485109720304608,2.0986977878689763,0.8832681048959493
1780626541456427800,5.612427734375,0.8973939531430601,1.7847335452616213,0.4867141341462731
1780626541466457900,5.622457763671875,0.8980933335840702,1.0034428828060626,-0.04430851280391216
1780626541476487700,5.63248779296875,0.7884159842908381,0.29944296530187126,-0.5723623730763793
1780626541486517800,5.642517822265625,0.6760653241351247,-0.21299510042667388,-0.9369815749049186
1780626541496547600,5.652547607421875,0.5971893558189273,-0.5265957704186439,-1.1524366357043385
1780626541506577700,5.66257763671875,0.38287615853101015,-0.6229466051489114,-1.1973232406571506
1780626541516607700,5.672607666015625,0.2020823690071702,-0.4711059383869171,-1.0852034666478634
1780626541526637800,5.682637939453125,0.2287079256042838,-0.15083061293661593,-0.9173246882766485
1780626541536668000,5.69266796875,0.24741204155236482,0.24413667314350604,-0.7361644035279751
1780626541546697700,5.70269775390625,0.20522183607667682,0.5665887581110001,-0.5615373199403285
1780626541556727600,5.7127275390625,0.10853519352078438,0.7624035911560059,-0.3696057580694556
1780626541566757600,5.722757568359375,-0.09574351648688316,0.7825520606935024,-0.18653817839473485
1780626541576787200,5.732787109375,-0.2574769239708781,0.5355418779402971,0.09403612804710865
1780626541586817300,5.7428173828125,-0.31472733593434093,0.0414139604061842,0.3953516092225909
1780626541596847400,5.752847412109375,-0.32701749318689105,-0.5695353329569101,0.6470408897027373
1780626541606877400,5.76287744140625,-0.2768877268835902,-1.2774684982568025,0.859909441140294
1780626541616907000,5.772906982421875,-0.2092708192065358,-1.8361755632072687,0.9655725863561033
1780626541626937000,5.78293701171875,-0.09797375975698232,-2.1868442733556033,0.9280945040941238
1780626541636967200,5.79296728515625,0.11384732845425605,-2.268956739374995,0.6572489799842238
1780626541646997200,5.802997314453125,0.2645344412669539,-2.160348480618,0.19098375962674616
1780626541657027300,5.81302734375,0.29047464594841,-2.0678321094840766,-0.3442468604072928
1780626541667057200,5.82305712890625,0.34359131910800933,-2.0097849941849706,-0.8029711638659238
1780626541677087200,5.833087158203125,0.387831735111773,-1.972432291868329,-1.1575172999694943
1780626541687117300,5.843117431640625,0.3877960792765021,-1.8084025901407002,-1.2889452932998537
1780626541697147100,5.853147216796875,0.4426157569617033,-1.4528706578701733,-1.2861778744131327
1780626541707177200,5.86317724609375,0.409782870157063,-0.7909855425179004,-1.162549448917806
1780626541717207300,5.873207275390625,0.3223509626805782,0.1471586464256048,-0.8969239975437522
1780626541727237000,5.883237060546875,0.18305559697598217,1.1454647508651017,-0.6015878830388188
1780626541737267200,5.89326708984375,0.09618541503548622,1.869379329150915,-0.19986586200147866
1780626541747297300,5.90329736328125,0.09140256467312574,2.1159330003082752,0.15711100838035344
1780626541757327400,5.913327392578125,0.11917583000063896,1.803315496134758,0.49809419081658124
1780626541767357400,5.923357421875,0.2445487610757351,0.9897855288535355,0.755320062635839
1780626541777387300,5.93338720703125,0.3804860485240817,0.10203706367313861,0.9449389636501669
1780626541787417000,5.9434169921875,0.5012687291994691,-0.5542582688480615,1.1929106849119067
1780626541797447200,5.953447265625,0.3983125048547983,-0.8528338036656379,1.2578110271066427
1780626541807477200,5.963477294921875,0.10565174703896045,-0.8189777112931013,1.2296981545612216
1780626541817507300,5.97350732421875,-0.005246376220881938,-0.5006710555672645,0.9795262929067015
1780626541827537400,5.983537353515625,0.13482377324849365,-0.012456745991110801,0.5621256412222981
1780626541837567200,5.993567138671875,0.32412995505183934,0.485658779874444,0.109908527700603
1780626541847597000,6.00359716796875,0.36974516654014583,0.735908967462182,-0.1307227676704526
1780626541857627100,6.013627197265625,0.29218349569290875,0.8250193295449018,0.008188859413564205
1780626541867657200,6.0236572265625,0.17985007893294094,1.082690022522211,0.18857436039745806
1780626541877688000,6.03368798828125,0.14459756376594304,1.2529244241088628,0.5333098811045289
1780626541887718100,6.04371826171875,0.2297096499927342,1.2165250769943,0.8275801199436187
1780626541897748200,6.053748291015625,0.22596242628842592,0.8613105401098727,1.1821084281295537
1780626541907778300,6.0637783203125,0.09796689162477851,0.469352957239747,1.3412962427839636
1780626541917808400,6.073808349609375,-0.01980360162258148,0.11414660366177558,1.3336354988977313
1780626541927838200,6.083838134765625,-0.11816899104565382,-0.40780221773386,1.2679361152797937
1780626541937868300,6.093868408203125,-0.08233078494518994,-0.9281617241114377,1.0605214453339575
1780626541947898000,6.103898193359375,0.025466157428920267,-1.1709586730837822,0.830694160310924
1780626541957928200,6.11392822265625,0.17642536518126725,-0.9930331324726343,0.5656657980471849
1780626541967958300,6.123958251953125,0.15004545390829443,-0.7323305244535208,0.36060441322922704
1780626541977988400,6.13398828125,0.06892082988247275,-0.4916021984487772,0.20315847380608318
1780626541988018200,6.14401806640625,0.0968820189975202,-0.41712826448380946,0.06620879444479942
1780626541998048300,6.15404833984375,0.2763185486935079,-0.3629015842556953,-0.022223814506828785
1780626542008078300,6.164078369140625,0.3190590815283358,-0.4259311641424894,-0.12980857543498278
1780626542018108200,6.174108154296875,0.10001534858718514,-0.6110094991177321,-0.18904431599676608
1780626542028138200,6.18413818359375,-0.2690601019978523,-0.6227806009322404,-0.2548974288716912
1780626542038168000,6.19416796875,-0.5494551063500345,-0.3125479460686445,-0.2611614577025175
1780626542048198100,6.2041982421875,-0.6969008260887116,0.1264332537829876,-0.185314481818676
1780626542058228200,6.214228271484375,-0.6004699849247932,0.6402613125652075,-0.13221037587970494
1780626542068258300,6.22425830078125,-0.4333388831157237,1.1974229016393423,-0.035787937217950816
1780626542078288400,6.234288330078125,-0.236462521786429,1.7144406963735819,0.09763356801718473
1780626542088318500,6.244318359375,-0.16407650001142174,2.060941765448451,0.22830109836906193
1780626542098348000,6.25434814453125,-0.3408171782195568,2.0187322707504034,0.3832324246227741
1780626542108378000,6.264378173828125,-0.545408022916317,1.4403729953467845,0.4833960956394672
1780626542118408200,6.274408203125,-0.4010626803457737,0.5696276874154805,0.5971569148540496
1780626542128438300,6.284438232421875,0.08576921669496222,-0.24540450112223625,0.7282026308685541
1780626542138468400,6.29446826171875,0.055193515966273844,-0.9331319137394428,0.706598409564793
1780626542148498200,6.304498291015625,-0.725821288689971,-1.1949649870932102,0.49897272721678015
1780626542158528300,6.3145283203125,-1.1846311515402048,-0.9678127664983271,0.28509967491179705
1780626542168558000,6.32455810546875,-1.0279986473917961,-0.6474065081447362,0.31610373885408044
1780626542178588200,6.334588134765625,-0.5709165581822395,-0.44553076762557026,0.45359366257190703
1780626542188618200,6.3446181640625,-0.025264205116033552,-0.11234686076343059,0.5413775983564555
1780626542198648300,6.3546484375,0.42238662340343,0.3166191410303116,0.6485844658829272
1780626542208678100,6.36467822265625,0.8177268344491719,0.5636240630865097,0.5011057937227189
1780626542218708200,6.374708251953125,0.6886329100895673,0.6989198377609253,0.39902635221257804
1780626542228738300,6.38473828125,0.5263543628782034,0.5391138912081718,0.33636940503045915
1780626542238768400,6.394768310546875,0.36939080014452336,0.2609767487853765,0.35680041783638294
1780626542248798200,6.404798095703125,0.3487042782075703,-0.2236561951726675,0.3887401551935822
1780626542258828300,6.414828369140625,0.3683962361492216,-0.7282108141750097,0.44868945085220036
1780626542268858000,6.424858154296875,0.575273145956546,-1.0049427659749983,0.5839691877072677
1780626542278888200,6.43488818359375,0.887836874116212,-1.0880080026745795,0.7679414976693689
1780626542288918300,6.444918212890625,1.3105349015563725,-0.899751622185111,0.8296333261463791
1780626542298948400,6.4549482421875,1.4758173798240721,-0.6332920580744743,0.8196097255863248
1780626542308978400,6.464978515625,1.1586262841247021,-0.18549568360447882,0.8060116275403648
1780626542319008300,6.47500830078125,0.5039920166835189,0.18834405877292154,0.7854086191684008
1780626542329038000,6.4850380859375,0.13346125272363424,0.17210954780876636,0.6801613612771034
1780626542339068200,6.495068115234375,0.17616028450429438,-0.2654834125548601,0.31553193031549454
1780626542349098200,6.50509814453125,0.2743547012746334,-0.7731845128893852,-0.0574203617028892
1780626542359128300,6.51512841796875,0.33889643929004665,-1.2624398559510708,-0.1797451572537422
1780626542369158100,6.525158203125,0.22886194712221622,-1.9688316370278596,-0.35615897812768815
1780626542379188200,6.535188232421875,0.006168021110445261,-2.6996248689115045,-0.6174447928622364
1780626542389218300,6.54521826171875,0.07818652474731207,-3.270906753274798,-0.8299737370818853
1780626542399248100,6.555248046875,0.19620354010164737,-3.7613580281227823,-1.0210472208186983
1780626542409278200,6.5652783203125,0.3518871460273862,-3.9600820266127585,-1.2257345116272569
1780626542419308300,6.575308349609375,0.24965514430403707,-3.6759909442216157,-1.4535907888382673
1780626542429338000,6.585338134765625,-0.103491061873734,-2.7153584446161982,-1.383770818158984
1780626542439368200,6.5953681640625,-0.27748452373296023,-1.2793337076067923,-1.0378922648966311
1780626542449398300,6.605398193359375,0.11324600156024098,0.0676432111620903,-0.4944958740636706
1780626542459428400,6.615428466796875,0.8855091618210077,1.034925231784582,-0.08717910175919533
1780626542469458400,6.62545849609375,1.2752201348081231,1.5065309363871813,0.1271273735269904
1780626542479488300,6.63548828125,0.6701952630579471,1.2195838800430296,0.31144641456753014
1780626542489518000,6.64551806640625,0.10452215848714112,0.1360001235514879,0.3484329139202833
1780626542499548200,6.655548095703125,0.10348580117672682,-0.8559469672501087,0.17823183008134363
1780626542509578200,6.665578125,0.0020040332987904547,-1.2871668854504823,0.10496434929668903
1780626542519608300,6.6756083984375,-0.06434592318236827,-1.4374971476495264,0.2517892337232828
1780626542529638400,6.685638427734375,0.399780823841691,-1.0952578276723623,0.3859557121068239
1780626542539668200,6.695668212890625,0.7453789527274668,-0.5432733489751815,0.3686243458166718
1780626542549698300,6.7056982421875,0.6182908882975577,-0.06726502549946307,0.34427082580477
1780626542559728000,6.71572802734375,0.43189562550485133,0.0985258406817913,0.40217619454562664
1780626542569758700,6.7257587890625,0.24915683939307925,-0.17892448852062223,0.5045239316031337
1780626542579788800,6.735788818359375,0.2766913275286555,-0.742218296739459,0.7072180027678608
1780626542589818600,6.745818603515625,0.591373801407963,-0.9015057723760604,0.7985320123746991
1780626542599848400,6.755848388671875,0.6227813315846026,-0.5328904866486788,0.6736477415993809
1780626542609878500,6.76587841796875,0.644654286827147,-0.172500008431077,0.42086160579323767
1780626542619908600,6.77590869140625,0.6198717277482152,-0.0005675707548856735,0.04295242201983929
1780626542629938700,6.785938720703125,0.213321263641119,0.03477963695824146,-0.3008338351383805
1780626542639968500,6.795968505859375,-0.17436024934500455,0.2386784077376127,-0.49250119311511514
1780626542649998600,6.80599853515625,-0.35521658271104095,0.4841968906283378,-0.5046031343191861
1780626542660028700,6.816028564453125,-0.38595381241068244,0.7356640527904034,-0.40080841332376
1780626542670058800,6.826058837890625,-0.7885128687940538,0.7159662496298551,-0.11994593759030103
1780626542680089600,6.836089599609375,-1.0863191728048025,0.36029520114958286,0.36034605455398555
1780626542690119400,6.846119384765625,-0.8094488354474305,0.11077800401151179,0.5704030557021499
1780626542700149500,6.8561494140625,-0.38513328980803485,0.10312485890984535,0.4373515528231859
1780626542710179600,6.8661796875,-0.14203443527966736,0.6277174728125333,0.11192308239340781
1780626542720209700,6.876209716796875,-0.3481231173187494,1.0179717588961124,-0.15441519342511892
1780626542730239700,6.88623974609375,-0.2451166240915656,0.9099375006347894,-0.18343626685664058
1780626542740269600,6.89626953125,-0.200178581212461,0.7654378442853689,-0.19149200140982864
1780626542750299600,6.906299560546875,-0.3373588544592261,0.2035527338206768,-0.22624533488303422
1780626542760329700,6.916329833984375,-0.2149490109734237,-0.6133738901615142,-0.17138254870846867
1780626542770359600,6.926359619140625,-0.21329934407025575,-1.3840963968515396,-0.060765142086148256
1780626542780389600,6.9363896484375,-0.09139628106281161,-1.6504735433757305,-0.03510024721473455
1780626542790419500,6.94641943359375,-0.09640022682994603,-1.4110142143934965,-0.2047564105220139
1780626542800449500,6.956449462890625,-0.1798430646702647,-0.7114946571737527,-0.37497576067000626
1780626542810479600,6.966479736328125,-0.0422490960560739,-0.08280453993678093,-0.3733504975557327
1780626542820509700,6.976509765625,0.3600707447439432,0.42628772249519825,-0.2714088570810854
1780626542830539800,6.986539794921875,0.9716916537582874,1.1331237402081489,-0.21736220959499478
1780626542840569600,6.996569580078125,1.358528240352869,1.5596324119776486,-0.30868659446537494
1780626542850599400,7.006599365234375,1.226062428407371,1.3100953410953282,-0.5141770183503628
1780626542860629500,7.01662939453125,0.5482987759217619,0.8608844236522912,-0.6513122834116221
1780626542870659600,7.02665966796875,-0.16734803249537944,0.3350666518688202,-0.7437268016062677
1780626542880689700,7.036689697265625,-0.9198901548504829,-0.4837497313827276,-0.759697254806757
1780626542890719700,7.0467197265625,-1.4105442587941883,-1.2866314633995293,-0.5857150449939071
1780626542900749600,7.05674951171875,-1.5722054778248071,-1.8929303006082772,-0.19765666151940822
1780626542910779600,7.066779541015625,-1.2500830632030964,-1.7215630955994128,0.29048312151581046
1780626542920809500,7.0768095703125,-0.5821554528161883,-0.5719289500951766,0.764633834426105
1780626542930839600,7.086839599609375,0.11537468415200709,0.9150877230048179,0.8019337836422026
1780626542940869600,7.09686962890625,0.3543573355332017,2.184061364638805,0.515638615335524
1780626542950899700,7.106899658203125,-0.30361557481139895,2.7663077106088396,0.0931238355077803
1780626542960929500,7.116929443359375,-1.28650900606364,2.1602900284290314,-0.4079109388053417
1780626542970959600,7.126959716796875,-1.9252683896332978,0.6932721872627735,-0.7316608084984123
1780626542980989700,7.13698974609375,-1.7534534408569336,-0.5969032323539256,-0.8544257490321994
1780626542991019800,7.147019775390625,-1.639894281694293,-0.9944026672601699,-0.918273075042665
1780626543001049600,7.157049560546875,-1.8539425444357096,-0.8453799805283546,-0.9146870332494378
1780626543011079400,7.167079345703125,-1.953519209344685,-0.41855683598220345,-0.7613499904498457
1780626543021109500,7.177109619140625,-1.694450924529135,0.3251870628893375,-0.3970354706563055
1780626543031139600,7.1871396484375,-1.1198153458237647,1.0091554152339697,-0.10148768616206943
1780626543041169700,7.197169677734375,-0.7993763542443514,0.8836293394237756,-0.12181538472399114
1780626543051199700,7.20719970703125,-0.4877943305984139,0.16120470743477344,-0.2990221826065331
1780626543061229800,7.217229736328125,-0.45917467757463454,-0.6473480559557676,-0.4666159334912896
1780626543071259400,7.22725927734375,-0.35449484430775047,-1.26132225009799,-0.538265896076709
1780626543081289500,7.23728955078125,-0.14724340209960937,-1.6377537625342606,-0.6781123197928071
1780626543091319600,7.247319580078125,-0.15519845275729893,-1.8178244984805583,-0.6296943989086896
1780626543101349600,7.257349609375,0.17525018392205238,-1.746786968705058,-0.6405466323126107
1780626543111379700,7.267379638671875,0.6523188301056623,-1.099035008123517,-0.7131843638263642
1780626543121409500,7.277409423828125,0.7055566454268991,-0.465302220544219,-0.8537082484126091
1780626543131439600,7.287439697265625,0.568095655542612,-0.11513152304589748,-1.0373526050619781
1780626543141469700,7.2974697265625,0.6574979863092303,-0.14036533302366733,-1.2059344171360133
1780626543151499500,7.30749951171875,0.45221068378090856,-0.3325812647938728,-1.2569089637003839
1780626543161529600,7.317529541015625,0.36936727313846346,-0.5883896710306405,-1.0884016781672834
1780626543171559700,7.3275595703125,0.08483107732832432,-0.9281301599293946,-0.8892940871872007
1780626543181589500,7.337589599609375,-0.10521350175216794,-0.8888695781648158,-0.6390912458725273
1780626543191619600,7.34761962890625,-0.045375849774479865,-0.7980021432816982,-0.5008377904362976
1780626543201649700,7.357649658203125,-0.2876350386083126,-0.6255658477365971,-0.2828357668341137
1780626543211679700,7.3676796875,-0.27126930247992276,-0.38062487247288224,0.10435156942689791
1780626543221709800,7.377709716796875,-0.22415333103984594,-0.04840601125061512,0.46506556224413215
1780626543231739600,7.38773974609375,-0.4105979859322309,-0.015761632755398748,0.848382815606147
1780626543241769500,7.39776953125,-0.8138856488510966,-0.17489362556934357,1.1479472153306007
1780626543251799600,7.407799560546875,-0.743337363897264,-0.31336393862664697,1.1136853917013854
1780626543261829600,7.41782958984375,-0.7217781507790089,-0.2310714398652315,0.7707225797552615
1780626543271859700,7.427859619140625,-0.6320147316150367,-0.3230710936486721,0.09945009765354916
1780626543281889800,7.437889892578125,-0.6081482644677162,-0.3526683595329523,-0.43222544198110696
1780626543291919600,7.447919677734375,-0.17647329597622155,-0.0025976152777671814,-0.5560579752137884
1780626543301949400,7.457949462890625,-0.01701513994783163,0.33774668473303315,-0.23416103991102427
1780626543311979500,7.4679794921875,-0.16876769003495573,0.08534545659124851,0.21139212220944462
1780626543322009600,7.478009521484375,-0.06462298655807971,-0.33330373384952544,0.5896002158641814
1780626543332039700,7.488039794921875,-0.16750760697126388,-0.6664817954927682,0.9302793007872998
1780626543342069500,7.498069580078125,-0.039572131931781766,-0.8116238413989544,1.0491731720414013
1780626543352099600,7.508099609375,0.0684492668479681,-0.7292606154888868,1.0658403753343968
1780626543362129700,7.518129638671875,0.045675124981999396,-0.612719810166955,0.9078300069615244
1780626543372159700,7.52815966796875,0.24241671748310326,-0.2348749238014221,0.6167867673449218
1780626543382189600,7.538189453125,0.29012130246609447,0.008232990816235542,0.27168515327181664
1780626543392219600,7.5482197265625,0.12376754170507191,-0.3324380569308996,0.045876766767632214
1780626543402249500,7.55824951171875,-0.019901655169576406,-0.6924772374927998,-0.10539185399375856
1780626543412280600,7.568280517578125,-0.10866334994509816,-0.6868921308368444,-0.32791553800515827
1780626543422309600,7.5783095703125,-0.11723697089254856,-0.4942237791240215,-0.3591597673788667
1780626543432340700,7.5883408203125,-0.27667876030802724,-0.5805442182272672,-0.056931902332510796
1780626543442370600,7.59837060546875,-0.42281843894943594,-0.6402373471677303,0.5039210703391581
1780626543452400600,7.608400634765625,-0.43957916574478145,-0.7056991226375102,1.0089064089089632
1780626543462430700,7.6184306640625,-0.37252997495308515,-0.7630985876828431,1.2374991837009788
1780626543472460500,7.62846044921875,-0.23003610546812414,-0.8911486290127039,1.1811791844554245
1780626543482490600,7.63849072265625,0.05882686749994755,-0.7960545163452625,0.8745769219834357
1780626543492520400,7.6485205078125,0.14791165674999354,-0.43737610274255273,0.35694344303626563
1780626543502550500,7.658550537109375,-0.12455167782008647,-0.2530564771801233,-0.0123153099601157
1780626543512580600,7.66858056640625,-0.363158627756685,-0.04176408901810646,-0.18139460496120155
1780626543522610700,7.678610595703125,-0.3713046709418297,0.12529752775132655,-0.13086042257547378
1780626543532640800,7.688640869140625,-0.19054821775369346,-0.015710779350996018,0.1292362919723615
1780626543542670800,7.6986708984375,0.04624043071456253,-0.32714404217600823,0.5190004199188202
1780626543552700400,7.708700439453125,0.19997838246524333,-0.3046013709783554,0.828988671567291
1780626543562730500,7.71873046875,0.026288287466764447,-0.03896306012272834,0.7958974991526454
1780626543572760000,7.728760009765625,-0.2213771443247795,-0.0466553681910038,0.7501014512047172
1780626543582790000,7.738789794921875,-0.33681024413313715,0.043811084675788876,0.7281799075800925
1780626543592820000,7.748820068359375,-0.5866109343877062,0.21988544446229932,0.6920815161734819
1780626543602850000,7.75885009765625,-0.6632172407388687,0.29977964991033074,0.7423079477842897
1780626543612880000,7.7688798828125,-0.6587362959325314,0.3399292894691229,0.5865552221450955
1780626543622910000,7.778909912109375,-0.30579671824276444,0.4421007931768894,0.3363387906964868
1780626543632940000,7.78893994140625,-0.019389166469639167,0.49871758341193195,0.2787403507466428
1780626543642970000,7.79897021484375,0.2953191633701324,0.6118441963762045,0.3951259472405538
1780626543653000000,7.809,0.24455460629463194,0.5611100344389677,0.49214021431561555
1780626543663030000,7.819030029296875,0.2445429158568382,0.3150105367898941,0.6465536176424473
1780626543673059800,7.829059814453125,0.29085692326426504,0.09105039023458956,0.6987393666274845
1780626543683090000,7.83908984375,0.4305085550606251,-0.19093232170045374,0.5940786764524877
1780626543693120000,7.8491201171875,0.6488251427710056,-0.33829496626555916,0.6243879630636423
1780626543703150000,7.859150146484375,0.904223799163103,-0.2505167295694351,0.6386169063590467
1780626543713180200,7.86918017578125,1.0005237804889677,0.020674539238214492,0.6910807416331023
1780626543723210000,7.8792099609375,0.9163443720024078,0.4467915813416242,0.6075587741419672
1780626543733239800,7.88923974609375,0.8164590064704418,0.7397375858396291,0.4452665637314319
1780626543743270000,7.899269775390625,0.5942600974339991,0.7582751130491495,0.24233641878850756
1780626543753300000,7.909300048828125,0.4815185382645577,0.5675999809801578,-0.00000646627340465784
1780626543763330000,7.919330078125,0.3127658996682614,0.2883797194957733,-0.1343952456381172
1780626543773360000,7.929360107421875,0.38953810063824057,-0.008965396744012833,-0.18296543447449803
1780626543783390000,7.939389892578125,0.440374042449519,-0.2075917800784111,-0.13024733217842877
1780626543793420000,7.949419921875,0.4318471101880073,-0.3950912047207355,-0.0011108838513493537
1780626543803449900,7.959449951171875,0.6886017112337053,-0.3729711428493261,0.11623911896161734
1780626543813480000,7.96947998046875,0.9165816148243844,-0.12934826444685457,0.261015034969151
1780626543823510000,7.979510009765625,0.6102597036637365,-0.2317459781259298,0.4169308422155678
1780626543833539800,7.989539794921875,0.12404007503613829,-0.7199041736006736,0.690325831612572
1780626543843570000,7.99956982421875,-0.18075521107912063,-0.9177285929024219,0.9476432541728019
1780626543853600000,8.00960009765625,-0.13058408985212444,-0.37671968172788617,1.0706237371534109
1780626543863630000,8.019630126953125,-0.18238354293331502,0.7331547003179788,1.0151398964710534
1780626543873660200,8.02966015625,-0.8548951201096177,1.5588327860325575,0.6277975523114204
1780626543883690000,8.03968994140625,-0.73852835618034,2.082814574560523,-0.08386588555797934
1780626543893719800,8.0497197265625,-0.40682285130769014,2.431307109713554,-0.6546775951262563
1780626543903750000,8.05975,-0.4128128855027258,1.7114391764700412,-0.9248892783120274
1780626543913780000,8.069780029296876,-0.4088920587971806,0.03736088562309742,-0.8542560915537178
1780626543923810000,8.07981005859375,-0.3951166314229369,-1.3227046472996473,-0.4740870000243187
1780626543933840100,8.089840087890625,-0.4208893705829978,-1.9521978976130485,-0.12707827368825672
1780626543943870000,8.099869873046876,-0.617949235253036,-1.9268863462239503,0.09729147658124565
1780626543953900000,8.109900146484375,-0.3009916560485959,-1.3695236816197633,0.36776188376843927
1780626543963929900,8.119929931640625,0.047239013297855854,-0.6981944460958242,0.591715892843902
1780626543973960000,8.1299599609375,0.17065496508628128,0.23008827404677867,0.8116340705320239
1780626543983990000,8.139989990234374,0.29647096375375986,1.1728455097436905,1.1955354804575442
1780626543994020000,8.15002001953125,0.38902240620106454,1.4166010746151207,1.4999004123315214
1780626544004050000,8.1600498046875,0.49582799945026634,0.9101274702489376,1.2630334379300474
1780626544014080000,8.170080078125,0.3149494542524218,-0.022978724527359006,0.4401807848997414
1780626544024110000,8.180110107421875,-0.028804069679975508,-1.0123346297919749,-0.38827348752990365
1780626544034140000,8.190139892578125,-0.17724135773926972,-1.453322493290901,-0.9049613196574151
1780626544044170000,8.200169921875,-0.13603694843053818,-1.2861486483186482,-1.1941916646331547
1780626544054199800,8.21019970703125,-0.06810264536738395,-0.8297130403190851,-1.2475266567185521
1780626544064230000,8.22022998046875,-0.19137714285850524,-0.7389987501710653,-0.926091055317223
1780626544074260000,8.230260009765624,-0.519756572048366,-1.173709433096647,-0.4343124773882329
1780626544084290000,8.2402900390625,-0.7568696301653981,-1.7724311130493877,-0.09593933131992817
1780626544094320000,8.250320068359375,-0.729159493201971,-1.8844547332078216,0.3809942903071642
1780626544104350200,8.26035009765625,-0.4337783705115318,-1.5301228243768215,0.7436768249846994
1780626544114381000,8.270381103515625,-0.4668772147759795,-0.8945867867678403,0.6618553047358989
1780626544124409900,8.280409912109375,-0.7548465999051928,-0.1884030954837799,0.5346621724963188
1780626544134441000,8.29044091796875,-0.4398173584148288,0.19863164403140543,0.17861381513625382
1780626544144471000,8.300470947265625,-0.28402444689571854,0.5224123472541571,-0.32949835021719337
1780626544154500900,8.3105009765625,-0.22835925829708575,0.5266413631260395,-0.7338860833324492
1780626544164531000,8.320531005859374,-0.27506460310965775,0.14450842417776583,-1.0519923941805958
1780626544174561000,8.33056103515625,-0.5594596368834376,-0.1930173112809658,-0.9511461477272212
1780626544184591000,8.340591064453125,-0.750690941530466,-0.6152782624781131,-0.5823502447359263
1780626544194621200,8.35062109375,-0.7320856097817421,-1.1186357806503773,-0.06923866365998983
1780626544204650800,8.360650634765625,-0.5175327585190534,-1.1861515660405157,0.5551552176877856
1780626544214680800,8.370680908203125,-0.12222528069913387,-0.7128840657055378,0.8841923801340162
1780626544224711000,8.3807109375,0.28253157798945905,0.056878071519732475,0.8893016859717666
1780626544234741000,8.390740966796875,0.5451788903355598,0.4663052601069212,0.6613726357854902
1780626544244771000,8.40077099609375,0.48415597409605976,0.6853712048798799,0.22092983894869683
1780626544254801200,8.41080126953125,0.345882060393691,0.908938552725315,-0.049968146000802516
1780626544264831000,8.4208310546875,0.31878333332687614,0.5695733268797397,-0.20948913813233375
1780626544274861000,8.430861083984375,0.26041326968371864,-0.15121464381814,-0.17655527517125008
1780626544284891000,8.440890869140626,0.12295797888785599,-0.9396598542034625,0.07918561878725885
1780626544294921000,8.4509208984375,-0.0346428588360548,-1.3355489313036202,0.4058256569638848
1780626544304951000,8.460950927734375,-0.06685586017668246,-1.2642249858021735,0.6345956880189478
1780626544314980900,8.47098095703125,0.026421266196668146,-0.7536801864743232,0.7192309505142271
1780626544325011000,8.481010986328124,0.1610971554070711,-0.14691314723193644,0.48828825159519906
1780626544335041000,8.491041015625,0.28373481629937886,0.20148001919984818,0.10218173284083604
1780626544345071000,8.501071044921876,0.1945943513393402,-0.010186462971568108,-0.3152672880299389
1780626544355101000,8.511100830078124,0.1081067389756441,-0.3559323297649622,-0.6508982957832515
1780626544365131000,8.521131103515625,0.028138883769512176,-0.6907505598306656,-0.9219934107400476
1780626544375160800,8.531160888671875,-0.2904267151534557,-1.088169330716133,-0.9931434609793126
1780626544385191000,8.54119091796875,-0.6123471774622797,-1.5477128416031598,-0.802234081763029
1780626544395221000,8.551220947265625,-0.7853045742720365,-1.9249252752840518,-0.6095498018287122
1780626544405251000,8.5612509765625,-0.6173997846767306,-1.6777619477957486,-0.3909839155323803
1780626544415281200,8.57128125,-0.4459902018308639,-0.760963329219818,-0.16827654551714658
1780626544425311000,8.58131103515625,-0.3747419519141316,0.2807160530000925,0.021162468885630368
1780626544435340800,8.5913408203125,-0.5963409222960472,0.8152993150413036,-0.02228928095847368
1780626544445371000,8.601370849609374,-0.7381926944851875,0.8817875109493732,-0.15881094416603445
1780626544455401000,8.61140087890625,-0.6175526371508836,0.9279577259719372,-0.45382922489345073
1780626544465431000,8.62143115234375,-0.4941922149419784,0.4408551770299673,-1.0379825735285877
1780626544475461000,8.631461181640624,-0.49333764393925666,-0.5950643264889717,-1.6211992258355021
1780626544485491000,8.641490966796875,-0.5507254185467958,-1.3124743451863528,-1.7507675627738237
1780626544495521000,8.65152099609375,-0.6345844359725713,-1.6144856996715067,-1.5403408515304327
1780626544505551000,8.661551025390626,-0.46369946152269836,-1.3049585627287625,-1.0637269633769988
1780626544515581000,8.671580810546875,-0.2849818937510252,-0.8591361186802386,-0.45695247148051854
1780626544525611000,8.681611083984375,-0.1607218923538923,-0.9812053320348262,0.14422025488615034
1780626544535640800,8.691640869140626,-0.009461655828356742,-1.3023901735454797,0.5246864296659827
1780626544545671000,8.7016708984375,0.04041033632159233,-1.3393535842835902,0.6358189462035894
1780626544555701000,8.711700927734375,0.013911036452651022,-1.2307488326579332,0.5681605374723673
1780626544565731000,8.72173095703125,0.006933598655462264,-0.9193594089746475,0.258075766646862
1780626544575762000,8.731761962890625,-0.12601239802241324,0.026352000352740285,-0.2612456288546324
1780626544585791700,8.741791748046875,-0.1853968994051218,1.072587146180868,-0.597475187022984
1780626544595821600,8.751821533203126,-0.12228490193188189,1.3878227238982914,-0.634085254278779
1780626544605851600,8.7618515625,0.231585234606266,0.9328653717577456,-0.4223375235646963
1780626544615881700,8.7718818359375,0.9597603929460048,0.04958966807723045,-0.05855389577746391
1780626544625911800,8.781911865234376,1.46811440423131,-0.9650275196939706,0.27036533937752244
1780626544635941600,8.791941650390624,1.495171337983012,-1.5002175154566764,0.36374358803778883
1780626544645971700,8.8019716796875,0.745649732492864,-1.2218009715706108,0.06428659421056508
1780626544656001800,8.812001708984376,-0.4681298451855778,-0.4489823693841696,-0.37272447461187835
1780626544666031900,8.822031982421874,-1.298072310346365,-0.002778232541680336,-0.35986236269026994
1780626544676061700,8.832061767578125,-1.2493851440668104,-0.2646218272894621,-0.030570494830608367
1780626544686091800,8.842091796875,-0.23143208987116812,0.0027408231407403945,0.30793197670578953
1780626544696121600,8.85212158203125,0.7130182134792208,0.3985650183111429,0.7482762816041707
1780626544706151700,8.862151611328125,1.5256594152271747,0.7997802588701247,0.7236758010938763
1780626544716181800,8.872181640625,1.6801777767658232,1.0606757591128348,0.11890373506098985
1780626544726211800,8.8822119140625,0.23810206915438173,0.8348258532881736,-0.6161690738379955
1780626544736242000,8.892241943359375,-1.4694927068471908,0.1992570824533701,-1.3858832802683114
1780626544746271700,8.902271728515625,-1.9595546901166438,-0.8895774341732263,-1.5878975524753332
1780626544756301600,8.912301513671874,-1.4820207645088432,-1.937321815520525,-1.0685074756518005
1780626544766331600,8.92233154296875,-0.7749281416863203,-2.0435954938501117,-0.14996668958365916
1780626544776361700,8.93236181640625,0.03579144434928894,-1.114432483741641,0.34737142216861244
1780626544786391800,8.942391845703124,1.221938918736577,1.6056109038203954,-0.14429332012236118
1780626544796422000,8.952421875,2.591680042499304,4.918812491989136,-1.4809873298078775
1780626544806451700,8.96245166015625,4.688417928472161,8.536946290525794,-3.7641894521564243
1780626544816481800,8.972481689453126,5.131941447928548,9.788742002865671,-5.219263173028827
1780626544826511600,8.98251171875,4.507993849043548,5.345413518217206,-3.8670483536064624
1780626544836542700,8.992542724609375,3.9415211185276506,1.3016010689944029,-0.1716124119415879
1780626544846572500,9.002572509765624,2.959287320227921,0.9334504781693219,2.7316113680198786
1780626544856602600,9.0126025390625,1.4932225420027971,0.787763657861948,3.5061396967336536
1780626544866632700,9.0226328125,0.4121504760712385,-0.3262625831663608,2.5087603517502544
1780626544876662800,9.032662841796874,-0.8110968949154019,-2.2760206864118575,0.8996569296389818
1780626544886692900,9.04269287109375,-1.3897048843830824,-3.3672079036444424,0.0653337651759386
1780626544896722700,9.05272265625,-1.2122905081644653,-3.081243428596854,-0.036838030792772765
1780626544906752800,9.062752685546876,-0.7553653630822896,-2.017455090421438,0.23392244538217782
1780626544916782800,9.072782958984375,0.06140431677252054,-0.7013041025489568,0.480156967587769
1780626544926812700,9.082812744140625,0.7843085489720105,-0.28512802422344685,0.7525830388873815
1780626544936842800,9.0928427734375,1.0629425350010395,-0.7923644296556711,1.1247723837092518
1780626544946872800,9.102872802734375,1.2852496536523104,-0.3248468711495399,1.3714566955089569
1780626544956902700,9.112902587890625,0.7287108726516366,1.2096236270427703,1.492536313304305
1780626544966932700,9.1229326171875,0.06410451564192772,2.8822815296977757,1.6068538896188138
1780626544976962800,9.132962890625,-0.34736177755743264,3.8022330593466758,1.6457038447558878
1780626544986993000,9.142992919921875,-0.8809294328153133,2.9427596715360878,1.6029758791416882
1780626544997022700,9.153022705078126,-0.698569709149003,1.5176853676080704,0.9823425193712114
1780626545007052500,9.163052490234374,-0.01683569172769785,1.041477137646079,0.012534341271966695
1780626545017082600,9.17308251953125,-0.007910919255018235,1.0387328073740005,-0.6509229918330908
1780626545027112700,9.18311279296875,-0.5370151653632521,0.397207173961401,-0.7847574617832899
1780626545037142800,9.193142822265624,-1.0582038160413503,-0.5558440767347812,-0.6755345782592892
1780626545047172900,9.2031728515625,-1.4897919830322264,-1.1636030496239662,-0.4158734421171248
1780626545057203000,9.213202880859376,-1.5626339318811893,-1.1276637212365865,-0.2950434151686728
1780626545067232800,9.223232666015624,-1.361747202399373,-0.890040375509858,-0.07996200998723506
1780626545077262600,9.2332626953125,-0.9858248085290193,-0.6431564494848251,0.3709947282098233
1780626545087292700,9.243292724609375,-0.6273053848803043,-0.5288134464681148,0.7413076116353273
1780626545097322800,9.25332275390625,-0.28119156155735253,-0.3888520180702209,1.0063028022818268
1780626545107352800,9.263352783203125,0.13447335237562655,-0.23348434622585773,1.0326068718396126
1780626545117382700,9.273382568359375,0.36513504239618777,-0.018060557347536085,0.9264505362793802
1780626545127412700,9.283412841796874,0.276173733395338,-0.0033995793104171753,0.9112921301141381
1780626545137442800,9.29344287109375,0.16779110008776188,-0.11077917305529117,0.9099816320374607
1780626545147472600,9.30347265625,0.13370295252501962,-0.07365911045074462,1.003514048346132
1780626545157502700,9.313502685546876,0.14196049326062202,-0.03165244484841823,1.1785855147004127
1780626545167532800,9.32353271484375,-0.038192075750231744,-0.063085693988204,1.3097311839580534
1780626545177562600,9.333562744140625,-0.07476736395359039,-0.11019465116560459,1.4267017589993773
1780626545187592700,9.3435927734375,-0.009303250396251678,-0.0801823747396469,1.4395328912608325
1780626545197622800,9.353622802734375,0.018483166673779486,0.17553952225744723,1.3971721515238285
1780626545207652900,9.36365283203125,0.006373626685142517,0.5187146617799997,1.098830863853544
1780626545217683000,9.373682861328126,-0.06730068133473396,0.7608604533672332,0.553765955286473
1780626545227712500,9.38371240234375,-0.19047522558271884,0.8243278401494025,0.0667993076838553
1780626545237742600,9.39374267578125,-0.3150046915709972,0.7972598004817962,-0.29949659518525
1780626545247772700,9.403772705078126,-0.37801965841054913,0.8187789738506078,-0.6250415316015482
1780626545257802800,9.413802734375,-0.3402455158114433,1.0671224510341881,-0.6278069046616553
1780626545267832800,9.423832763671875,-0.3168283998668194,1.3080413311749697,-0.32028409327864643
1780626545277863000,9.43386279296875,-0.41158173627257344,1.1692781726509331,0.07112213931903243
1780626545287892700,9.443892822265624,-0.46712066814303393,0.8272557102948427,0.17447350046113133
1780626545297922800,9.4539228515625,-0.49503568002879617,0.4810790508687496,0.03315349706113338
1780626545307952600,9.46395263671875,-0.4921270991057157,0.3638239597976208,-0.10625365845486522
1780626545317982700,9.473982666015624,-0.44470016202032564,0.5843775127798319,-0.3268136411778629
1780626545328012800,9.4840126953125,-0.4468149622172117,0.8323287757754325,-0.4600342170134186
1780626545338042600,9.494042724609375,-0.4523766879975796,0.7817214550882577,-0.4366450119890272
1780626545348072700,9.50407275390625,-0.2667886499345302,0.4121773640781641,-0.3220736070439219
1780626545358102800,9.514102783203125,0.036894437155127524,0.030984336328506466,-0.07106836330518126
1780626545368132900,9.5241328125,0.2664519653260708,-0.3286731514394283,0.09534180381819606
1780626545378162700,9.53416259765625,0.2090209360986948,-0.7149281387537717,0.23581644243523478
1780626545388192800,9.54419287109375,0.0986129344433546,-0.8386012801736593,0.3049494537636637
1780626545398222600,9.55422265625,-0.0692073917388916,-0.8417799102097749,0.27860475993454453
1780626545408252700,9.564252685546874,-0.150295190885663,-0.8617933551907538,0.11755115140825509
1780626545418282800,9.57428271484375,-0.16788403906822202,-0.9056465254426002,-0.07838131666705012
1780626545428312800,9.584312744140625,-0.005603811356425285,-1.0552402900606392,-0.165343999196589
1780626545438343000,9.594343017578124,0.4132084606915712,-1.1959569207400083,-0.1710487867094576
1780626545448372700,9.604372802734375,0.8718149829894304,-0.8811685022681951,-0.07536036141067742
1780626545458402600,9.614402587890625,1.0814677872508764,-0.04207213205397129,0.04544672305360436
1780626545468432600,9.6244326171875,0.8992208763092756,0.5047194541752338,0.16013225589767097
1780626545478462700,9.634462646484375,0.47840077157020566,0.4316249918699264,0.28642595507949586
1780626545488492800,9.644492919921875,0.18102467567026614,-0.008452771046757698,0.40920609318241474
1780626545498523000,9.65452294921875,0.09642623805403709,-0.3458487426459789,0.3785783152066171
1780626545508552700,9.664552734375,0.05981061784029006,-0.1822591859012842,0.30797333162948487
1780626545518582800,9.674582763671875,0.08585808228850364,0.015675123515725135,0.4022654802642762
1780626545528612900,9.68461279296875,0.24486031124293803,-0.021070845079421995,0.466477109542489
1780626545538642700,9.694642578125,0.36453415389358995,-0.11411036330461502,0.3485638468235731
1780626545548672800,9.7046728515625,0.3790571847647428,-0.03978723598718643,0.17115896908566355
1780626545558702600,9.71470263671875,0.14524550628066063,-0.0065986676126718515,-0.021685031455010176
1780626545568732700,9.724732666015624,-0.13803309068381786,-0.15507482637763023,-0.13761179653182626
1780626545578762000,9.734761962890625,-0.32920214374959467,-0.40715749008953567,-0.01641322853192687
1780626545588792000,9.7447919921875,-0.4981757316201925,-0.5570441001743078,0.08764964188039302
1780626545598822000,9.75482177734375,-0.7102519636362791,-0.506388264170289,0.12596519787982105
1780626545608852000,9.76485205078125,-0.8335112635582685,-0.43783202981650826,0.15163418440446258
1780626545618882000,9.774882080078125,-0.6562848111271857,-0.48026890352964396,0.23603286166489124
1780626545628911900,9.784911865234376,-0.1488584360808134,-0.25701953559219837,0.2270297632589936
1780626545638943000,9.79494287109375,0.3524123389452696,0.01720247921347618,0.0020103169091045857
1780626545648973000,9.80497314453125,0.7901648737847805,-0.07724222963452339,-0.20856004058867691
1780626545659003100,9.815003173828124,0.9398860641747713,-0.2583113289684057,-0.36553996993526816
1780626545669033000,9.825032958984375,0.5416168139398098,-0.404741661119461,-0.3090826080456376
1780626545679063000,9.83506298828125,0.15019289955496787,-0.3425730819761753,-0.08658040521368383
1780626545689092900,9.8450927734375,-0.09730945062935352,-0.12513210805654526,0.21441271213963625
1780626545699123000,9.855123046875,-0.18911212053596974,-0.16520225263833999,0.356017523830384
1780626545709153000,9.865153076171875,-0.11013912158608435,-0.23274609507918356,0.41093116340935226
1780626545719182800,9.875182861328126,-0.008138882791996002,-0.2733832258939743,0.4858753452345729
1780626545729213000,9.885212890625,0.15830664790570734,-0.3680500530600548,0.5224345590859651
1780626545739243000,9.895242919921875,0.44961949824392794,-0.17366145342588424,0.4173825315058231
1780626545749273000,9.905273193359376,0.5517629449009895,0.4764771100312471,0.3321466727688908
1780626545759303200,9.91530322265625,0.536342088407278,0.4368056093782186,0.05014350256770849
1780626545769333000,9.9253330078125,0.49101533847153184,0.12007131753563881,-0.45038142252713437
1780626545779362800,9.93536279296875,0.4255979866653681,0.3218447667241096,-0.6417074197202921
1780626545789393000,9.945392822265624,0.01893441757261753,0.297253930824995,-0.522421699604392
1780626545799423000,9.955423095703125,-0.38813130258023737,-0.06800678377747535,0.04057780184298754
1780626545809453000,9.965453125,-0.7156628827691077,0.05387245996296405,0.45877983303815123
1780626545819483100,9.975483154296874,-0.9308400034099816,0.5086684840619564,0.49470542516112326
1780626545829513000,9.985512939453125,-0.7182113982081413,0.8696873233109712,0.49470484063923353
1780626545839543000,9.99554296875,-0.6975164007037877,0.15019757573008535,0.27871289648413655
1780626545849572900,10.00557275390625,-0.4640244556933641,-0.6973971582382917,0.16656038924902677
1780626545859603000,10.01560302734375,-0.43997196445465087,-0.8579834415137767,0.052938393983244895
1780626545869633000,10.025633056640626,-0.8235627009958029,-0.8401794892758131,-0.1587336411461234
1780626545879663000,10.0356630859375,-0.4876894089192152,-0.17301614125967024,-0.13397329389899967
1780626545889693000,10.04569287109375,-0.23573884715437887,0.8335089254707098,-0.018975334104895592
1780626545899723000,10.055722900390625,-0.11284019723832607,1.4317431141674517,0.14979630145281553
1780626545909753000,10.065753173828124,0.19306348851025104,1.238013270702958,0.14715630833804608
1780626545919783000,10.075782958984375,0.25162907472550866,-0.26254443649351594,0.10223317076712846
1780626545929813000,10.08581298828125,-0.17430033585131166,-2.3747043480038643,-0.014241291320323942
1780626545939842800,10.0958427734375,-0.1357487791389227,-2.0682406902849673,-0.09280395590364933
1780626545949873000,10.105872802734375,-0.13649462907016277,-0.9789812262445687,0.029274317540228367
1780626545959903000,10.115903076171875,-0.07586217345297336,-0.6970072821378708,0.26324761632680893
1780626545969933000,10.12593310546875,0.2579430801779032,-1.0190455256074666,0.2555675832182169
1780626545979963100,10.135963134765625,0.6647194619953632,-1.0349655637949704,-0.09135784874856472
1780626545989993200,10.1459931640625,0.7877361853331327,-1.0443307735115288,-0.32053865256160496
1780626546000022800,10.156022705078126,0.669828183311224,-1.262550915110111,-0.006672901892662048
1780626546010052900,10.166052978515625,0.636589930576086,-1.4499837042570114,0.31674072158336636
1780626546020083000,10.1760830078125,0.7007359472721815,-0.9324252267748117,0.32366350658386944
1780626546030113000,10.186113037109376,0.5151514163404702,-0.2583031456619501,0.3896659648016095
1780626546040143000,10.19614306640625,0.2508580903530121,0.13399872060120105,0.6209060392320156
1780626546050173000,10.2061728515625,0.2547317169159651,-0.15699264269769192,0.6756295630663633
1780626546060203000,10.216203125,0.6113432611167431,-0.5156161112427711,0.20422610303759572
1780626546070233000,10.226233154296875,0.9611743513971567,-0.208039523845911,-0.18986030855476854
1780626546080263000,10.236262939453125,1.1435691463768483,-0.2951274401903152,-0.29955139411240816
1780626546090293000,10.24629296875,1.0076619618058205,-0.12263035436868668,-0.39280192473977804
1780626546100323000,10.256322998046874,0.5690905117988586,0.12713935622572897,-0.42458530249148607
1780626546110353000,10.266352783203125,0.3054156099706888,-0.1452946061193943,-0.3008443565323949
1780626546120383000,10.276383056640626,0.1374643508851528,-0.23461948773562907,-0.018027824121713637
1780626546130413000,10.2864130859375,0.14334990179240703,0.04070435083210468,0.33212446093708275
1780626546140443100,10.296443115234375,0.27149931184351445,0.18815759629011153,0.4636483158573508
1780626546150473000,10.306472900390625,0.33538170916736126,0.4873731825768947,0.4618655240938067
1780626546160502800,10.316502685546874,-0.09547931259274482,0.4814280104368925,0.23005028012394904
1780626546170532900,10.326532958984375,-0.3139648271292448,0.4854764090448618,-0.07986264126598834
1780626546180563000,10.33656298828125,-0.31493337990045545,0.47692836093008517,-0.12448884171694516
1780626546190593000,10.346593017578124,-0.3115209411084652,0.2663841607868671,-0.1476689340353012
1780626546200623000,10.356623046875,-0.023762568381428716,0.20221651678085326,-0.10065262357741593
1780626546210653200,10.366653076171875,0.2059317379117012,0.49927697086036205,0.004061258089542389
1780626546220683000,10.37668310546875,0.230000011241436,0.6243465350747108,0.07808335663378238
1780626546230712800,10.386712890625,0.21900047832131384,0.13997019622623919,-0.04175006049275398
1780626546240743000,10.396742919921875,-0.28319091868102547,-0.134701900434494,-0.18907471113502977
1780626546250773000,10.40677294921875,-0.4622556924551725,-0.3317150033533573,-0.4642416055753827
1780626546260803000,10.416802978515625,0.30140988146066666,-0.5488736532002687,-0.6512295735642314
1780626546270833000,10.4268330078125,0.4494324512392282,-0.43042964460551736,-0.8311559326037764
1780626546280863000,10.436863037109376,1.0454226604014634,-0.5773848774135112,-1.0930968502461909
1780626546290893000,10.44689306640625,0.9799462718844413,-0.8148018869131803,-1.077822124224901
1780626546300923000,10.4569228515625,0.5520856009840965,-1.0818740299642085,-0.9832646026521921
1780626546310953000,10.466952880859376,0.5357692569553851,-0.8963122953861952,-1.014876423229277
1780626546320983000,10.476983154296875,0.7857429656893015,-1.5143869105845689,-0.8213543772965669
1780626546331012900,10.487012939453125,0.734336603578925,-1.5276649098306894,-0.937598245498538
1780626546341043000,10.49704296875,0.49680970396399493,-0.510603251516819,-0.7264037647530436
1780626546351073000,10.507072998046874,0.34743279696702956,-0.7309007839113474,-0.4857569795519113
1780626546361103000,10.51710302734375,0.15162790079414842,-1.1509686089783906,-0.2688102188900113
1780626546371133200,10.52713330078125,-0.060471127575635907,-1.2554577419787645,-0.042182022169232364
1780626546381163000,10.5371630859375,-0.2148755073457956,-0.10500175869762897,0.14130992039740084
1780626546391192800,10.54719287109375,0.12772212454974652,0.1966857706606388,0.4466039498150348
1780626546401223000,10.557222900390625,0.3958522522211075,0.17183014634549618,0.6848439661353826
1780626546411253000,10.5672529296875,-0.08461246614158154,0.34701018764078617,0.8717965705499052
1780626546421283000,10.577282958984375,-0.26724282344281675,-0.1307464408069849,0.8460963121041655
1780626546431313200,10.587313232421875,-0.11327274343669413,0.06085515845715999,0.2799745869830251
1780626546441343000,10.597343017578124,0.24741350285708902,-0.021880407896637914,-0.43470016153156754
1780626546451373000,10.607373046875,0.23374796559810637,0.29038170696794985,-0.4933125094980001
1780626546461403000,10.61740283203125,0.09575637596845626,0.49200727211832995,-0.09826397487521171
1780626546471433000,10.627432861328124,0.0559966125100851,0.6288812558948993,0.08686199863404034
1780626546481463000,10.637463134765625,-0.12581775223314762,0.6016448739230632,0.32971652301251886
1780626546491492900,10.647492919921875,-0.2942909893661737,0.544628270715475,0.708844142664969
1780626546501523000,10.65752294921875,-0.45766485753357405,0.7337731244772672,0.9697586398690938
1780626546511553000,10.667552978515625,-0.6826584387898444,0.9739379713803529,1.1884238948866723
1780626546521583000,10.6775830078125,-1.0773889935046435,1.2488877159386873,1.4049988996267317
1780626546531613000,10.687613037109376,-1.2958838603913783,0.2865577647656202,1.619591790638864
1780626546541643000,10.69764306640625,-1.2056260818392037,-0.3550988015502691,1.4974492197871208
1780626546551672800,10.7076728515625,-1.0350731158226727,-0.2890799767196178,1.1150821798220276
1780626546561703000,10.717702880859376,-0.9419774834960698,0.09679565588831901,0.6720525813624263
1780626546571733000,10.72773291015625,-0.649318479245901,0.22095804212987422,0.253312497767806
1780626546581764000,10.73776416015625,-0.3473556400775909,0.6808715553730725,-0.2431561376735568
1780626546591793400,10.74779345703125,-0.15456453876793383,0.6889215908378362,-0.5146574953436851
1780626546601824300,10.75782421875,0.16735446223616599,0.6413993766844273,-0.5277887795954942
1780626546611854300,10.767854248046875,0.1618897670894861,0.6768494602501391,-0.5017454068005085
1780626546621884400,10.777884521484374,-0.042165071034431456,0.5327881953179836,-0.3393766240224242
1780626546631914200,10.787914306640625,-0.2128501389980316,0.1704874995648861,-0.04454378286451101
1780626546641944000,10.797944091796875,-0.23219781354665756,-0.1129173541277647,0.22431290551573035
1780626546651974100,10.80797412109375,-0.28912381586134434,-0.3255880449056625,0.3316030674114823
1780626546662004200,10.818004150390625,-0.1327419985383749,-0.4013707233816385,0.3390484149813652
1780626546672034300,10.828034423828125,-0.11241817243397235,-0.19073007712662218,0.19282178870886563
1780626546682064400,10.838064453125,-0.15919395213425158,-0.051043958538770674,-0.04673603221178055
1780626546692094200,10.84809423828125,-0.07933832513093948,-0.18381167604029178,-0.2979053804710507
1780626546702124000,10.8581240234375,0.39067514184415336,-0.37506490025818345,-0.6396364586651325
1780626546712154000,10.868154052734376,0.6592822393774986,-0.48705111101567744,-0.7263014734223484
1780626546722184200,10.87818408203125,0.9035428311616182,-0.5482768563508987,-0.6032578620776534
1780626546732214300,10.88821435546875,0.9798346282035112,-0.5052601369231939,-0.5856736900702119
1780626546742244400,10.898244384765626,0.7911492086470127,-0.7484656666964292,-0.4684469483107328
1780626546752274200,10.908274169921874,0.3263292186617851,-0.6665835023015737,-0.5975596504360438
1780626546762304300,10.91830419921875,0.13711889844834804,-0.32672026380598546,-0.731531775291264
1780626546772334300,10.928334228515626,0.1372293730854988,-0.38079613738656043,-0.5340624530375003
1780626546782364200,10.9383642578125,0.1096317565858364,-0.3612450492203235,-0.26280162612497804
1780626546792394200,10.948394287109375,0.2280132213383913,-0.6743313399493694,-0.22650427808016538
1780626546802424300,10.95842431640625,0.7063906120330095,-0.26422669049203396,-0.2823956766501069
1780626546812454100,10.9684541015625,0.7352794373869895,-0.27120705089867114,-0.3298214446917176
1780626546822484200,10.978484130859375,0.5648842922806739,-0.6071580843865871,-0.36179391527473925
1780626546832514300,10.988514404296875,0.582648497030139,-0.6938952875971793,-0.16746347556859253
1780626546842544400,10.99854443359375,0.533027849292755,-0.4313315618813038,0.04943126264512539
1780626546852574500,11.008574462890625,0.09631517889499663,-0.09098200117349624,0.11813099712282418
1780626546862604000,11.01860400390625,-0.1087514666199684,-0.07927402772307396,0.13257044136375187
1780626546872634000,11.028634033203126,-0.26044074221253394,0.5275941338062287,0.05263035094738006
1780626546882664200,11.038664306640625,-0.45480479192733764,0.05605564922094345,0.1136181958734989
1780626546892694300,11.0486943359375,-0.06793254949748516,-0.5577180539131165,0.21792028186917303
1780626546902724400,11.058724365234376,0.05652034412324428,-0.041588147929310794,0.09151917679011821
1780626546912754200,11.068754150390625,-0.0008364508241415023,0.4187473901182413,0.0015063129097223282
1780626546922784300,11.0787841796875,0.16010989793539046,-0.24572540363967418,0.02403963175714016
1780626546932814000,11.08881396484375,0.2900029367834329,-0.20417057345807552,-0.0434898898974061
1780626546942844200,11.09884423828125,-0.14874386979043483,0.26883623011410235,-0.0275800808429718
1780626546952874200,11.108874267578125,-0.3067453972697258,-0.43856969644129273,0.35915041502863165
1780626546962904300,11.118904296875,-0.017121230670809746,-0.6939198375165462,0.6595689473643899
1780626546972934100,11.12893408203125,-0.0952016646951437,-0.3367465677797794,0.6977510862424969
1780626546982964200,11.138964111328125,-0.4447247119396925,0.8392536066025496,0.4975245742350816
1780626546992994300,11.148994384765626,-0.42628304632008074,0.31300445766448975,0.5635965905576944
1780626547003024400,11.1590244140625,-0.0019610709398984907,-0.2574094116926193,0.5104997911423445
1780626547013054200,11.16905419921875,0.13101239826679228,-0.17283260138630865,0.29303280599862336
1780626547023084300,11.179084228515626,0.15386661963164805,0.20589958920776844,0.11418605888932942
1780626547033114000,11.189114013671874,0.2606540927022695,0.21028116529285906,-0.04911795891225338
1780626547043144200,11.199144287109375,0.22046061400175093,0.41594753026664255,-0.21392302892655132
1780626547053174300,11.20917431640625,0.03229191179573536,0.18128771052062512,-0.28668548279851674
1780626547063204400,11.219204345703124,-0.10971651225984096,-0.188102651232481,-0.20111878467202185
1780626547073234400,11.229234375,0.06544190172553062,-0.549960279393196,-0.07792524346262217
1780626547083264300,11.23926416015625,0.12770195854455232,-0.11452712741196155,0.010674246488511561
1780626547093294000,11.249294189453124,0.01476210032403469,-0.1556084948629141,0.06191197403371334
1780626547103324200,11.25932421875,0.2374281154155731,0.3124018155962229,0.05379033463746309
1780626547113354200,11.269354248046875,-0.21448329315781592,0.18528876285552978,0.13410042741000652
1780626547123384300,11.27938427734375,-0.10864216102659702,0.0875724849909544,-0.0006803834795951843
1780626547133414100,11.2894140625,0.15141747291386126,0.1255003568470478,-0.09718874685913324
1780626547143444200,11.2994443359375,0.056363692256808276,-0.41339784578382965,-0.0412505865380168
1780626547153474300,11.309474365234376,0.16278642366826535,-0.6412304498583078,0.08964899900406599
1780626547163504000,11.319504150390625,-0.07435936767458916,-0.28707448211610315,0.08012567611634731
1780626547173534200,11.3295341796875,-0.31843115888834,-0.09391337845027446,-0.04071224187761545
1780626547183564300,11.339564208984376,-0.13389526022672651,-0.37441725000441073,-0.10657441484183072
1780626547193594000,11.349593994140625,0.05687953282445669,-0.3501356261849403,-0.03232172241210937
1780626547203624200,11.359624267578125,0.20466274088919162,-0.512893408280611,0.13818360507041216
1780626547213654300,11.369654296875,0.28642303247004747,-0.09524725740253925,0.23298487227112052
1780626547223684400,11.379684326171875,0.4572849183052778,-0.4121984068661928,0.21528350362479687
1780626547233714400,11.38971435546875,0.3646539808809757,-0.96625969183743,0.31928046919405456
1780626547243744300,11.399744140625,-0.1764770953685045,-0.7689455601453781,0.5322627101391554
1780626547253774000,11.409774169921874,-0.39797289763689037,-0.560158432802558,0.7281339495465159
1780626547263804200,11.41980419921875,-0.3700087859123945,-0.8120569721192121,0.8815525331497192
1780626547273834200,11.429834228515626,-0.5011982943117618,-0.5342167668163776,0.6819830237463116
1780626547283864300,11.4398642578125,-0.7764642652124166,2.0131307974815367,0.1178887127995491
1780626547293894400,11.449894287109375,-0.9334785352200269,2.80280525740087,-0.26152356901317836
1780626547303924200,11.45992431640625,0.025900749453902243,-0.27131577197015283,-0.15986965943872927
1780626547313954300,11.469954345703124,1.2147487149715424,-0.9108435095638037,-0.45853053445219993
1780626547323984100,11.479984130859375,0.7436246564060449,-0.4587228421539068,-0.8271890747994184
1780626547334014200,11.49001416015625,0.23509353498816488,-0.16593407404422758,-0.9450538222014904
1780626547344044300,11.500044189453124,0.38260698620080946,-0.7462514977782965,-0.5349035800367593
1780626547354074000,11.51007421875,0.6140650872960687,-1.369246618244052,0.013864274701476097
1780626547364104200,11.520104248046875,0.6097989542841911,-1.7415905691057443,0.453817534455657
1780626547374134300,11.53013427734375,0.32012101167142387,-1.9949679488033054,0.7446721196323632
1780626547384164400,11.540164306640625,0.047965281745791434,-1.8507623069643973,0.91474811578691
1780626547394194200,11.550194091796875,-0.22076135051399468,-1.0667138702332972,0.7313999656051396
1780626547404224300,11.560224365234374,-0.4172732259124517,0.36163141818940636,0.3775684075117111
1780626547414254000,11.570254150390625,-0.311349676194787,0.8469745562434196,0.15571370880305765
1780626547424284200,11.5802841796875,0.032252164307236666,0.36135903098881245,-0.05355068066269159
1780626547434314200,11.590314208984376,0.39088030902743337,0.1246855333328247,-0.19063070840537547
1780626547444344300,11.60034423828125,0.530629555979371,-0.040028643527626986,-0.22245091103613376
1780626547454374400,11.61037451171875,0.34704116730093953,-0.21150515412986276,-0.11231851145178079
1780626547464404200,11.620404296875,0.15960370197892187,-0.2877086883664131,0.13574468748569488
1780626547474434000,11.63043408203125,-0.16026654980182647,0.013590718457102774,0.26313421908020973
1780626547484464000,11.640464111328125,-0.29623394012749193,0.4777992985457182,0.04241875353455543
1780626547494494200,11.650494140625,-0.07277940500676632,1.1798311308473348,-0.4829483518719673
1780626547504524300,11.660524169921874,0.32502047415077684,1.354091134688258,-0.7803712095230817
1780626547514554400,11.670554443359375,0.6128010587096214,0.370199924570322,-0.769320530937612
1780626547524584200,11.680584228515626,0.6847977889060973,-0.7392424957990646,-0.4518047333285212
1780626547534614300,11.6906142578125,0.56058338021636,-1.4580834240823983,0.2549693250641227
1780626547544644400,11.700644287109375,0.5272200397968292,-2.035568254739046,0.16655542081296443
1780626547554674200,11.710674072265626,0.461320457431674,-1.9266566291213034,0.04660597609132528
1780626547564704300,11.720704345703124,0.27485212940275666,-1.4753653982728718,0.158286774161458
1780626547574734300,11.730734375,-0.01710837118923664,-1.0914093355506658,0.2235804995879531
1780626547584764200,11.74076416015625,-0.12027414663136005,-0.48683951409161086,-0.16058569875359535
1780626547594794200,11.750794189453124,0.16915245156884193,0.9025561582118272,-0.3249164292544126
1780626547604824300,11.76082421875,0.7188397592395543,1.5810948867231607,-0.4577113270238042
1780626547614854400,11.7708544921875,0.9263602276474237,1.7694360228866337,-0.6496233074113726
1780626547624884200,11.78088427734375,0.9072609749019146,1.3477917422831058,-0.7601026207372545
1780626547634914000,11.7909140625,0.5483031598359346,0.3080594024777412,-0.49263300280123945
1780626547644944100,11.800944091796875,-0.0961731400758028,-0.9077648327708244,-0.03652998775690794
1780626547654974200,11.81097412109375,-0.43350247617959975,-1.4464268885582685,0.1133008004873991
1780626547665004300,11.82100439453125,-0.5873562363296747,-1.353608319607377,0.1392047648116946
1780626547675034400,11.831034423828125,-0.5731880102455615,-0.8790373354583978,-0.08240326565951109
1780626547685064200,11.841064208984376,-0.45021921770274637,-0.07397475227117538,-0.34582886890172954
1780626547695094300,11.85109423828125,-0.07258943539261818,0.5206260483592748,-0.34522856492102144
1780626547705124000,11.8611240234375,0.13019932831823824,0.5234709163963794,-0.46396541898250576
1780626547715155200,11.8711552734375,0.14481003747284413,0.2302782436609268,-0.5180155735999346
1780626547725184300,11.881184326171875,-0.0290963306248188,-0.3465548450887203,-0.4119073149651289
1780626547735215000,11.891215087890625,-0.3322013255655765,-0.6927870340943336,-0.10970891347527503
1780626547745245200,11.9012451171875,-0.5433803164809942,-1.02487671597898,-0.04310030605792999
1780626547755275300,11.911275146484375,-0.807758398142457,-0.9414274483978747,0.18884090237915516
1780626547765305300,11.921305419921875,-1.0582575920552015,-0.4450900381207466,0.15903145504891872
1780626547775335400,11.93133544921875,-1.0105004001021385,0.22950024502575397,0.14941197831034658
1780626547785365200,11.941365234375,-0.9041396280109881,0.7874263887315988,0.06594751316010952
1780626547795395000,11.95139501953125,-0.7527075420498848,1.2099550509542225,0.007173252630233764
1780626547805425200,11.961425048828126,-0.4551724561959505,1.4281588259398936,0.22912498197257516
1780626547815455200,11.971455322265625,-0.2854816599667072,1.0288222387343644,0.7053723749011754
1780626547825485300,11.9814853515625,-0.31481121482551094,0.3924994346618652,0.82616031627357
1780626547835515100,11.99151513671875,-0.4378618404328823,0.18420096761882304,1.0987433317005633
1780626547845545200,12.001545166015624,-0.7844803984075784,-0.16700024197101593,1.3571873471379279
1780626547855575300,12.0115751953125,-0.9796288764983415,-0.5070259775519371,1.2625766340732574
1780626547865605400,12.02160546875,-0.9690063601970672,-0.5192617742687463,1.2947937270671128
1780626547875635200,12.03163525390625,-0.9772861127644776,-0.2556722126364708,1.2616291240900754
1780626547885665300,12.041665283203125,-0.8232084807306528,0.11450082392692565,1.2495412114113569
1780626547895695000,12.051695068359376,-0.36372400655448434,0.33815701909959317,1.1554974845796824
1780626547905725200,12.06172509765625,0.0863566794604063,0.45241234383285045,1.0206745881140231
1780626547915755300,12.07175537109375,0.40067514233291146,0.21408406470716,0.7916419606000185
1780626547925785300,12.081785400390626,0.5605237589836121,-0.15926643284857273,0.68229369713068
1780626547935815400,12.0918154296875,0.45368017181158066,-0.6450695896297692,0.5655155759215355
1780626547945845200,12.10184521484375,0.1921633248001337,-1.1932412320405243,0.3489876251935959
1780626547955875000,12.111875,-0.12633388506174087,-1.308559217569232,0.4019897320628166
1780626547965905200,12.1219052734375,-0.46697687575817104,-1.393690739148855,0.4121463844180107
1780626547975935200,12.131935302734375,-0.3572761455893516,-1.2777964150369168,0.31132103462219235
1780626547985965300,12.14196533203125,0.04860007251799106,-0.7818184857219457,0.13128303190171717
1780626547995995400,12.151995361328124,0.4314817840069532,-0.08498480658531188,-0.057546764561533924
1780626548006025200,12.162025146484375,0.38818332502841946,0.7348962832883,-0.2525514502674341
1780626548016055300,12.17205517578125,0.22054653871953486,1.5587845629766583,-0.3788894269824028
1780626548026085000,12.182085205078126,0.25211715050339695,2.176161259038746,-0.6740303111761808
1780626548036115200,12.192115234375,0.33458383678793907,2.315477667531371,-1.1341840629160405
1780626548046145300,12.202145263671875,0.3187643363654613,2.2657801551654932,-1.369168292310834
1780626548056175000,12.212175048828126,0.39760347980260846,2.0750687827393413,-1.5232155292063951
1780626548066205200,12.222205078125,0.3638566930234432,1.7406687780857084,-1.5168407334774732
1780626548076235300,12.2322353515625,0.4350713329315185,1.2731804456740616,-1.3381179050087928
1780626548086265300,12.242265380859376,0.5014005388855934,0.4756663781702518,-0.920205212149024
1780626548096295400,12.25229541015625,0.40889352010190483,-0.10197568887472153,-0.09402852926254272
1780626548106325200,12.2623251953125,0.5536334149479866,-0.2300236843779683,0.40340018338263034
1780626548116355000,12.27235498046875,0.32643618616759773,-0.31088965746760366,0.49699733549058434
1780626548126385200,12.28238525390625,0.07569616923630237,-0.49801411131769413,0.32800913457274433
1780626548136415200,12.292415283203125,0.25013562129735945,-0.5887608424305916,0.11380991905331611
1780626548146445300,12.3024453125,0.33804537541866303,-0.5772834628656506,-0.043294367325305935
1780626548156475400,12.312475341796874,0.33539106151759623,-0.7417907189771532,-0.13224340136647222
1780626548166505200,12.322505126953125,0.49911564281880855,-0.9552043370768427,-0.170504450699687
1780626548176535000,12.33253515625,0.5378484013170004,-1.0796338498219846,-0.13505319809019564
1780626548186565000,12.342565185546874,0.5668249049544334,-1.0412696323752402,-0.1795487578988075
1780626548196595200,12.35259521484375,0.6106003337949514,-0.7466229614391923,-0.29261165797710414
1780626548206625300,12.362625244140625,0.5042413152694701,-0.5197232543006539,-0.45637657128870485
1780626548216655400,12.3726552734375,0.4677338316053152,-0.4049892061397433,-0.5874439146131277
1780626548226685200,12.382685302734375,0.4900111298650503,-0.2989586889162659,-0.6543003593116998
1780626548236715300,12.39271533203125,0.4293424338907003,-0.17118980261534453,-0.5785223570108413
1780626548246745300,12.402745361328124,0.316347922873497,-0.12815583979189396,-0.5311491959393024
1780626548256775200,12.412775146484375,0.1251601651072502,-0.11493863082230091,-0.45828503525853154
1780626548266805200,12.42280517578125,0.18308979150652885,-0.04802519523948431,-0.3937561567246914
1780626548276835300,12.43283544921875,0.1628928066521883,0.07151859129071235,-0.27118834619820115
1780626548286865200,12.442865234375,0.04565174410641193,0.2344327329918742,-0.07030337028205394
1780626548296895200,12.452895263671875,0.009545242458581923,0.3182268684878945,-0.047181437891721724
1780626548306925300,12.46292529296875,-0.334043154039979,-0.05019523275494575,-0.06885375599563122
1780626548316955400,12.472955322265625,-0.6857295167982578,0.016666472640633583,-0.4489624956399202
1780626548326985200,12.482985107421875,-0.6397071858137846,0.04836217210888862,-0.596454904064536
1780626548337015000,12.49301513671875,-0.5895908635139465,-0.18754560187160968,-0.7042366488695144
1780626548347045000,12.503045166015625,-0.7021078201472759,-0.3895715645164251,-0.8496639414578676
1780626548357075200,12.5130751953125,-0.6243973884791135,-0.751608640897274,-1.046879873472452
1780626548367105300,12.523105224609376,-0.3957780179411173,-1.0822846565917135,-1.0455518397390842
1780626548377135400,12.53313525390625,-0.03356529273241758,-1.2207748433932661,-0.9496025715470313
1780626548387165200,12.543165283203125,0.20900456948578355,-1.1260299825549125,-0.6566308480858802
1780626548397195300,12.5531953125,0.023617022430896757,-0.7607195835918188,-0.18802023364603518
1780626548407225000,12.56322509765625,-0.527546787533164,-0.332332842990756,0.11490765116214752
