time,seconds_elapsed,z,y,x
1780626535893536500,0.04953662109375,-0.7444610595703125,-0.31842041015625,-0.239288330078125
1780626535903566600,0.059566650390625,-0.7772216796875,-0.3314666748046875,-0.2483062744140625
1780626535913596400,0.069596435546875,-0.8284149169921875,-0.307830810546875,-0.2756805419921875
1780626535923626500,0.07962646484375,-0.8748931884765625,-0.2645416259765625,-0.2890625
1780626535933656600,0.089656494140625,-0.893157958984375,-0.266448974609375,-0.246002197265625
1780626535943686400,0.099686279296875,-0.897247314453125,-0.2567138671875,-0.2505340576171875
1780626535953716500,0.109716552734375,-0.9047088623046875,-0.2501220703125,-0.258880615234375
1780626535963746600,0.11974658203125,-0.875030517578125,-0.256591796875,-0.2639007568359375
1780626535973776600,0.129776611328125,-0.8326263427734375,-0.2626800537109375,-0.2750701904296875
1780626535983806500,0.139806396484375,-0.8101654052734375,-0.27825927734375,-0.289276123046875
1780626535993836300,0.149836181640625,-0.793914794921875,-0.315765380859375,-0.299774169921875
1780626536003866400,0.159866455078125,-0.8167572021484375,-0.3558197021484375,-0.298980712890625
1780626536013896400,0.169896484375,-0.892913818359375,-0.3829345703125,-0.29925537109375
1780626536023926500,0.179926513671875,-0.9295806884765625,-0.3842315673828125,-0.29180908203125
1780626536033956600,0.18995654296875,-0.9500274658203125,-0.3483428955078125,-0.2811737060546875
1780626536043986400,0.199986328125,-1.020233154296875,-0.29412841796875,-0.30462646484375
1780626536054016500,0.2100166015625,-1.1232147216796875,-0.236541748046875,-0.3319244384765625
1780626536064046300,0.22004638671875,-1.248504638671875,-0.1934051513671875,-0.33746337890625
1780626536074076400,0.230076416015625,-1.0319366455078125,-0.2729339599609375,-0.2911834716796875
1780626536084106500,0.2401064453125,-0.8403167724609375,-0.3882293701171875,-0.1991424560546875
1780626536094136600,0.250136474609375,-0.681304931640625,-0.4636993408203125,-0.12353515625
1780626536104166400,0.26016650390625,-0.5914306640625,-0.4727935791015625,-0.1336212158203125
1780626536114196500,0.270196533203125,-0.588836669921875,-0.4373626708984375,-0.1446685791015625
1780626536124226600,0.2802265625,-0.657073974609375,-0.3382720947265625,-0.1229400634765625
1780626536134256600,0.290256591796875,-0.7465057373046875,-0.1756134033203125,0.023712158203125
1780626536144286500,0.300286376953125,-0.8859405517578125,-0.0280914306640625,-0.0762481689453125
1780626536154316500,0.310316650390625,-0.950531005859375,0.0718841552734375,-0.1737213134765625
1780626536164346400,0.320346435546875,-0.9575653076171875,0.0171661376953125,-0.254730224609375
1780626536174376400,0.33037646484375,-0.9770965576171875,-0.198516845703125,-0.3955841064453125
1780626536184406500,0.340406494140625,-0.970977783203125,-0.462493896484375,-0.417694091796875
1780626536194436600,0.3504365234375,-0.9207305908203125,-0.4530487060546875,-0.45489501953125
1780626536204466700,0.360466796875,-0.9052276611328125,-0.2279205322265625,-0.472900390625
1780626536214496300,0.370496337890625,-0.9025421142578125,-0.0651397705078125,-0.4461822509765625
1780626536224526300,0.3805263671875,-0.8234100341796875,0.0507659912109375,-0.4412994384765625
1780626536234556400,0.390556396484375,-0.7174224853515625,0.189453125,-0.46307373046875
1780626536244586500,0.40058642578125,-0.6453094482421875,0.326416015625,-0.4346923828125
1780626536254616600,0.410616455078125,-0.623870849609375,0.41973876953125,-0.4174652099609375
1780626536264646700,0.420646728515625,-0.644195556640625,0.487762451171875,-0.4666900634765625
1780626536274676500,0.430676513671875,-0.604461669921875,0.4865264892578125,-0.5861053466796875
1780626536284706600,0.44070654296875,-0.5809783935546875,0.2786102294921875,-0.705047607421875
1780626536294736400,0.450736328125,-0.7548065185546875,-0.0225372314453125,-0.656768798828125
1780626536304766500,0.460766357421875,-0.878021240234375,-0.0881500244140625,-0.6599884033203125
1780626536314796500,0.470796630859375,-0.82391357421875,0.238677978515625,-0.80938720703125
1780626536324825600,0.48082568359375,-0.910614013671875,0.4187164306640625,-0.9330291748046875
1780626536334855700,0.490855712890625,-0.990142822265625,0.4423980712890625,-0.8482208251953125
1780626536344885500,0.500885498046875,-0.89678955078125,0.4391021728515625,-0.7449188232421875
1780626536354915300,0.510915283203125,-0.7806549072265625,0.5406036376953125,-0.7425994873046875
1780626536364945400,0.5209453125,-0.7624359130859375,0.693695068359375,-0.6967010498046875
1780626536374975500,0.5309755859375,-0.6989288330078125,0.822479248046875,-0.645721435546875
1780626536385005600,0.541005615234375,-0.6406402587890625,0.907989501953125,-0.6837310791015625
1780626536395035400,0.551035400390625,-0.576385498046875,0.9425201416015625,-0.8122406005859375
1780626536405065500,0.5610654296875,-0.609466552734375,1.0281219482421875,-0.899932861328125
1780626536415095600,0.571095458984375,-0.5941009521484375,1.177825927734375,-0.9884490966796875
1780626536425125600,0.581125732421875,-0.610260009765625,1.361053466796875,-1.07489013671875
1780626536435155500,0.591155517578125,-0.691070556640625,1.4315032958984375,-1.1714935302734375
1780626536445185500,0.601185546875,-0.7498626708984375,1.4037933349609375,-1.2672882080078125
1780626536455215400,0.61121533203125,-0.7723236083984375,1.488128662109375,-1.55010986328125
1780626536465245400,0.621245361328125,-0.6249237060546875,1.4853973388671875,-1.6620330810546875
1780626536475275500,0.631275634765625,-0.604583740234375,1.265289306640625,-1.5164947509765625
1780626536485305600,0.6413056640625,-1.136932373046875,1.2665252685546875,-1.8239898681640625
1780626536495335700,0.651335693359375,-1.78302001953125,1.121246337890625,-2.3056182861328125
1780626536505365200,0.661365234375,-1.9015655517578125,0.869781494140625,-3.0069122314453125
1780626536515395300,0.671395263671875,-1.8556976318359375,0.4629364013671875,-3.4186859130859375
1780626536525425400,0.68142529296875,-1.5983428955078125,0.0933990478515625,-3.7041778564453125
1780626536535455500,0.69145556640625,-1.194854736328125,-0.123138427734375,-3.798736572265625
1780626536545485600,0.701485595703125,-0.6636810302734375,-0.3412933349609375,-3.6449432373046875
1780626536555515600,0.711515625,-0.1568756103515625,-0.6221771240234375,-3.2322235107421875
1780626536565545700,0.721545654296875,0.3214111328125,-0.7315216064453125,-2.8183135986328125
1780626536575575800,0.731575927734375,0.5096893310546875,-0.5000152587890625,-2.570159912109375
1780626536585606000,0.74160595703125,0.8570098876953125,-0.4746246337890625,-2.490447998046875
1780626536595636000,0.751635986328125,1.1728057861328125,-0.5445404052734375,-2.5132904052734375
1780626536605666000,0.761666015625,1.3608245849609375,-0.6080474853515625,-2.4732208251953125
1780626536615696000,0.77169580078125,1.4635772705078125,-0.7194671630859375,-2.284088134765625
1780626536625725700,0.7817255859375,1.4158782958984375,-0.7339019775390625,-1.9474945068359375
1780626536635755800,0.791755859375,1.0864715576171875,-0.5519866943359375,-1.608856201171875
1780626536645785900,0.801785888671875,0.6872711181640625,-0.343170166015625,-1.3232269287109375
1780626536655816000,0.81181591796875,0.384063720703125,0.0927734375,-0.717803955078125
1780626536665845800,0.821845703125,0.0760955810546875,0.5174102783203125,-0.3023681640625
1780626536675875800,0.831875732421875,-0.1311798095703125,0.9111175537109375,0.2835540771484375
1780626536685906000,0.841906005859375,-0.41436767578125,1.233642578125,0.8760528564453125
1780626536695936000,0.85193603515625,-0.24285888671875,1.9176788330078125,1.67999267578125
1780626536705965800,0.8619658203125,-0.215911865234375,1.762359619140625,1.8512115478515625
1780626536715996000,0.871995849609375,-0.1310272216796875,0.7500762939453125,0.7590484619140625
1780626536726025700,0.882025634765625,0.06036376953125,0.3899078369140625,0.0291900634765625
1780626536736055800,0.892055908203125,-0.026641845703125,0.4333038330078125,-0.232208251953125
1780626536746086000,0.9020859375,0.20062255859375,0.428253173828125,-0.6399078369140625
1780626536756116000,0.912115966796875,0.09820556640625,-0.229736328125,-1.5960540771484375
1780626536766146000,0.92214599609375,0.052490234375,-0.6311492919921875,-2.375823974609375
1780626536776175900,0.93217578125,0.014404296875,0.17327880859375,-1.628936767578125
1780626536786205700,0.942205810546875,-0.8174591064453125,0.3612823486328125,-1.2110443115234375
1780626536796235800,0.95223583984375,-0.6529388427734375,1.1603240966796875,-0.4947509765625
1780626536806265900,0.962265869140625,-0.1311492919921875,1.76690673828125,0.48223876953125
1780626536816296000,0.9722958984375,0.241180419921875,1.9176177978515625,0.870452880859375
1780626536826326000,0.982325927734375,0.2446136474609375,1.5101470947265625,0.3366546630859375
1780626536836355800,0.99235595703125,-0.499786376953125,0.911712646484375,-0.673614501953125
1780626536846386000,1.002385986328125,-1.1591949462890625,0.6862640380859375,-1.3338470458984375
1780626536856415700,1.012415771484375,-1.32281494140625,0.459930419921875,-1.6431121826171875
1780626536866445800,1.02244580078125,-1.2268829345703125,0.3245391845703125,-1.697265625
1780626536876476000,1.032475830078125,-0.770599365234375,0.5501556396484375,-1.6197052001953125
1780626536886505700,1.042505615234375,-0.29376220703125,0.3088531494140625,-1.2990264892578125
1780626536896535800,1.052535888671875,0.057647705078125,0.36688232421875,-0.9560546875
1780626536906566000,1.06256591796875,0.2793731689453125,0.409881591796875,-0.8035125732421875
1780626536916596000,1.072595947265625,0.47271728515625,0.2428131103515625,-0.57562255859375
1780626536926626000,1.0826259765625,0.596038818359375,0.2719879150390625,-0.3336029052734375
1780626536936656000,1.09265576171875,0.676361083984375,0.31573486328125,-0.154632568359375
1780626536946685700,1.102685791015625,0.1645660400390625,0.3725433349609375,0.130035400390625
1780626536956715800,1.1127158203125,0.42303466796875,0.7065887451171875,0.13311767578125
1780626536966745900,1.122745849609375,0.8865814208984375,0.98388671875,-0.1958160400390625
1780626536976776000,1.13277587890625,0.7677001953125,0.863189697265625,-0.282135009765625
1780626536986806000,1.142805908203125,0.651763916015625,0.649688720703125,-0.2325592041015625
1780626536996835800,1.1528359375,0.4918975830078125,0.4427947998046875,-0.1595306396484375
1780626537006866000,1.162865966796875,0.3819122314453125,0.3856353759765625,-0.16455078125
1780626537016895700,1.172895751953125,0.2879791259765625,0.3255462646484375,-0.1559600830078125
1780626537026925800,1.18292578125,0.1758575439453125,0.27362060546875,-0.1517181396484375
1780626537036956000,1.192955810546875,-0.0087890625,0.43035888671875,-0.2741241455078125
1780626537046986000,1.202986083984375,-0.9304046630859375,1.792022705078125,-1.0675811767578125
1780626537057015800,1.213015869140625,-0.564697265625,1.2440643310546875,-0.8190155029296875
1780626537067046000,1.2230458984375,-0.17181396484375,0.423614501953125,-0.4572296142578125
1780626537077076000,1.233075927734375,0.0274505615234375,0.2112884521484375,-0.336395263671875
1780626537087105800,1.243105712890625,0.23614501953125,0.4363555908203125,-0.2886199951171875
1780626537097135900,1.253135986328125,0.5108795166015625,0.913299560546875,-0.2307891845703125
1780626537107165700,1.263165771484375,0.71856689453125,1.3806304931640625,-0.093353271484375
1780626537117195800,1.27319580078125,0.8275299072265625,1.80267333984375,0.0124664306640625
1780626537127225900,1.283225830078125,0.87725830078125,2.117584228515625,0.281036376953125
1780626537137256000,1.293255859375,0.6589813232421875,2.2364959716796875,0.3430633544921875
1780626537147286000,1.3032861328125,0.139373779296875,2.008819580078125,0.3298797607421875
1780626537157316000,1.313316162109375,-0.40936279296875,1.6321258544921875,0.597259521484375
1780626537167345700,1.323345703125,-0.77545166015625,1.3404541015625,0.6975860595703125
1780626537177375700,1.333375732421875,-0.907806396484375,0.9939727783203125,0.7723541259765625
1780626537187405800,1.34340576171875,-0.8436737060546875,0.7164764404296875,0.796600341796875
1780626537197436000,1.353435791015625,-0.6186065673828125,0.61468505859375,0.7032623291015625
1780626537207466000,1.363466064453125,-0.276123046875,0.6198883056640625,0.5430450439453125
1780626537217495800,1.373495849609375,-0.00830078125,0.62139892578125,0.4522552490234375
1780626537227526000,1.38352587890625,0.123016357421875,0.686981201171875,0.437469482421875
1780626537237556000,1.393555908203125,0.2000732421875,0.756439208984375,0.4397735595703125
1780626537247585800,1.403585693359375,0.2028656005859375,0.7662200927734375,0.433380126953125
1780626537257616000,1.413615966796875,0.1235809326171875,0.7794189453125,0.415985107421875
1780626537267646000,1.42364599609375,0.031494140625,0.7281036376953125,0.356170654296875
1780626537277675800,1.43367578125,-0.00335693359375,0.8157806396484375,0.2523193359375
1780626537287705900,1.443705810546875,0.109771728515625,0.8477935791015625,0.163177490234375
1780626537297736000,1.45373583984375,0.2514801025390625,0.882476806640625,0.151275634765625
1780626537307766000,1.46376611328125,0.2312164306640625,0.9536285400390625,0.21697998046875
1780626537317795800,1.4737958984375,0.15875244140625,0.9768829345703125,0.287750244140625
1780626537327825700,1.48382568359375,0.1582794189453125,0.9437408447265625,0.2523193359375
1780626537337855700,1.493855712890625,0.1859283447265625,0.8552093505859375,0.1691741943359375
1780626537347885800,1.5038857421875,0.186981201171875,0.8782196044921875,0.153533935546875
1780626537357916000,1.513916015625,0.166259765625,1.0508575439453125,0.1890869140625
1780626537367946000,1.523946044921875,0.171905517578125,1.1500701904296875,0.2151336669921875
1780626537377976000,1.53397607421875,0.16448974609375,1.176666259765625,0.2411651611328125
1780626537388006000,1.544005859375,0.1402587890625,1.156463623046875,0.2742462158203125
1780626537398035700,1.55403564453125,0.10906982421875,1.1771087646484375,0.2878570556640625
1780626537408065800,1.564065673828125,0.1240081787109375,1.07958984375,0.2739410400390625
1780626537418095900,1.574095947265625,0.1930389404296875,0.9533233642578125,0.261383056640625
1780626537428126000,1.5841259765625,0.240570068359375,0.9585113525390625,0.3047332763671875
1780626537438155800,1.59415576171875,0.2265777587890625,0.9074859619140625,0.364990234375
1780626537448185900,1.604185791015625,0.1708831787109375,0.8149261474609375,0.374755859375
1780626537458216000,1.6142158203125,0.0872802734375,0.7281646728515625,0.35797119140625
1780626537468245800,1.624245849609375,0.0417938232421875,0.7351226806640625,0.37115478515625
1780626537478275800,1.63427587890625,0.08349609375,0.813873291015625,0.4119720458984375
1780626537488306000,1.644305908203125,0.168670654296875,0.9310150146484375,0.476043701171875
1780626537498335700,1.654335693359375,0.192413330078125,1.0218353271484375,0.542083740234375
1780626537508365800,1.66436572265625,0.1399993896484375,1.104278564453125,0.5986785888671875
1780626537518396000,1.67439599609375,0.0637054443359375,1.162139892578125,0.6448516845703125
1780626537528426000,1.684426025390625,0.04119873046875,1.22406005859375,0.6759796142578125
1780626537538456000,1.6944560546875,0.054901123046875,1.2761993408203125,0.653533935546875
1780626537548485600,1.704485595703125,-0.03173828125,1.198638916015625,0.5659942626953125
1780626537558515000,1.714514892578125,-0.1586761474609375,1.0364227294921875,0.4320220947265625
1780626537568545000,1.724544921875,-0.191802978515625,0.8928070068359375,0.351287841796875
1780626537578574800,1.734574951171875,-0.11505126953125,0.8669891357421875,0.31976318359375
1780626537588605000,1.74460498046875,-0.020660400390625,0.9242095947265625,0.3230743408203125
1780626537598635000,1.754635009765625,0.0105133056640625,0.998687744140625,0.3334503173828125
1780626537608665000,1.7646650390625,-0.020599365234375,1.0640411376953125,0.336517333984375
1780626537618695000,1.77469482421875,-0.0695343017578125,1.046173095703125,0.3274078369140625
1780626537628725000,1.78472509765625,-0.10223388671875,0.9710235595703125,0.2907257080078125
1780626537638755000,1.794755126953125,-0.11285400390625,0.8938751220703125,0.245697021484375
1780626537648785000,1.804784912109375,-0.1215667724609375,0.8407135009765625,0.2176971435546875
1780626537658815000,1.81481494140625,-0.1250457763671875,0.8249664306640625,0.1999053955078125
1780626537668845000,1.824844970703125,-0.124114990234375,0.8411712646484375,0.1818389892578125
1780626537678875000,1.834875,-0.1389312744140625,0.84130859375,0.1683502197265625
1780626537688905000,1.844905029296875,-0.2274017333984375,0.852325439453125,0.1829833984375
1780626537698935000,1.85493505859375,-0.2622833251953125,0.8525543212890625,0.1796875
1780626537708965000,1.864965087890625,-0.288818359375,0.841033935546875,0.1849212646484375
1780626537718995200,1.8749951171875,-0.312652587890625,0.851837158203125,0.1859588623046875
1780626537729024800,1.885024658203125,-0.3359375,0.8813629150390625,0.18115234375
1780626537739054800,1.895054931640625,-0.35064697265625,0.905548095703125,0.1758880615234375
1780626537749085000,1.9050849609375,-0.3526611328125,0.9235992431640625,0.1724853515625
1780626537759115000,1.915114990234375,-0.3685150146484375,0.9685821533203125,0.17852783203125
1780626537769145000,1.92514501953125,-0.3975677490234375,1.0346221923828125,0.197021484375
1780626537779175200,1.935175048828125,-0.4349365234375,1.1757354736328125,0.2432861328125
1780626537789205000,1.945205078125,-0.3845367431640625,1.3764801025390625,0.290618896484375
1780626537799235000,1.955235107421875,-0.3358306884765625,1.0302276611328125,0.3218536376953125
1780626537809265000,1.965264892578125,-0.4202423095703125,0.7165069580078125,0.2912445068359375
1780626537819295000,1.975294921875,-0.440338134765625,0.675506591796875,0.280853271484375
1780626537829325000,1.985324951171875,-0.39813232421875,0.80682373046875,0.2593841552734375
1780626537839355000,1.99535498046875,-0.2716217041015625,1.02740478515625,0.24456787109375
1780626537849385000,2.005385009765625,-0.1777191162109375,1.233734130859375,0.25592041015625
1780626537859415000,2.0154150390625,-0.1582489013671875,1.2279052734375,0.260101318359375
1780626537869445000,2.025445068359375,-0.203460693359375,1.1397857666015625,0.2367706298828125
1780626537879475000,2.035474853515625,-0.25372314453125,1.06304931640625,0.2183380126953125
1780626537889505000,2.045505126953125,-0.27801513671875,1.0267181396484375,0.203125
1780626537899534800,2.055534912109375,-0.2974700927734375,0.9536285400390625,0.2137451171875
1780626537909565000,2.06556494140625,-0.2991485595703125,0.88409423828125,0.235107421875
1780626537919595000,2.075594970703125,-0.31109619140625,0.87762451171875,0.268890380859375
1780626537929625000,2.085625,-0.3319091796875,0.90625,0.3018646240234375
1780626537939655200,2.0956552734375,-0.349609375,0.9086456298828125,0.3333282470703125
1780626537949685000,2.10568505859375,-0.323760986328125,0.849578857421875,0.342437744140625
1780626537959714800,2.11571484375,-0.3718414306640625,0.884796142578125,0.3477783203125
1780626537969745000,2.125744873046875,-0.341949462890625,0.834869384765625,0.3336029052734375
1780626537979775000,2.13577490234375,-0.2559967041015625,0.737762451171875,0.315032958984375
1780626537989805000,2.14580517578125,-0.1907501220703125,0.6988372802734375,0.2965545654296875
1780626537999835100,2.155835205078125,-0.0926361083984375,0.63665771484375,0.2646026611328125
1780626538009865000,2.165864990234375,-0.1408843994140625,0.71630859375,0.2616729736328125
1780626538019895000,2.17589501953125,-0.219451904296875,0.8430938720703125,0.2784881591796875
1780626538029924900,2.1859248046875,-0.2628631591796875,1.0046844482421875,0.28759765625
1780626538039955000,2.195954833984375,-0.274261474609375,1.0967254638671875,0.2700958251953125
1780626538049985000,2.205985107421875,-0.2219696044921875,1.09112548828125,0.241485595703125
1780626538060014800,2.216014892578125,-0.1749114990234375,1.1058349609375,0.2171478271484375
1780626538070045000,2.226044921875,-0.115997314453125,1.1325225830078125,0.1831512451171875
1780626538080075000,2.236074951171875,-0.1163330078125,1.1527862548828125,0.1768798828125
1780626538090105000,2.24610498046875,-0.1639862060546875,1.1551513671875,0.1834869384765625
1780626538100135200,2.25613525390625,-0.134796142578125,1.103057861328125,0.185821533203125
1780626538110165000,2.2661650390625,-0.1333160400390625,1.096466064453125,0.18634033203125
1780626538120194800,2.27619482421875,-0.1606597900390625,1.1045989990234375,0.21563720703125
1780626538130225000,2.286224853515625,-0.1993560791015625,1.099395751953125,0.26739501953125
1780626538140255000,2.2962548828125,-0.160980224609375,0.9344940185546875,0.27716064453125
1780626538150285000,2.30628515625,-0.240478515625,0.7438507080078125,0.274444580078125
1780626538160315100,2.316315185546875,-0.170562744140625,0.4698638916015625,0.2220306396484375
1780626538170345000,2.326344970703125,0.18060302734375,0.240386962890625,0.0950775146484375
1780626538180375000,2.336375,0.3027191162109375,0.207000732421875,0.0629425048828125
1780626538190404900,2.34640478515625,0.15728759765625,0.32684326171875,0.16851806640625
1780626538200435000,2.35643505859375,-0.030120849609375,0.618408203125,0.3044281005859375
1780626538210465000,2.366465087890625,-0.21990966796875,1.0776519775390625,0.42828369140625
1780626538220495000,2.3764951171875,-0.3660888671875,1.549591064453125,0.578643798828125
1780626538230525000,2.38652490234375,-0.3752899169921875,1.7957305908203125,0.648406982421875
1780626538240555000,2.396554931640625,-0.1623382568359375,1.676422119140625,0.528961181640625
1780626538250585000,2.406585205078125,0.0787811279296875,1.3421173095703125,0.321868896484375
1780626538260615000,2.416614990234375,0.14031982421875,1.19464111328125,0.220794677734375
1780626538270645000,2.42664501953125,0.1074676513671875,1.0537567138671875,0.225799560546875
1780626538280674800,2.4366748046875,0.0041046142578125,0.992218017578125,0.335845947265625
1780626538290705000,2.446704833984375,-0.2837982177734375,0.9925537109375,0.4668121337890625
1780626538300735000,2.45673486328125,-0.30096435546875,0.8712005615234375,0.4737396240234375
1780626538310765000,2.46676513671875,-0.0294189453125,0.753875732421875,0.40362548828125
1780626538320795100,2.476795166015625,0.136322021484375,0.8006744384765625,0.4100494384765625
1780626538330825200,2.4868251953125,0.267791748046875,0.79150390625,0.4514312744140625
1780626538340854800,2.496854736328125,0.2995758056640625,0.772125244140625,0.517852783203125
1780626538350884900,2.506884765625,0.260650634765625,0.79705810546875,0.6071624755859375
1780626538360915000,2.5169150390625,0.21002197265625,0.86334228515625,0.6929779052734375
1780626538370945000,2.526945068359375,0.2776031494140625,0.6793212890625,0.702850341796875
1780626538380975000,2.53697509765625,0.366729736328125,0.5966644287109375,0.6747894287109375
1780626538391005000,2.5470048828125,0.454986572265625,0.642791748046875,0.6677398681640625
1780626538401035000,2.557034912109375,0.4947052001953125,0.7593231201171875,0.6824951171875
1780626538411065000,2.567065185546875,0.5310211181640625,0.7988128662109375,0.6064910888671875
1780626538421095000,2.577094970703125,0.4486083984375,1.302154541015625,0.69049072265625
1780626538431125000,2.587125,0.3777923583984375,1.0824432373046875,0.7331695556640625
1780626538441155000,2.597155029296875,0.3574066162109375,1.092620849609375,0.699432373046875
1780626538451185000,2.607184814453125,0.3408966064453125,1.0390625,0.6773223876953125
1780626538461215000,2.617215087890625,0.3000640869140625,0.9541168212890625,0.6045989990234375
1780626538471245000,2.6272451171875,0.2309417724609375,0.8511962890625,0.4789276123046875
1780626538481275100,2.637275146484375,0.1932373046875,0.70916748046875,0.334075927734375
1780626538491305000,2.647304931640625,0.1769561767578125,0.639984130859375,0.196990966796875
1780626538501334800,2.657334716796875,0.1821136474609375,0.6052093505859375,0.092193603515625
1780626538511364900,2.66736474609375,0.1667022705078125,0.5746307373046875,0.04827880859375
1780626538521395000,2.67739501953125,0.1558685302734375,0.5986328125,0.032379150390625
1780626538531425000,2.687425048828125,0.120361328125,0.6172637939453125,0.0061492919921875
1780626538541455000,2.697455078125,0.082122802734375,0.6668701171875,0.0603179931640625
1780626538551485200,2.707485107421875,0.0578155517578125,0.6860809326171875,0.1394500732421875
1780626538561515300,2.717515380859375,0.0738677978515625,0.730682373046875,0.2066802978515625
1780626538571545000,2.727545166015625,0.1156005859375,0.7586212158203125,0.2305908203125
1780626538581575200,2.7375751953125,0.1490936279296875,0.689849853515625,0.2458953857421875
1780626538591605200,2.747605224609375,0.14013671875,0.688812255859375,0.2432403564453125
1780626538601635300,2.75763525390625,0.0815887451171875,0.6298370361328125,0.2175750732421875
1780626538611665200,2.7676650390625,0.090118408203125,0.6003875732421875,0.2439727783203125
1780626538621695200,2.7776953125,0.084747314453125,0.6459197998046875,0.2812042236328125
1780626538631725300,2.787725341796875,0.0218963623046875,0.752105712890625,0.3109283447265625
1780626538641755400,2.79775537109375,0.04376220703125,0.7039337158203125,0.3177032470703125
1780626538651785200,2.80778515625,0.0747833251953125,0.573577880859375,0.272674560546875
1780626538661815000,2.81781494140625,0.0443878173828125,0.3365936279296875,0.1019287109375
1780626538671845000,2.82784521484375,0.0394744873046875,0.0515899658203125,-0.1274261474609375
1780626538681875200,2.837875244140625,0.0096588134765625,-0.0712738037109375,-0.1014404296875
1780626538691905300,2.8479052734375,-0.0561370849609375,0.0113372802734375,0.0130462646484375
1780626538701935400,2.857935302734375,-0.100433349609375,0.1363983154296875,0.0826873779296875
1780626538711965400,2.86796533203125,-0.138458251953125,0.2480316162109375,0.100250244140625
1780626538721995300,2.877995361328125,-0.193878173828125,0.3731842041015625,0.1097869873046875
1780626538732025000,2.888025146484375,-0.22125244140625,0.5115814208984375,0.1301422119140625
1780626538742055200,2.89805517578125,-0.155975341796875,0.633270263671875,0.1553192138671875
1780626538752085200,2.908085205078125,-0.065093994140625,0.754425048828125,0.2061309814453125
1780626538762115300,2.918115234375,-0.006744384765625,0.87957763671875,0.3280792236328125
1780626538772145200,2.928145263671875,0.050628662109375,1.154144287109375,0.5780181884765625
1780626538782175200,2.93817529296875,-0.0111541748046875,1.654937744140625,0.8089599609375
1780626538792205300,2.948205322265625,-0.087493896484375,2.31109619140625,0.9510955810546875
1780626538802236400,2.958236328125,0.1996917724609375,3.3199920654296875,1.2354888916015625
1780626538812266200,2.968266357421875,0.061370849609375,3.382171630859375,1.1887664794921875
1780626538822296000,2.978296142578125,-0.471160888671875,2.2327728271484375,0.907501220703125
1780626538832326100,2.988326171875,-0.684417724609375,1.2569122314453125,0.6706085205078125
1780626538842356200,2.998356201171875,-0.7203521728515625,0.7540435791015625,0.5653076171875
1780626538852386300,3.00838623046875,-0.69940185546875,0.47491455078125,0.4597015380859375
1780626538862416400,3.01841650390625,-0.7198028564453125,0.3811798095703125,0.355987548828125
1780626538872446200,3.0284462890625,-0.6717376708984375,0.424468994140625,0.269561767578125
1780626538882476300,3.038476318359375,-0.6027679443359375,0.5257568359375,0.1982879638671875
1780626538892506000,3.048506103515625,-0.3579254150390625,0.816162109375,0.12652587890625
1780626538902536200,3.0585361328125,-0.128509521484375,1.2651824951171875,0.0417022705078125
1780626538912566300,3.068566162109375,-0.134368896484375,1.4764251708984375,-0.0449676513671875
1780626538922596000,3.07859619140625,-0.2192840576171875,1.362457275390625,-0.09344482421875
1780626538932626200,3.088626220703125,-0.2552337646484375,1.2405242919921875,-0.0771026611328125
1780626538942656300,3.09865625,-0.21978759765625,1.07208251953125,-0.0537109375
1780626538952686300,3.108686279296875,-0.172698974609375,0.9356536865234375,-0.042449951171875
1780626538962716400,3.11871630859375,-0.196014404296875,0.9050140380859375,-0.0071258544921875
1780626538972746200,3.128746337890625,-0.2082977294921875,0.93853759765625,0.0635833740234375
1780626538982776000,3.138776123046875,-0.2444000244140625,0.9849853515625,0.12078857421875
1780626538992806100,3.14880615234375,-0.3266143798828125,1.0305938720703125,0.151397705078125
1780626539002836200,3.158836181640625,-0.3910369873046875,1.0247650146484375,0.17498779296875
1780626539012866300,3.1688662109375,-0.4206085205078125,0.9735870361328125,0.1868743896484375
1780626539022896400,3.178896484375,-0.4507904052734375,0.8926239013671875,0.214508056640625
1780626539032926200,3.18892626953125,-0.4608612060546875,0.8170318603515625,0.25921630859375
1780626539042956300,3.198956298828125,-0.47314453125,0.779632568359375,0.32196044921875
1780626539052986000,3.208986083984375,-0.446502685546875,0.7784423828125,0.3872528076171875
1780626539063016200,3.21901611328125,-0.3852691650390625,0.8086090087890625,0.445098876953125
1780626539073046300,3.22904638671875,-0.2953033447265625,0.8446807861328125,0.46868896484375
1780626539083076400,3.239076416015625,-0.2545928955078125,0.863800048828125,0.4623565673828125
1780626539093106200,3.249106201171875,-0.254058837890625,0.848388671875,0.436492919921875
1780626539103136300,3.25913623046875,-0.2497711181640625,0.815155029296875,0.384979248046875
1780626539113166300,3.269166259765625,-0.241546630859375,0.7873992919921875,0.323486328125
1780626539123196200,3.279196044921875,-0.2321319580078125,0.7847747802734375,0.282806396484375
1780626539133226200,3.289226318359375,-0.2600250244140625,0.8191986083984375,0.2751007080078125
1780626539143256000,3.299256103515625,-0.287872314453125,0.871734619140625,0.2904815673828125
1780626539153286100,3.3092861328125,-0.296844482421875,0.930389404296875,0.2942352294921875
1780626539163316200,3.319316162109375,-0.3149566650390625,0.952392578125,0.28125
1780626539173346300,3.32934619140625,-0.34332275390625,0.935699462890625,0.2458648681640625
1780626539183376400,3.33937646484375,-0.379638671875,0.9115142822265625,0.2175140380859375
1780626539193406500,3.349406494140625,-0.364654541015625,0.839019775390625,0.18963623046875
1780626539203436000,3.35943603515625,-0.2881927490234375,0.7603759765625,0.1297454833984375
1780626539213466000,3.369466064453125,-0.23443603515625,0.699951171875,0.0473480224609375
1780626539223496200,3.37949609375,-0.253082275390625,0.690643310546875,-0.0040435791015625
1780626539233526300,3.3895263671875,-0.3073577880859375,0.7589111328125,-0.0035247802734375
1780626539243556400,3.399556396484375,-0.3686676025390625,0.897796630859375,0.053009033203125
1780626539253586200,3.409586181640625,-0.433929443359375,1.05224609375,0.14361572265625
1780626539263616300,3.4196162109375,-0.519012451171875,1.15045166015625,0.250274658203125
1780626539273646300,3.429646240234375,-0.580718994140625,1.109619140625,0.3252716064453125
1780626539283676200,3.43967626953125,-0.5517578125,0.991119384765625,0.3463287353515625
1780626539293706200,3.449706298828125,-0.472900390625,0.8803863525390625,0.3443450927734375
1780626539303736300,3.459736328125,-0.4016571044921875,0.7993621826171875,0.3307342529296875
1780626539313766100,3.46976611328125,-0.3559112548828125,0.7489166259765625,0.3127288818359375
1780626539323796200,3.479796142578125,-0.3260345458984375,0.72119140625,0.30810546875
1780626539333826300,3.489826416015625,-0.3206329345703125,0.7209625244140625,0.321533203125
1780626539343856400,3.4998564453125,-0.343353271484375,0.7731781005859375,0.345550537109375
1780626539353886200,3.50988623046875,-0.3267364501953125,0.8831939697265625,0.36151123046875
1780626539363916000,3.519916015625,-0.33477783203125,0.98846435546875,0.3712005615234375
1780626539373946000,3.529946044921875,-0.4162139892578125,1.053985595703125,0.3709716796875
1780626539383976200,3.53997607421875,-0.46856689453125,1.0928497314453125,0.3739166259765625
1780626539394006300,3.55000634765625,-0.4463958740234375,1.083984375,0.3973846435546875
1780626539404036400,3.560036376953125,-0.3600616455078125,0.993011474609375,0.433502197265625
1780626539414066400,3.57006640625,-0.241729736328125,0.8680877685546875,0.4651336669921875
1780626539424096300,3.58009619140625,-0.1415863037109375,0.76031494140625,0.49285888671875
1780626539434126000,3.5901259765625,-0.044189453125,0.6454315185546875,0.50372314453125
1780626539444156200,3.60015625,0.08001708984375,0.5928955078125,0.50640869140625
1780626539454186200,3.610186279296875,0.213623046875,0.62115478515625,0.4866180419921875
1780626539464216300,3.62021630859375,0.2734222412109375,0.700469970703125,0.453460693359375
1780626539474246100,3.63024609375,0.2611541748046875,0.8013458251953125,0.374725341796875
1780626539484276200,3.640276123046875,0.2051849365234375,0.8560333251953125,0.2938385009765625
1780626539494306300,3.650306396484375,0.1688385009765625,0.85736083984375,0.2289581298828125
1780626539504336100,3.660336181640625,0.2087554931640625,0.8304901123046875,0.19464111328125
1780626539514366200,3.6703662109375,0.2739410400390625,0.8460540771484375,0.203887939453125
1780626539524396300,3.680396240234375,0.295135498046875,0.8823394775390625,0.2420501708984375
1780626539534426000,3.690426025390625,0.28106689453125,0.8939361572265625,0.308074951171875
1780626539544456200,3.700456298828125,0.2574462890625,0.9051513671875,0.3859100341796875
1780626539554486300,3.710486328125,0.260498046875,0.897308349609375,0.456451416015625
1780626539564516000,3.72051611328125,0.2666778564453125,0.88739013671875,0.488037109375
1780626539574546200,3.730546142578125,0.261260986328125,0.8788604736328125,0.4874114990234375
1780626539584576300,3.740576171875,0.21160888671875,0.8487548828125,0.4532928466796875
1780626539594606000,3.750606201171875,0.17413330078125,0.8172760009765625,0.429595947265625
1780626539604636200,3.76063623046875,0.2068328857421875,0.81329345703125,0.4223175048828125
1780626539614666200,3.770666259765625,0.2049407958984375,0.8363494873046875,0.4318695068359375
1780626539624696000,3.780696044921875,0.17059326171875,0.8601837158203125,0.478485107421875
1780626539634726100,3.79072607421875,0.154754638671875,0.8991546630859375,0.5384368896484375
1780626539644756000,3.800755859375,0.1414337158203125,0.968597412109375,0.5856475830078125
1780626539654786000,3.8107861328125,0.164306640625,1.00830078125,0.6084136962890625
1780626539664816000,3.820816162109375,0.2155303955078125,1.0067291259765625,0.59619140625
1780626539674846200,3.83084619140625,0.251312255859375,0.9508209228515625,0.5437164306640625
1780626539684876300,3.840876220703125,0.241180419921875,0.871551513671875,0.4648895263671875
1780626539694906000,3.850906005859375,0.2358245849609375,0.792449951171875,0.369293212890625
1780626539704936000,3.86093603515625,0.2618255615234375,0.779449462890625,0.3033599853515625
1780626539714966000,3.870966064453125,0.29425048828125,0.8154754638671875,0.223663330078125
1780626539724996000,3.88099609375,0.3095703125,0.867889404296875,0.1938323974609375
1780626539735026200,3.891026123046875,0.326324462890625,0.9391326904296875,0.207611083984375
1780626539745056300,3.90105615234375,0.3588409423828125,1.0349273681640625,0.27099609375
1780626539755086000,3.911086181640625,0.3628387451171875,1.1144561767578125,0.3494415283203125
1780626539765116200,3.9211162109375,0.3372039794921875,1.1324462890625,0.39385986328125
1780626539775146000,3.93114599609375,0.3187103271484375,1.067108154296875,0.4132537841796875
1780626539785176000,3.941176025390625,0.3167266845703125,0.9170989990234375,0.3973541259765625
1780626539795206100,3.9512060546875,0.30462646484375,0.76605224609375,0.3622589111328125
1780626539805236200,3.961236328125,0.3031158447265625,0.723114013671875,0.3318939208984375
1780626539815266000,3.97126611328125,0.3314971923828125,0.7887725830078125,0.319305419921875
1780626539825296100,3.981296142578125,0.3568878173828125,0.909393310546875,0.3295745849609375
1780626539835326200,3.991326171875,0.3489227294921875,1.025177001953125,0.3455963134765625
1780626539845356300,4.001356201171875,0.293975830078125,1.0675811767578125,0.37677001953125
1780626539855386000,4.01138623046875,0.2460784912109375,1.0601043701171875,0.42578125
1780626539865416000,4.021416015625,0.2300262451171875,1.0298004150390625,0.476959228515625
1780626539875446000,4.031446044921875,0.2373504638671875,0.9674224853515625,0.5062408447265625
1780626539885476000,4.04147607421875,0.2724456787109375,0.8917236328125,0.5118408203125
1780626539895506200,4.051506103515625,0.308441162109375,0.8410186767578125,0.500579833984375
1780626539905536300,4.061536376953125,0.354888916015625,0.8390350341796875,0.4720458984375
1780626539915566000,4.071566162109375,0.418731689453125,0.8925323486328125,0.441192626953125
1780626539925596000,4.081595947265625,0.4621124267578125,0.971221923828125,0.3936920166015625
1780626539935626000,4.0916259765625,0.4893646240234375,0.9976043701171875,0.3365631103515625
1780626539945656000,4.101656005859375,0.50286865234375,0.9700775146484375,0.2735748291015625
1780626539955686100,4.11168603515625,0.4918365478515625,0.9113006591796875,0.2162933349609375
1780626539965716200,4.12171630859375,0.462158203125,0.8614349365234375,0.180267333984375
1780626539975746000,4.13174609375,0.43792724609375,0.8271636962890625,0.1724395751953125
1780626539985777200,4.141777099609375,0.417205810546875,0.82012939453125,0.1853790283203125
1780626539995807200,4.15180712890625,0.390960693359375,0.834136962890625,0.202392578125
1780626540005836000,4.1618359375,0.37158203125,0.8637237548828125,0.2216644287109375
1780626540015867000,4.171866943359375,0.3666229248046875,0.89935302734375,0.2471771240234375
1780626540025897000,4.18189697265625,0.3526153564453125,0.94378662109375,0.28302001953125
1780626540035927000,4.191927001953125,0.347686767578125,0.969940185546875,0.3297271728515625
1780626540045957000,4.20195703125,0.3635101318359375,0.97314453125,0.3808441162109375
1780626540055987200,4.2119873046875,0.3777008056640625,0.963623046875,0.4253082275390625
1780626540066017000,4.22201708984375,0.397491455078125,0.9422454833984375,0.4458770751953125
1780626540076047000,4.232047119140625,0.43035888671875,0.9200286865234375,0.4477996826171875
1780626540086077200,4.2420771484375,0.43499755859375,0.8957977294921875,0.4376678466796875
1780626540096107000,4.25210693359375,0.463958740234375,0.8760223388671875,0.4049530029296875
1780626540106137000,4.26213720703125,0.4680633544921875,0.879425048828125,0.363372802734375
1780626540116167200,4.272167236328125,0.4598846435546875,0.8808441162109375,0.3247528076171875
1780626540126197000,4.282197021484375,0.4282073974609375,0.884429931640625,0.3027191162109375
1780626540136227000,4.29222705078125,0.3878936767578125,0.8792877197265625,0.3033294677734375
1780626540146257200,4.302257080078125,0.3571929931640625,0.8603515625,0.3222808837890625
1780626540156287200,4.312287353515625,0.3399810791015625,0.8301544189453125,0.3477020263671875
1780626540166317300,4.3223173828125,0.3450164794921875,0.8167572021484375,0.3759613037109375
1780626540176347100,4.33234716796875,0.368133544921875,0.7967529296875,0.395111083984375
1780626540186377000,4.342376953125,0.402679443359375,0.7674560546875,0.3979339599609375
1780626540196407000,4.352406982421875,0.4372100830078125,0.7501068115234375,0.38238525390625
1780626540206437000,4.36243701171875,0.4369049072265625,0.744476318359375,0.3575286865234375
1780626540216467200,4.37246728515625,0.4185333251953125,0.749420166015625,0.3386383056640625
1780626540226497300,4.382497314453125,0.403533935546875,0.7651519775390625,0.3352813720703125
1780626540236527000,4.392527099609375,0.3779296875,0.7795257568359375,0.3457794189453125
1780626540246557000,4.402556884765625,0.3625030517578125,0.8048553466796875,0.369964599609375
1780626540256587000,4.4125869140625,0.361480712890625,0.8404388427734375,0.4063262939453125
1780626540266617000,4.4226171875,0.372100830078125,0.8659210205078125,0.439605712890625
1780626540276647200,4.432647216796875,0.368621826171875,0.8802947998046875,0.4551239013671875
1780626540286677200,4.44267724609375,0.37103271484375,0.9063873291015625,0.448974609375
1780626540296707000,4.45270703125,0.3577880859375,0.9630279541015625,0.4321441650390625
1780626540306737200,4.462737060546875,0.348052978515625,1.029083251953125,0.415740966796875
1780626540316767200,4.472767333984375,0.368560791015625,1.066741943359375,0.40338134765625
1780626540326797000,4.482797119140625,0.3448333740234375,1.0400543212890625,0.3936920166015625
1780626540336827100,4.4928271484375,0.3054962158203125,0.9716644287109375,0.3934173583984375
1780626540346857000,4.50285693359375,0.2583770751953125,0.9069061279296875,0.399566650390625
1780626540356887000,4.512886962890625,0.2494049072265625,0.8699951171875,0.4135894775390625
1780626540366917000,4.522917236328125,0.254180908203125,0.8601837158203125,0.4203643798828125
1780626540376947200,4.532947265625,0.2753448486328125,0.8804779052734375,0.413970947265625
1780626540386977300,4.542977294921875,0.2989501953125,0.9234466552734375,0.3895721435546875
1780626540397007000,4.553007080078125,0.3247222900390625,0.969970703125,0.360992431640625
1780626540407037000,4.563036865234375,0.3473358154296875,0.98712158203125,0.3287200927734375
1780626540417067000,4.57306689453125,0.327239990234375,0.9823760986328125,0.2945556640625
1780626540427097000,4.58309716796875,0.2777252197265625,0.9485321044921875,0.2614898681640625
1780626540437127200,4.593127197265625,0.2458038330078125,0.8927154541015625,0.23040771484375
1780626540447157200,4.6031572265625,0.2233428955078125,0.847930908203125,0.2051239013671875
1780626540457187000,4.61318701171875,0.190826416015625,0.815887451171875,0.1759796142578125
1780626540467217200,4.623217041015625,0.1651458740234375,0.797943115234375,0.152099609375
1780626540477247000,4.6332470703125,0.17095947265625,0.7859344482421875,0.1345977783203125
1780626540487277000,4.643277099609375,0.177734375,0.7868194580078125,0.1190643310546875
1780626540497307100,4.65330712890625,0.1736602783203125,0.7954254150390625,0.1027679443359375
1780626540507337200,4.663337158203125,0.171661376953125,0.8160247802734375,0.0885467529296875
1780626540517367000,4.673366943359375,0.1888885498046875,0.86328125,0.1001739501953125
1780626540527397000,4.683397216796875,0.2019805908203125,0.8994140625,0.1269989013671875
1780626540537427200,4.69342724609375,0.2061004638671875,0.9237060546875,0.1663970947265625
1780626540547457300,4.703457275390625,0.1987152099609375,0.93408203125,0.2159881591796875
1780626540557487000,4.713487060546875,0.1876373291015625,0.92181396484375,0.2615203857421875
1780626540567517700,4.723517578125,0.20208740234375,0.89459228515625,0.2875518798828125
1780626540577547800,4.7335478515625,0.2159576416015625,0.8761138916015625,0.2942962646484375
1780626540587577900,4.743577880859375,0.2118988037109375,0.876617431640625,0.2937164306640625
1780626540597608000,4.75360791015625,0.207733154296875,0.899200439453125,0.2932891845703125
1780626540607637800,4.7636376953125,0.198272705078125,0.9379425048828125,0.2969207763671875
1780626540617667600,4.77366748046875,0.197418212890625,0.976898193359375,0.307373046875
1780626540627697700,4.78369775390625,0.1801910400390625,1.0044403076171875,0.323486328125
1780626540637727700,4.793727783203125,0.1605072021484375,1.0001068115234375,0.345428466796875
1780626540647757800,4.8037578125,0.1547393798828125,0.9807586669921875,0.3657379150390625
1780626540657788000,4.813787841796875,0.1627349853515625,0.9766845703125,0.386749267578125
1780626540667817700,4.823817626953125,0.1743927001953125,0.9833984375,0.40594482421875
1780626540677847600,4.83384765625,0.193359375,0.9844970703125,0.42535400390625
1780626540687877600,4.843877685546875,0.2218475341796875,0.967559814453125,0.4403076171875
1780626540697907700,4.85390771484375,0.2274017333984375,0.9573211669921875,0.4400634765625
1780626540707937800,4.863937744140625,0.2115020751953125,0.9649505615234375,0.4350433349609375
1780626540717968000,4.8739677734375,0.1989898681640625,0.9869384765625,0.4318695068359375
1780626540727997700,4.883997802734375,0.1885833740234375,1.0485992431640625,0.4463653564453125
1780626540738027800,4.89402783203125,0.1649017333984375,1.1143646240234375,0.4682464599609375
1780626540748057900,4.904057861328125,0.1385955810546875,1.1497955322265625,0.4818115234375
1780626540758087700,4.914087646484375,0.136474609375,1.1377105712890625,0.49395751953125
1780626540768117800,4.92411767578125,0.1343536376953125,1.073822021484375,0.513946533203125
1780626540778147600,4.934147705078125,0.1144561767578125,0.976837158203125,0.5372467041015625
1780626540788177700,4.944177734375,0.12237548828125,0.8618316650390625,0.552490234375
1780626540798207700,4.954207763671875,0.1892547607421875,0.7848358154296875,0.54669189453125
1780626540808237800,4.96423779296875,0.23345947265625,0.7792205810546875,0.5337982177734375
1780626540818268000,4.974267822265625,0.2226715087890625,0.8094329833984375,0.5290985107421875
1780626540828297700,4.984297607421875,0.215057373046875,0.830047607421875,0.5227813720703125
1780626540838327600,4.99432763671875,0.226715087890625,0.845184326171875,0.512908935546875
1780626540848357600,5.004357666015625,0.2486114501953125,0.8420257568359375,0.4954833984375
1780626540858387700,5.0143876953125,0.272491455078125,0.811767578125,0.4570465087890625
1780626540868417800,5.024417724609375,0.2895660400390625,0.766326904296875,0.4130096435546875
1780626540878447900,5.03444775390625,0.3148193359375,0.721466064453125,0.3559417724609375
1780626540888477700,5.044477783203125,0.3330078125,0.705596923828125,0.3092803955078125
1780626540898507800,5.0545078125,0.375030517578125,0.7042999267578125,0.2802581787109375
1780626540908537600,5.06453759765625,0.4132843017578125,0.71661376953125,0.28662109375
1780626540918567700,5.074567626953125,0.4079132080078125,0.6627349853515625,0.309295654296875
1780626540928597800,5.08459765625,0.359619140625,0.495574951171875,0.319183349609375
1780626540938627800,5.0946279296875,0.3571319580078125,0.3091583251953125,0.3204803466796875
1780626540948657700,5.10465771484375,0.39544677734375,0.1934051513671875,0.3287506103515625
1780626540958687700,5.114687744140625,0.4328155517578125,0.198272705078125,0.3428192138671875
1780626540968717800,5.1247177734375,0.4138031005859375,0.38421630859375,0.3594207763671875
1780626540978748000,5.134747802734375,0.398193359375,0.6851959228515625,0.3819427490234375
1780626540988777700,5.14477783203125,0.4223175048828125,0.98785400390625,0.426422119140625
1780626540998808600,5.15480859375,0.42230224609375,1.2006072998046875,0.4878387451171875
1780626541008838700,5.164838623046875,0.3387908935546875,1.2545623779296875,0.554473876953125
1780626541018868700,5.17486865234375,0.2559661865234375,1.0996246337890625,0.6207427978515625
1780626541028898800,5.18489892578125,0.278076171875,0.7535552978515625,0.6464996337890625
1780626541038928600,5.1949287109375,0.270751953125,0.4712371826171875,0.6220550537109375
1780626541048958700,5.204958740234375,0.2831268310546875,0.36383056640625,0.5545196533203125
1780626541058988800,5.21498876953125,0.309417724609375,0.4284820556640625,0.4680633544921875
1780626541069019000,5.225018798828125,0.2863616943359375,0.5102386474609375,0.401641845703125
1780626541079048700,5.235048583984375,0.274688720703125,0.5606231689453125,0.363861083984375
1780626541089078800,5.245078857421875,0.2385406494140625,0.6577606201171875,0.371826171875
1780626541099108600,5.255108642578125,0.1988983154296875,0.8152313232421875,0.437225341796875
1780626541109138700,5.265138671875,0.2138824462890625,0.98370361328125,0.526397705078125
1780626541119168800,5.275168701171875,0.199676513671875,1.131622314453125,0.6111602783203125
1780626541129198800,5.28519873046875,0.153350830078125,1.253387451171875,0.685546875
1780626541139229000,5.29522900390625,0.149444580078125,1.26239013671875,0.7212371826171875
1780626541149258800,5.3052587890625,0.1747894287109375,1.100341796875,0.6950531005859375
1780626541159288600,5.31528857421875,0.2028350830078125,0.8680267333984375,0.6147003173828125
1780626541169318700,5.325318603515625,0.2547607421875,0.7022705078125,0.505462646484375
1780626541179348700,5.3353486328125,0.291351318359375,0.5896759033203125,0.4062042236328125
1780626541189378800,5.34537890625,0.2664794921875,0.5235137939453125,0.3484649658203125
1780626541199409000,5.355408935546875,0.2283172607421875,0.501983642578125,0.3324127197265625
1780626541209438700,5.365438720703125,0.2323150634765625,0.591339111328125,0.3888092041015625
1780626541219468800,5.37546875,0.264312744140625,0.7870941162109375,0.50958251953125
1780626541229498600,5.38549853515625,0.2599945068359375,0.94921875,0.6094512939453125
1780626541239528700,5.39552880859375,0.280181884765625,1.0352020263671875,0.648590087890625
1780626541249558800,5.405558837890625,0.295989990234375,1.0564727783203125,0.589263916015625
1780626541259588600,5.415588623046875,0.280181884765625,0.995391845703125,0.471771240234375
1780626541269618700,5.42561865234375,0.2720794677734375,0.8844757080078125,0.3671875
1780626541279648800,5.435648681640625,0.2663421630859375,0.7747802734375,0.307525634765625
1780626541289678800,5.445678955078125,0.2628173828125,0.697509765625,0.3099212646484375
1780626541299709000,5.455708984375,0.300750732421875,0.7498321533203125,0.3839263916015625
1780626541309738800,5.46573876953125,0.320159912109375,0.902801513671875,0.498626708984375
1780626541319768600,5.4757685546875,0.3231353759765625,1.053009033203125,0.6025848388671875
1780626541329798700,5.485798583984375,0.33905029296875,1.1193084716796875,0.652587890625
1780626541339828700,5.495828857421875,0.340850830078125,1.0923004150390625,0.615264892578125
1780626541349858800,5.50585888671875,0.3293609619140625,0.98919677734375,0.5049896240234375
1780626541359889000,5.515888916015625,0.3536376953125,0.8477783203125,0.3855438232421875
1780626541369918700,5.525918701171875,0.3870697021484375,0.7636260986328125,0.312713623046875
1780626541379948800,5.53594873046875,0.423431396484375,0.754119873046875,0.305908203125
1780626541389978600,5.545978515625,0.4204864501953125,0.7634735107421875,0.3473663330078125
1780626541400008700,5.5560087890625,0.4080047607421875,0.7955474853515625,0.421234130859375
1780626541410038800,5.566038818359375,0.405426025390625,0.8583984375,0.498046875
1780626541420068900,5.57606884765625,0.411865234375,0.9275360107421875,0.549072265625
1780626541430098700,5.5860986328125,0.427520751953125,0.984130859375,0.572357177734375
1780626541440128800,5.596128662109375,0.442718505859375,1.017974853515625,0.5630645751953125
1780626541450158800,5.606158935546875,0.4521636962890625,1.01666259765625,0.533538818359375
1780626541460188700,5.616188720703125,0.456024169921875,0.953857421875,0.4837493896484375
1780626541470218800,5.62621875,0.452606201171875,0.87353515625,0.4272918701171875
1780626541480248600,5.63624853515625,0.4376678466796875,0.81268310546875,0.3792877197265625
1780626541490278700,5.646278564453125,0.4290313720703125,0.77099609375,0.3490753173828125
1780626541500308700,5.656308837890625,0.41400146484375,0.7501373291015625,0.3358154296875
1780626541510338800,5.6663388671875,0.3881378173828125,0.7550201416015625,0.340576171875
1780626541520369000,5.676368896484375,0.379058837890625,0.779815673828125,0.3538055419921875
1780626541530398700,5.686398681640625,0.38238525390625,0.8197479248046875,0.3732757568359375
1780626541540428500,5.696428466796875,0.3794708251953125,0.858642578125,0.39117431640625
1780626541550458600,5.706458740234375,0.3719024658203125,0.884918212890625,0.4104766845703125
1780626541560488700,5.71648876953125,0.3543548583984375,0.896881103515625,0.430145263671875
1780626541570518300,5.726518310546875,0.3324432373046875,0.886932373046875,0.4517974853515625
1780626541580548400,5.73654833984375,0.3200836181640625,0.84796142578125,0.4838409423828125
1780626541590578400,5.746578369140625,0.3145294189453125,0.7917327880859375,0.51239013671875
1780626541600608300,5.756608154296875,0.3146820068359375,0.7242279052734375,0.5355377197265625
1780626541610638000,5.76663818359375,0.3194580078125,0.65692138671875,0.553741455078125
1780626541620668200,5.776668212890625,0.3253936767578125,0.613372802734375,0.55499267578125
1780626541630698200,5.7866982421875,0.34149169921875,0.59100341796875,0.5400543212890625
1780626541640728300,5.796728271484375,0.3613739013671875,0.5973052978515625,0.4989471435546875
1780626541650758100,5.806758056640625,0.3665924072265625,0.6101226806640625,0.44378662109375
1780626541660788200,5.816788330078125,0.368011474609375,0.620452880859375,0.39013671875
1780626541670818300,5.826818359375,0.3712615966796875,0.6259765625,0.345611572265625
1780626541680848100,5.83684814453125,0.3689727783203125,0.638397216796875,0.3169403076171875
1780626541690878200,5.846878173828125,0.36773681640625,0.667510986328125,0.3090057373046875
1780626541700908300,5.856908203125,0.366058349609375,0.7206573486328125,0.3107452392578125
1780626541710938000,5.866938232421875,0.356109619140625,0.80810546875,0.329071044921875
1780626541720968200,5.87696826171875,0.34130859375,0.912078857421875,0.3528900146484375
1780626541730998300,5.886998291015625,0.3250732421875,1.0077972412109375,0.385406494140625
1780626541741028400,5.8970283203125,0.3191680908203125,1.061126708984375,0.4208221435546875
1780626541751058400,5.907058349609375,0.31658935546875,1.06231689453125,0.45245361328125
1780626541761088300,5.917088134765625,0.3187408447265625,1.004608154296875,0.4822998046875
1780626541771118000,5.9271181640625,0.327484130859375,0.91363525390625,0.4996185302734375
1780626541781148200,5.937148193359375,0.3368377685546875,0.8358917236328125,0.5246429443359375
1780626541791178200,5.94717822265625,0.33538818359375,0.7883453369140625,0.54034423828125
1780626541801208300,5.957208251953125,0.3085784912109375,0.777008056640625,0.5410003662109375
1780626541811238400,5.96723828125,0.28033447265625,0.7971343994140625,0.5265045166015625
1780626541821268200,5.977268310546875,0.2804107666015625,0.8443603515625,0.4870147705078125
1780626541831298300,5.98729833984375,0.2958831787109375,0.8971405029296875,0.437713623046875
1780626541841328000,5.997328125,0.3060302734375,0.9431304931640625,0.393768310546875
1780626541851358200,6.007358154296875,0.297149658203125,0.95758056640625,0.3887939453125
1780626541861388300,6.01738818359375,0.28326416015625,0.9772186279296875,0.403167724609375
1780626541871418000,6.027418212890625,0.2663726806640625,1.0083465576171875,0.4254150390625
1780626541881449200,6.03744921875,0.2671661376953125,1.01544189453125,0.460113525390625
1780626541891478300,6.047478271484375,0.267547607421875,1,0.4900054931640625
1780626541901509400,6.05750927734375,0.2518310546875,0.957275390625,0.5188751220703125
1780626541911539200,6.067539306640625,0.231353759765625,0.925537109375,0.522613525390625
1780626541921569300,6.0775693359375,0.212890625,0.8823699951171875,0.5193023681640625
1780626541931599000,6.08759912109375,0.2010955810546875,0.8290863037109375,0.5029449462890625
1780626541941629200,6.097629150390625,0.2001190185546875,0.7879638671875,0.4783935546875
1780626541951659300,6.1076591796875,0.207061767578125,0.789459228515625,0.4511260986328125
1780626541961689300,6.117689453125,0.2059783935546875,0.8184967041015625,0.4255828857421875
1780626541971719200,6.12771923828125,0.19024658203125,0.8477630615234375,0.4042510986328125
1780626541981749200,6.137749267578125,0.1771697998046875,0.86773681640625,0.3877716064453125
1780626541991779300,6.147779296875,0.1805419921875,0.873199462890625,0.3726959228515625
1780626542001809200,6.15780908203125,0.18585205078125,0.87939453125,0.3614654541015625
1780626542011839200,6.167839111328125,0.1641998291015625,0.865478515625,0.3498992919921875
1780626542021869000,6.177869140625,0.119598388671875,0.8568267822265625,0.340850830078125
1780626542031899100,6.187899169921875,0.070770263671875,0.875335693359375,0.3302764892578125
1780626542041929200,6.19792919921875,0.034210205078125,0.9196624755859375,0.3314056396484375
1780626542051959300,6.207959228515625,0.0183258056640625,0.9720001220703125,0.331939697265625
1780626542061989400,6.2179892578125,0.0192108154296875,1.0308685302734375,0.3319549560546875
1780626542072019500,6.22801953125,0.0237274169921875,1.0907135009765625,0.336517333984375
1780626542082049000,6.238049072265625,0.026092529296875,1.1398773193359375,0.34295654296875
1780626542092079000,6.2480791015625,0.0058441162109375,1.161224365234375,0.34918212890625
1780626542102109200,6.258109130859375,-0.0314483642578125,1.13299560546875,0.3570709228515625
1780626542112139300,6.26813916015625,-0.0541839599609375,1.05621337890625,0.3580322265625
1780626542122169300,6.27816943359375,-0.02947998046875,0.969696044921875,0.3636016845703125
1780626542132199200,6.28819921875,-0.006195068359375,0.895172119140625,0.3635711669921875
1780626542142229200,6.298229248046875,-0.069183349609375,0.8419342041015625,0.340545654296875
1780626542152259300,6.30825927734375,-0.1529998779296875,0.8516845703125,0.305419921875
1780626542162289200,6.3182890625,-0.1756134033203125,0.8820343017578125,0.2792510986328125
1780626542172319200,6.3283193359375,-0.151031494140625,0.9165802001953125,0.282867431640625
1780626542182349300,6.338349365234375,-0.1100311279296875,0.9358978271484375,0.274658203125
1780626542192379100,6.348379150390625,-0.0684356689453125,0.9875946044921875,0.2758941650390625
1780626542202409200,6.3584091796875,-0.03570556640625,1.02008056640625,0.2529296875
1780626542212439300,6.368439208984375,-0.02935791015625,1.0471343994140625,0.2210540771484375
1780626542222469400,6.378469482421875,-0.062835693359375,1.044525146484375,0.190765380859375
1780626542232499200,6.388499267578125,-0.0844879150390625,1.0263519287109375,0.1676788330078125
1780626542242529300,6.398529296875,-0.1041717529296875,0.989715576171875,0.144989013671875
1780626542252559000,6.40855908203125,-0.1106414794921875,0.93505859375,0.1233062744140625
1780626542262589200,6.418589111328125,-0.1084136962890625,0.895782470703125,0.1068267822265625
1780626542272619300,6.428619384765625,-0.08892822265625,0.8757781982421875,0.098358154296875
1780626542282649300,6.4386494140625,-0.0574798583984375,0.8829498291015625,0.085601806640625
1780626542292679400,6.448679443359375,-0.0281982421875,0.9046783447265625,0.056915283203125
1780626542302709200,6.458709228515625,-0.04364013671875,0.938720703125,0.028350830078125
1780626542312739000,6.468739013671875,-0.102081298828125,0.98065185546875,-0.0035247802734375
1780626542322769200,6.47876904296875,-0.1684112548828125,0.9999237060546875,-0.03424072265625
1780626542332799200,6.48879931640625,-0.1834259033203125,0.9682464599609375,-0.0864410400390625
1780626542342829300,6.498829345703125,-0.1793060302734375,0.911773681640625,-0.155731201171875
1780626542352859100,6.508859130859375,-0.1708831787109375,0.8565216064453125,-0.207763671875
1780626542362889200,6.51888916015625,-0.1748504638671875,0.79150390625,-0.2433013916015625
1780626542372919300,6.528919189453125,-0.197479248046875,0.7066192626953125,-0.291748046875
1780626542382949400,6.538949462890625,-0.2075347900390625,0.6383209228515625,-0.3344573974609375
1780626542392979200,6.548979248046875,-0.195037841796875,0.576202392578125,-0.3742218017578125
1780626542403009300,6.55900927734375,-0.1783599853515625,0.5340728759765625,-0.405914306640625
1780626542413039000,6.5690390625,-0.172332763671875,0.5328369140625,-0.4423370361328125
1780626542423069200,6.579069091796875,-0.1958770751953125,0.593231201171875,-0.460052490234375
1780626542433099300,6.589099365234375,-0.2300567626953125,0.7198638916015625,-0.443389892578125
1780626542443129300,6.59912939453125,-0.221221923828125,0.8666839599609375,-0.3978424072265625
1780626542453159400,6.609159423828125,-0.157073974609375,0.9865570068359375,-0.3467254638671875
1780626542463189200,6.619189208984375,-0.0876007080078125,1.06103515625,-0.3160858154296875
1780626542473219000,6.629218994140625,-0.09771728515625,1.076171875,-0.2955322265625
1780626542483249200,6.639249267578125,-0.1762237548828125,1.0013427734375,-0.2787628173828125
1780626542493279200,6.649279296875,-0.1956329345703125,0.8819122314453125,-0.2876434326171875
1780626542503309300,6.659309326171875,-0.1935882568359375,0.814971923828125,-0.3009796142578125
1780626542513339400,6.66933935546875,-0.20953369140625,0.78497314453125,-0.2958831787109375
1780626542523369200,6.679369140625,-0.18853759765625,0.7948150634765625,-0.272979736328125
1780626542533399300,6.6893994140625,-0.131805419921875,0.848297119140625,-0.265228271484375
1780626542543429000,6.69942919921875,-0.1233062744140625,0.9031219482421875,-0.2649383544921875
1780626542553459200,6.709459228515625,-0.139190673828125,0.9423828125,-0.26068115234375
1780626542563489800,6.71948974609375,-0.1549835205078125,0.9388427734375,-0.2478179931640625
1780626542573519600,6.72951953125,-0.1678619384765625,0.8907012939453125,-0.2299957275390625
1780626542583549400,6.739549560546875,-0.141021728515625,0.846282958984375,-0.2093353271484375
1780626542593579500,6.74957958984375,-0.121551513671875,0.863555908203125,-0.2103271484375
1780626542603609600,6.759609619140625,-0.12384033203125,0.9058074951171875,-0.2261962890625
1780626542613639700,6.7696396484375,-0.117706298828125,0.93475341796875,-0.2585296630859375
1780626542623669500,6.77966943359375,-0.1406707763671875,0.941436767578125,-0.298187255859375
1780626542633699600,6.789699462890625,-0.190643310546875,0.9516448974609375,-0.3261871337890625
1780626542643729700,6.799729736328125,-0.2230377197265625,0.9759368896484375,-0.336639404296875
1780626542653760800,6.8097607421875,-0.237060546875,1.00006103515625,-0.329864501953125
1780626542663789600,6.81978955078125,-0.259674072265625,1.0191497802734375,-0.30963134765625
1780626542673820400,6.8298203125,-0.3161468505859375,0.9930267333984375,-0.2615966796875
1780626542683849500,6.839849365234375,-0.3182373046875,0.9605560302734375,-0.216217041015625
1780626542693880600,6.849880615234375,-0.280792236328125,0.944732666015625,-0.2077789306640625
1780626542703910700,6.85991064453125,-0.242919921875,0.97210693359375,-0.2300262451171875
1780626542713940700,6.869940673828125,-0.2446746826171875,1.0340118408203125,-0.2585906982421875
1780626542723970600,6.879970458984375,-0.2588653564453125,1.040557861328125,-0.26904296875
1780626542734000600,6.890000732421875,-0.2421875,1.03167724609375,-0.2631683349609375
1780626542744030700,6.90003076171875,-0.25787353515625,0.9976348876953125,-0.2593994140625
1780626542754060500,6.910060546875,-0.262115478515625,0.9246368408203125,-0.2539825439453125
1780626542764090600,6.920090576171875,-0.256134033203125,0.838287353515625,-0.2384033203125
1780626542774120400,6.930120361328125,-0.255828857421875,0.7844390869140625,-0.2227020263671875
1780626542784150500,6.940150634765625,-0.2469024658203125,0.7831878662109375,-0.2253570556640625
1780626542794180600,6.9501806640625,-0.2586517333984375,0.8347930908203125,-0.2404937744140625
1780626542804210700,6.960210693359375,-0.2598114013671875,0.9106903076171875,-0.245330810546875
1780626542814240800,6.97024072265625,-0.2368621826171875,0.9640655517578125,-0.2323455810546875
1780626542824270800,6.980270751953125,-0.185546875,1.0257720947265625,-0.217926025390625
1780626542834300400,6.990300537109375,-0.132110595703125,1.093505859375,-0.2154083251953125
1780626542844330500,7.00033056640625,-0.1161651611328125,1.10125732421875,-0.2301177978515625
1780626542854360600,7.010360595703125,-0.1635589599609375,1.0589447021484375,-0.2484130859375
1780626542864390700,7.020390625,-0.23358154296875,1.0131683349609375,-0.2592315673828125
1780626542874420700,7.030420654296875,-0.3115692138671875,0.9440460205078125,-0.26611328125
1780626542884450600,7.040450439453125,-0.375152587890625,0.8575592041015625,-0.258026123046875
1780626542894480600,7.050480712890625,-0.4126129150390625,0.7823486328125,-0.2261199951171875
1780626542904510500,7.060510498046875,-0.4061126708984375,0.7523956298828125,-0.172027587890625
1780626542914540500,7.07054052734375,-0.3524627685546875,0.826141357421875,-0.113922119140625
1780626542924570600,7.080570556640625,-0.278594970703125,0.96966552734375,-0.074737548828125
1780626542934600700,7.0906005859375,-0.221771240234375,1.117767333984375,-0.084075927734375
1780626542944630500,7.100630615234375,-0.240631103515625,1.22119140625,-0.1145782470703125
1780626542954660600,7.11066064453125,-0.33441162109375,1.2229461669921875,-0.1585235595703125
1780626542964690700,7.120690673828125,-0.42132568359375,1.1092681884765625,-0.1988525390625
1780626542974720800,7.130720703125,-0.4453125,0.954254150390625,-0.2152557373046875
1780626542984750600,7.14075048828125,-0.4143829345703125,0.869293212890625,-0.2206268310546875
1780626542994780400,7.150780517578125,-0.4254150390625,0.862701416015625,-0.2202911376953125
1780626543004810500,7.160810546875,-0.4439544677734375,0.8945770263671875,-0.2085723876953125
1780626543014840600,7.170840576171875,-0.435638427734375,0.9547271728515625,-0.1741943359375
1780626543024870700,7.18087060546875,-0.3872528076171875,1.039398193359375,-0.127716064453125
1780626543034900700,7.190900634765625,-0.3336639404296875,1.0734100341796875,-0.1065826416015625
1780626543044930800,7.200930908203125,-0.2996673583984375,1.0251617431640625,-0.11004638671875
1780626543054960600,7.210960693359375,-0.2733612060546875,0.9427337646484375,-0.1259307861328125
1780626543064990500,7.220990478515625,-0.2693328857421875,0.8710174560546875,-0.1281890869140625
1780626543075020500,7.2310205078125,-0.24212646484375,0.82330322265625,-0.1366424560546875
1780626543085050600,7.241050537109375,-0.23193359375,0.7952423095703125,-0.1387481689453125
1780626543095080700,7.251080810546875,-0.219818115234375,0.7867279052734375,-0.1278533935546875
1780626543105110500,7.261110595703125,-0.167510986328125,0.8258056640625,-0.131439208984375
1780626543115140600,7.271140625,-0.136932373046875,0.8980865478515625,-0.134185791015625
1780626543125170700,7.281170654296875,-0.148040771484375,0.9507598876953125,-0.150115966796875
1780626543135200500,7.291200439453125,-0.1473846435546875,0.96746826171875,-0.1608734130859375
1780626543145230600,7.301230712890625,-0.152923583984375,0.9527130126953125,-0.1707611083984375
1780626543155260700,7.3112607421875,-0.1725311279296875,0.932098388671875,-0.1580657958984375
1780626543165290500,7.32129052734375,-0.187347412109375,0.895599365234375,-0.1339569091796875
1780626543175320600,7.331320556640625,-0.2238006591796875,0.879119873046875,-0.1080474853515625
1780626543185350700,7.3413505859375,-0.223052978515625,0.8889617919921875,-0.07940673828125
1780626543195380700,7.351380615234375,-0.23699951171875,0.9006195068359375,-0.064483642578125
1780626543205410800,7.361410888671875,-0.2520751953125,0.9216461181640625,-0.0235137939453125
1780626543215440400,7.3714404296875,-0.2467041015625,0.9535675048828125,0.017486572265625
1780626543225470500,7.381470458984375,-0.2477569580078125,0.97796630859375,0.0599517822265625
1780626543235500500,7.39150048828125,-0.290313720703125,0.96478271484375,0.1030731201171875
1780626543245530600,7.401530517578125,-0.307769775390625,0.9474029541015625,0.1214141845703125
1780626543255560700,7.411560791015625,-0.30072021484375,0.946624755859375,0.10504150390625
1780626543265590800,7.4215908203125,-0.292938232421875,0.9482574462890625,0.053375244140625
1780626543275620600,7.43162060546875,-0.290985107421875,0.93487548828125,-0.01495361328125
1780626543285650700,7.441650634765625,-0.268524169921875,0.95379638671875,-0.0447235107421875
1780626543295680500,7.451680419921875,-0.2268218994140625,0.9962005615234375,-0.0334930419921875
1780626543305710600,7.461710693359375,-0.2371673583984375,1.0023345947265625,0.014617919921875
1780626543315740700,7.47174072265625,-0.2320404052734375,0.9628753662109375,0.06060791015625
1780626543325770500,7.4817705078125,-0.2337646484375,0.9238433837890625,0.100189208984375
1780626543335800600,7.491800537109375,-0.2299652099609375,0.8953857421875,0.1278228759765625
1780626543345830700,7.50183056640625,-0.211517333984375,0.8978424072265625,0.1331329345703125
1780626543355860700,7.51186083984375,-0.2043304443359375,0.9052276611328125,0.1292877197265625
1780626543365890600,7.521890625,-0.1949615478515625,0.9335479736328125,0.1059417724609375
1780626543375920600,7.531920654296875,-0.1695098876953125,0.9727020263671875,0.0720062255859375
1780626543385950500,7.541950439453125,-0.1724700927734375,0.969757080078125,0.041015625
1780626543395980500,7.55198046875,-0.1871185302734375,0.92529296875,0.0251617431640625
1780626543406010600,7.5620107421875,-0.191131591796875,0.9067840576171875,0.00537109375
1780626543416041700,7.572041748046875,-0.1891021728515625,0.9260711669921875,-0.0116119384765625
1780626543426071600,7.582071533203125,-0.1894683837890625,0.931640625,0.0009613037109375
1780626543436101600,7.5921015625,-0.201141357421875,0.9226531982421875,0.0471649169921875
1780626543446131700,7.602131591796875,-0.200714111328125,0.919769287109375,0.1057586669921875
1780626543456161500,7.61216162109375,-0.189422607421875,0.91339111328125,0.1404266357421875
1780626543466191600,7.622191650390625,-0.17291259765625,0.9058837890625,0.147674560546875
1780626543476221400,7.632221435546875,-0.14190673828125,0.899200439453125,0.126678466796875
1780626543486251500,7.64225146484375,-0.109466552734375,0.929351806640625,0.0806121826171875
1780626543496281600,7.652281494140625,-0.1145172119140625,0.959197998046875,0.028106689453125
1780626543506311700,7.662311767578125,-0.139678955078125,0.9765625,-0.0003509521484375
1780626543516341800,7.672341796875,-0.1430206298828125,1.0013885498046875,-0.0088348388671875
1780626543526371800,7.682371826171875,-0.12701416015625,1.0057830810546875,0.0057830810546875
1780626543536401400,7.6924013671875,-0.0939178466796875,0.97723388671875,0.0374908447265625
1780626543546431500,7.702431396484375,-0.063079833984375,0.959320068359375,0.075469970703125
1780626543556461600,7.712461669921875,-0.0552215576171875,0.98077392578125,0.0865020751953125
1780626543566491000,7.722490966796875,-0.07257080078125,0.99835205078125,0.074493408203125
1780626543576521000,7.73252099609375,-0.0816192626953125,0.992950439453125,0.0707855224609375
1780626543586551000,7.742551025390625,-0.0918121337890625,1.01531982421875,0.061370849609375
1780626543596580900,7.752580810546875,-0.102142333984375,1.0259552001953125,0.0625457763671875
1780626543606611000,7.76261083984375,-0.1007843017578125,1.0321807861328125,0.0563201904296875
1780626543616641000,7.77264111328125,-0.0766448974609375,1.0391693115234375,0.0305023193359375
1780626543626671000,7.782671142578125,-0.031036376953125,1.04833984375,0.0081787109375
1780626543636701000,7.792700927734375,0.0038604736328125,1.05615234375,0.012451171875
1780626543646731000,7.80273095703125,0.030517578125,1.06329345703125,0.0210418701171875
1780626543656760800,7.8127607421875,0.0261383056640625,1.04498291015625,0.0310516357421875
1780626543666791000,7.822791015625,0.041046142578125,1.0203094482421875,0.0417938232421875
1780626543676821000,7.832821044921875,0.0545806884765625,0.994873046875,0.0332489013671875
1780626543686851000,7.84285107421875,0.082672119140625,0.9680328369140625,0.0243988037109375
1780626543696881200,7.852881103515625,0.11444091796875,0.9666748046875,0.026458740234375
1780626543706911000,7.862910888671875,0.1449127197265625,0.983428955078125,0.0258331298828125
1780626543716940800,7.87294091796875,0.1495513916015625,1.0208282470703125,0.0230712890625
1780626543726971000,7.882970947265625,0.15252685546875,1.0609893798828125,0.004547119140625
1780626543737001000,7.8930009765625,0.138580322265625,1.075286865234375,-0.01519775390625
1780626543747031000,7.903031005859375,0.1323394775390625,1.0654296875,-0.044830322265625
1780626543757061000,7.91306103515625,0.125640869140625,1.0391998291015625,-0.069580078125
1780626543767091000,7.923091064453125,0.1289520263671875,1.006988525390625,-0.08245849609375
1780626543777121000,7.93312109375,0.1517333984375,0.98052978515625,-0.0879058837890625
1780626543787151000,7.943151123046875,0.1601104736328125,0.9597320556640625,-0.082275390625
1780626543797181000,7.953180908203125,0.180938720703125,0.94378662109375,-0.07513427734375
1780626543807211000,7.9632109375,0.2270660400390625,0.9620208740234375,-0.06402587890625
1780626543817240800,7.97324072265625,0.2368011474609375,0.971893310546875,-0.054473876953125
1780626543827271000,7.98327099609375,0.198822021484375,0.9353790283203125,-0.036376953125
1780626543837301000,7.993301025390625,0.167022705078125,0.887786865234375,-0.0128326416015625
1780626543847331000,8.0033310546875,0.156951904296875,0.902069091796875,0.003387451171875
1780626543857361200,8.013361083984375,0.1767578125,0.9933319091796875,0.00396728515625
1780626543867391000,8.023390869140625,0.1332550048828125,1.09954833984375,-0.022186279296875
1780626543877420800,8.0334208984375,0.0971221923828125,1.160858154296875,-0.085296630859375
1780626543887451000,8.043450927734375,0.1433258056640625,1.2114410400390625,-0.1624603271484375
1780626543897481000,8.05348095703125,0.1627349853515625,1.199127197265625,-0.20953369140625
1780626543907511000,8.063510986328126,0.169677734375,1.06298828125,-0.226409912109375
1780626543917541000,8.073541015625,0.1806793212890625,0.88995361328125,-0.2066497802734375
1780626543927571000,8.083571044921875,0.1943359375,0.7869720458984375,-0.1706085205078125
1780626543937601000,8.09360107421875,0.188201904296875,0.7512664794921875,-0.1493377685546875
1780626543947630800,8.103630859375,0.198974609375,0.782867431640625,-0.1322479248046875
1780626543957661000,8.113660888671875,0.251953125,0.8453369140625,-0.1119537353515625
1780626543967691000,8.12369091796875,0.28033447265625,0.919769287109375,-0.0976715087890625
1780626543977721000,8.13372119140625,0.300323486328125,1.022491455078125,-0.0742950439453125
1780626543987751000,8.1437509765625,0.316162109375,1.0856170654296875,-0.0366668701171875
1780626543997781000,8.153781005859376,0.33349609375,1.0652008056640625,-0.0365142822265625
1780626544007811000,8.16381103515625,0.336090087890625,0.9873504638671875,-0.10107421875
1780626544017841200,8.173841064453125,0.309234619140625,0.8774566650390625,-0.2017974853515625
1780626544027871000,8.18387109375,0.2852783203125,0.7966461181640625,-0.2768096923828125
1780626544037900800,8.19390087890625,0.285888671875,0.7808837890625,-0.3226776123046875
1780626544047931000,8.203930908203125,0.3022308349609375,0.819000244140625,-0.3463134765625
1780626544057961000,8.2139609375,0.3056488037109375,0.848175048828125,-0.3378143310546875
1780626544067991000,8.223990966796874,0.2892608642578125,0.8281707763671875,-0.292266845703125
1780626544078021000,8.234021240234375,0.2607879638671875,0.7624359130859375,-0.251983642578125
1780626544088051200,8.24405126953125,0.2566986083984375,0.7203521728515625,-0.215240478515625
1780626544098080800,8.254080810546874,0.275787353515625,0.7350616455078125,-0.1638641357421875
1780626544108110800,8.26411083984375,0.3072357177734375,0.78472900390625,-0.15118408203125
1780626544118141000,8.274140869140625,0.277435302734375,0.857574462890625,-0.1671600341796875
1780626544128172000,8.284172119140624,0.2858428955078125,0.9108428955078125,-0.1892547607421875
1780626544138201900,8.294201904296875,0.3213043212890625,0.9434814453125,-0.24139404296875
1780626544148232000,8.30423193359375,0.3323974609375,0.96234130859375,-0.2901458740234375
1780626544158262000,8.314261962890624,0.3426513671875,0.9367218017578125,-0.3318023681640625
1780626544168292000,8.3242919921875,0.328948974609375,0.891876220703125,-0.3485260009765625
1780626544178322200,8.334322265625,0.3067169189453125,0.8573760986328125,-0.3216094970703125
1780626544188351700,8.344351806640624,0.30419921875,0.8001556396484375,-0.2816925048828125
1780626544198381800,8.3543818359375,0.319671630859375,0.7646484375,-0.2177276611328125
1780626544208412000,8.364411865234375,0.356536865234375,0.78466796875,-0.1652679443359375
1780626544218442000,8.37444189453125,0.403594970703125,0.853118896484375,-0.1473846435546875
1780626544228472000,8.38447216796875,0.4455413818359375,0.919036865234375,-0.15545654296875
1780626544238502100,8.394502197265625,0.4620361328125,0.9390716552734375,-0.191131591796875
1780626544248532000,8.404531982421876,0.4540863037109375,0.9656982421875,-0.2301025390625
1780626544258562000,8.41456201171875,0.4525146484375,0.9604034423828125,-0.25018310546875
1780626544268591900,8.424591796875,0.455810546875,0.8975372314453125,-0.2601776123046875
1780626544278622000,8.4346220703125,0.4518585205078125,0.812896728515625,-0.243316650390625
1780626544288652000,8.444652099609375,0.439453125,0.746490478515625,-0.21142578125
1780626544298681900,8.454681884765625,0.433197021484375,0.727081298828125,-0.1813507080078125
1780626544308712000,8.4647119140625,0.441162109375,0.758697509765625,-0.161407470703125
1780626544318742000,8.474741943359374,0.4583740234375,0.8181610107421875,-0.167266845703125
1780626544328772000,8.484772216796875,0.4758148193359375,0.87139892578125,-0.1976165771484375
1780626544338802200,8.49480224609375,0.4839324951171875,0.875213623046875,-0.2386016845703125
1780626544348832000,8.50483203125,0.474639892578125,0.838531494140625,-0.2744903564453125
1780626544358861800,8.51486181640625,0.476531982421875,0.8032684326171875,-0.3046417236328125
1780626544368892000,8.524891845703126,0.460296630859375,0.763916015625,-0.3230743408203125
1780626544378922000,8.534921875,0.42913818359375,0.7171783447265625,-0.3144073486328125
1780626544388952000,8.5449521484375,0.404296875,0.6676025390625,-0.29345703125
1780626544398982100,8.554982177734376,0.408721923828125,0.6512451171875,-0.2745208740234375
1780626544409012000,8.565011962890624,0.4361114501953125,0.71282958984375,-0.25360107421875
1780626544419041800,8.575041748046875,0.45208740234375,0.820098876953125,-0.230560302734375
1780626544429072000,8.58507177734375,0.4492340087890625,0.902679443359375,-0.22283935546875
1780626544439102000,8.59510205078125,0.4269561767578125,0.9259185791015625,-0.2321319580078125
1780626544449132000,8.605132080078125,0.4319610595703125,0.928466796875,-0.2516021728515625
1780626544459162000,8.615162109375,0.452667236328125,0.9137115478515625,-0.29522705078125
1780626544469192000,8.62519189453125,0.4603271484375,0.821502685546875,-0.36572265625
1780626544479222000,8.635221923828125,0.4634246826171875,0.7236480712890625,-0.407928466796875
1780626544489252000,8.645252197265625,0.453094482421875,0.668487548828125,-0.40594482421875
1780626544499282000,8.655281982421876,0.4598236083984375,0.664703369140625,-0.3764495849609375
1780626544509312000,8.66531201171875,0.482086181640625,0.7126617431640625,-0.322540283203125
1780626544519341800,8.675341796875,0.4936676025390625,0.7323455810546875,-0.265228271484375
1780626544529372000,8.685371826171876,0.512298583984375,0.6982879638671875,-0.2152099609375
1780626544539402000,8.695402099609375,0.5203857421875,0.675384521484375,-0.1964874267578125
1780626544549432000,8.70543212890625,0.520477294921875,0.684417724609375,-0.1977081298828125
1780626544559462100,8.715462158203126,0.5177459716796875,0.696533203125,-0.220367431640625
1780626544569492700,8.72549267578125,0.508758544921875,0.76171875,-0.2704925537109375
1780626544579522800,8.735522705078125,0.49114990234375,0.8759613037109375,-0.324188232421875
1780626544589552600,8.745552734375,0.4916229248046875,0.9510345458984375,-0.3450775146484375
1780626544599582700,8.755582763671875,0.5052490234375,0.9425201416015625,-0.342041015625
1780626544609612800,8.76561279296875,0.561981201171875,0.8662261962890625,-0.3116455078125
1780626544619642600,8.775642578125,0.63177490234375,0.7678070068359375,-0.2812042236328125
1780626544629672700,8.785672607421875,0.656463623046875,0.678955078125,-0.2582244873046875
1780626544639702800,8.795702880859375,0.621002197265625,0.66650390625,-0.27557373046875
1780626544649732900,8.80573291015625,0.507537841796875,0.7262725830078125,-0.3220672607421875
1780626544659762700,8.8157626953125,0.3919219970703125,0.8041534423828125,-0.352081298828125
1780626544669792800,8.825792724609375,0.34820556640625,0.8037872314453125,-0.331207275390625
1780626544679822600,8.835822509765626,0.4050445556640625,0.788970947265625,-0.2987823486328125
1780626544689852700,8.845852783203124,0.515594482421875,0.8424072265625,-0.2598114013671875
1780626544699882800,8.8558828125,0.5926971435546875,0.8750457763671875,-0.2342071533203125
1780626544709912800,8.865912841796876,0.6558074951171875,0.9226226806640625,-0.272796630859375
1780626544719943000,8.87594287109375,0.5771331787109375,0.9286651611328125,-0.350067138671875
1780626544729972700,8.88597265625,0.3767852783203125,0.8875885009765625,-0.429534912109375
1780626544740002600,8.89600244140625,0.253936767578125,0.8037109375,-0.4925994873046875
1780626544750032600,8.90603271484375,0.253173828125,0.681976318359375,-0.474365234375
1780626544760062700,8.916062744140625,0.318939208984375,0.6255950927734375,-0.3977203369140625
1780626544770092800,8.9260927734375,0.3797607421875,0.6608734130859375,-0.3093414306640625
1780626544780123000,8.936122802734374,0.4842681884765625,0.85003662109375,-0.31280517578125
1780626544790152700,8.946152587890625,0.5926513671875,1.182586669921875,-0.40203857421875
1780626544800182800,8.956182861328125,0.78240966796875,1.5330810546875,-0.592803955078125
1780626544810212900,8.966212890625,0.93865966796875,1.8572998046875,-0.811187744140625
1780626544820243700,8.97624365234375,0.906982421875,1.6708221435546875,-0.8280181884765625
1780626544830273500,8.9862734375,0.8532257080078125,1.1356201171875,-0.5363006591796875
1780626544840303600,8.9963037109375,0.7912750244140625,0.9341583251953125,-0.1603851318359375
1780626544850333700,9.006333740234375,0.654388427734375,0.9456024169921875,0.031158447265625
1780626544860363800,9.01636376953125,0.52740478515625,0.8837127685546875,0.0146636962890625
1780626544870393900,9.026393798828124,0.4057464599609375,0.72222900390625,-0.1356048583984375
1780626544880423700,9.036423583984375,0.299346923828125,0.5434417724609375,-0.2648162841796875
1780626544890453800,9.046453857421875,0.2833404541015625,0.516571044921875,-0.30230712890625
1780626544900483800,9.05648388671875,0.315521240234375,0.5915069580078125,-0.282867431640625
1780626544910513700,9.066513671875,0.3790130615234375,0.7268218994140625,-0.2482757568359375
1780626544920543700,9.076543701171875,0.4711151123046875,0.8312530517578125,-0.2202301025390625
1780626544930573800,9.08657373046875,0.519805908203125,0.807098388671875,-0.179718017578125
1780626544940603600,9.096603759765625,0.5515594482421875,0.787353515625,-0.1382904052734375
1780626544950633700,9.1066337890625,0.5465545654296875,0.900390625,-0.1190185546875
1780626544960663800,9.116663818359376,0.4714508056640625,1.071258544921875,-0.0991973876953125
1780626544970694000,9.12669384765625,0.4298248291015625,1.221160888671875,-0.0869903564453125
1780626544980723700,9.1367236328125,0.38140869140625,1.2237701416015625,-0.0772705078125
1780626544990753500,9.14675341796875,0.356597900390625,1.0799713134765625,-0.1042022705078125
1780626545000783600,9.15678369140625,0.4186248779296875,0.975250244140625,-0.189361572265625
1780626545010813700,9.166813720703125,0.4652099609375,0.967315673828125,-0.27752685546875
1780626545020843800,9.17684375,0.4330291748046875,0.9399261474609375,-0.313201904296875
1780626545030873900,9.186873779296874,0.380950927734375,0.8458709716796875,-0.3085174560546875
1780626545040903700,9.196903564453125,0.3311767578125,0.7613067626953125,-0.281951904296875
1780626545050933800,9.206933837890626,0.308868408203125,0.7309112548828125,-0.2568206787109375
1780626545060963600,9.216963623046874,0.3191986083984375,0.7501678466796875,-0.2414093017578125
1780626545070993700,9.22699365234375,0.3579864501953125,0.7746734619140625,-0.2022247314453125
1780626545081023700,9.237023681640625,0.399810791015625,0.79217529296875,-0.1523895263671875
1780626545091053800,9.2470537109375,0.4425201416015625,0.800323486328125,-0.1185302734375
1780626545101083600,9.257083740234375,0.4851226806640625,0.8125457763671875,-0.0973968505859375
1780626545111113700,9.26711376953125,0.529022216796875,0.829498291015625,-0.105194091796875
1780626545121143800,9.277143798828124,0.538177490234375,0.8429412841796875,-0.107025146484375
1780626545131174000,9.287173828125,0.52978515625,0.8308258056640625,-0.107269287109375
1780626545141203700,9.29720361328125,0.52734375,0.8241729736328125,-0.1022186279296875
1780626545151233800,9.30723388671875,0.5335540771484375,0.82843017578125,-0.0848846435546875
1780626545161263600,9.317263671875,0.5304718017578125,0.8253326416015625,-0.06683349609375
1780626545171293700,9.327293701171875,0.5191650390625,0.817779541015625,-0.0523681640625
1780626545181323800,9.33732373046875,0.5316314697265625,0.8108978271484375,-0.0446624755859375
1780626545191353900,9.347353759765625,0.5404052734375,0.82244873046875,-0.0450439453125
1780626545201384000,9.357384033203125,0.54705810546875,0.8520660400390625,-0.0584869384765625
1780626545211413500,9.36741357421875,0.5469207763671875,0.8800506591796875,-0.1049957275390625
1780626545221443600,9.377443603515625,0.5446014404296875,0.8919677734375,-0.1630401611328125
1780626545231473700,9.3874736328125,0.53289794921875,0.8873443603515625,-0.2042694091796875
1780626545241503700,9.397503662109376,0.5302734375,0.882476806640625,-0.2444305419921875
1780626545251533800,9.407533935546875,0.5330047607421875,0.8907623291015625,-0.2622222900390625
1780626545261564000,9.41756396484375,0.5460357666015625,0.9193267822265625,-0.2446441650390625
1780626545271593700,9.42759375,0.5455780029296875,0.9216156005859375,-0.2024383544921875
1780626545281623800,9.437623779296874,0.541717529296875,0.8892669677734375,-0.1749114990234375
1780626545291653600,9.447653564453125,0.543792724609375,0.847869873046875,-0.1785888671875
1780626545301683700,9.45768359375,0.54449462890625,0.8184967041015625,-0.195159912109375
1780626545311713800,9.4677138671875,0.5528717041015625,0.822235107421875,-0.2120513916015625
1780626545321743600,9.47774365234375,0.5590972900390625,0.848114013671875,-0.233734130859375
1780626545331773700,9.487773681640626,0.5611114501953125,0.8578338623046875,-0.2376251220703125
1780626545341803800,9.4978037109375,0.5702362060546875,0.832244873046875,-0.2325592041015625
1780626545351833900,9.507833740234375,0.6014404296875,0.7862396240234375,-0.2124481201171875
1780626545361864000,9.517864013671876,0.636138916015625,0.74871826171875,-0.189788818359375
1780626545371893800,9.527893798828124,0.6451568603515625,0.706451416015625,-0.1747894287109375
1780626545381923600,9.537923583984375,0.6388397216796875,0.6765594482421875,-0.1638641357421875
1780626545391953700,9.54795361328125,0.625213623046875,0.670318603515625,-0.16217041015625
1780626545401983700,9.557983642578124,0.616424560546875,0.6680755615234375,-0.171722412109375
1780626545412013800,9.568013916015625,0.6109619140625,0.662139892578125,-0.19537353515625
1780626545422044000,9.5780439453125,0.620208740234375,0.652252197265625,-0.2108917236328125
1780626545432073700,9.58807373046875,0.6507720947265625,0.63031005859375,-0.2165374755859375
1780626545442103600,9.598103515625,0.7035369873046875,0.6323699951171875,-0.21337890625
1780626545452133600,9.608133544921875,0.74029541015625,0.6934661865234375,-0.2018890380859375
1780626545462163700,9.618163818359376,0.745880126953125,0.7745361328125,-0.1928253173828125
1780626545472193800,9.62819384765625,0.7108001708984375,0.794464111328125,-0.1801605224609375
1780626545482223900,9.638223876953125,0.6729888916015625,0.762237548828125,-0.16937255859375
1780626545492253700,9.648253662109376,0.6571807861328125,0.7137908935546875,-0.16302490234375
1780626545502283800,9.65828369140625,0.65484619140625,0.7014923095703125,-0.175750732421875
1780626545512313900,9.66831396484375,0.6531829833984375,0.726104736328125,-0.1750030517578125
1780626545522343700,9.67834375,0.666778564453125,0.73162841796875,-0.165802001953125
1780626545532373800,9.688373779296874,0.6832427978515625,0.7216644287109375,-0.1704864501953125
1780626545542403600,9.698403564453125,0.694488525390625,0.716094970703125,-0.18829345703125
1780626545552433700,9.70843359375,0.68170166015625,0.7249298095703125,-0.2083892822265625
1780626545562463700,9.718463623046874,0.6551971435546875,0.716552734375,-0.229278564453125
1780626545572493000,9.7284931640625,0.6299591064453125,0.6940460205078125,-0.2303924560546875
1780626545582523000,9.73852294921875,0.616119384765625,0.6676483154296875,-0.2171630859375
1780626545592553000,9.748552978515624,0.593902587890625,0.663970947265625,-0.2128143310546875
1780626545602583000,9.7585830078125,0.5786285400390625,0.671661376953125,-0.2130279541015625
1780626545612612900,9.76861279296875,0.576995849609375,0.6686248779296875,-0.2084808349609375
1780626545622643000,9.778642822265626,0.61865234375,0.6733551025390625,-0.205291748046875
1780626545632674000,9.788674072265625,0.670684814453125,0.7058258056640625,-0.2195892333984375
1780626545642703000,9.798703125,0.7200469970703125,0.7136383056640625,-0.246978759765625
1780626545652734000,9.80873388671875,0.7539215087890625,0.696929931640625,-0.268524169921875
1780626545662764000,9.818763916015625,0.7424468994140625,0.676361083984375,-0.2778472900390625
1780626545672794000,9.828794189453125,0.68719482421875,0.6699066162109375,-0.2645721435546875
1780626545682824000,9.838823974609374,0.6622772216796875,0.6892242431640625,-0.2387237548828125
1780626545692854000,9.84885400390625,0.6387481689453125,0.6992340087890625,-0.2158355712890625
1780626545702883800,9.8588837890625,0.6420440673828125,0.688934326171875,-0.2113037109375
1780626545712914000,9.868913818359376,0.6511993408203125,0.6857147216796875,-0.206512451171875
1780626545722944000,9.878944091796875,0.66180419921875,0.677764892578125,-0.2025146484375
1780626545732974000,9.88897412109375,0.6871337890625,0.672271728515625,-0.2091827392578125
1780626545743004200,9.899004150390626,0.70721435546875,0.7280731201171875,-0.223876953125
1780626545753034000,9.909033935546875,0.71142578125,0.7652435302734375,-0.2381591796875
1780626545763063800,9.919063720703125,0.7014617919921875,0.7379302978515625,-0.2883453369140625
1780626545773094000,9.929093994140626,0.69769287109375,0.7256317138671875,-0.32952880859375
1780626545783124000,9.9391240234375,0.6753997802734375,0.757110595703125,-0.3359527587890625
1780626545793154000,9.949154052734375,0.6212005615234375,0.72003173828125,-0.303558349609375
1780626545803184000,9.95918408203125,0.586700439453125,0.7106170654296875,-0.2451629638671875
1780626545813214000,9.9692138671875,0.5484619140625,0.7406158447265625,-0.227325439453125
1780626545823244000,9.979244140625,0.5495758056640625,0.80126953125,-0.2313079833984375
1780626545833273900,9.98927392578125,0.55999755859375,0.7836456298828125,-0.236968994140625
1780626545843304000,9.999303955078124,0.5639801025390625,0.6923675537109375,-0.266448974609375
1780626545853334000,10.009333984375,0.587890625,0.6420135498046875,-0.271697998046875
1780626545863364000,10.019364013671876,0.551483154296875,0.638702392578125,-0.294097900390625
1780626545873394000,10.029393798828124,0.543365478515625,0.670989990234375,-0.30731201171875
1780626545883424000,10.039424072265625,0.5837554931640625,0.76678466796875,-0.3001556396484375
1780626545893454000,10.0494541015625,0.591766357421875,0.8614501953125,-0.285369873046875
1780626545903484200,10.059484130859374,0.60711669921875,0.883514404296875,-0.27685546875
1780626545913514000,10.069513916015625,0.64178466796875,0.81646728515625,-0.281524658203125
1780626545923543800,10.079543701171875,0.5948333740234375,0.590179443359375,-0.2925567626953125
1780626545933574000,10.089573974609374,0.580413818359375,0.490386962890625,-0.303741455078125
1780626545943604000,10.09960400390625,0.58294677734375,0.594757080078125,-0.3070068359375
1780626545953634000,10.109634033203125,0.584228515625,0.670501708984375,-0.285125732421875
1780626545963664100,10.1196640625,0.60516357421875,0.6565704345703125,-0.2712860107421875
1780626545973694200,10.129694091796875,0.6475677490234375,0.63165283203125,-0.2911834716796875
1780626545983723800,10.139723876953125,0.6798248291015625,0.63702392578125,-0.3310699462890625
1780626545993753900,10.14975390625,0.67645263671875,0.6234588623046875,-0.3247833251953125
1780626546003784000,10.159783935546875,0.664337158203125,0.5934295654296875,-0.2854766845703125
1780626546013814000,10.16981396484375,0.6737060546875,0.608551025390625,-0.2710113525390625
1780626546023844000,10.179843994140626,0.665771484375,0.678436279296875,-0.274139404296875
1780626546033874000,10.1898740234375,0.6407318115234375,0.7352447509765625,-0.258270263671875
1780626546043904000,10.199904052734375,0.62139892578125,0.7457733154296875,-0.237030029296875
1780626546053934000,10.20993408203125,0.6428985595703125,0.6944580078125,-0.26129150390625
1780626546063964000,10.2199638671875,0.68048095703125,0.696441650390625,-0.3177490234375
1780626546073994000,10.229993896484375,0.70953369140625,0.717681884765625,-0.3391876220703125
1780626546084024000,10.240024169921876,0.7101898193359375,0.7072601318359375,-0.351348876953125
1780626546094054000,10.250053955078124,0.6769866943359375,0.7447662353515625,-0.3600311279296875
1780626546104084000,10.260083984375,0.6325225830078125,0.74407958984375,-0.3573455810546875
1780626546114114000,10.270114013671876,0.6131591796875,0.7134857177734375,-0.338592529296875
1780626546124144000,10.28014404296875,0.5990753173828125,0.7326202392578125,-0.3038177490234375
1780626546134174000,10.290174072265625,0.603607177734375,0.756683349609375,-0.27978515625
1780626546144203800,10.300203857421875,0.6146392822265625,0.78265380859375,-0.27252197265625
1780626546154233900,10.31023388671875,0.5974884033203125,0.80194091796875,-0.290191650390625
1780626546164264000,10.320263916015625,0.5411376953125,0.800537109375,-0.318756103515625
1780626546174294000,10.3302939453125,0.534332275390625,0.808013916015625,-0.3427734375
1780626546184324000,10.340323974609374,0.5261688232421875,0.7983245849609375,-0.3416748046875
1780626546194354200,10.350354248046875,0.5320281982421875,0.783294677734375,-0.347320556640625
1780626546204384000,10.360384033203125,0.5617218017578125,0.7999114990234375,-0.3385009765625
1780626546214413800,10.370413818359374,0.5665740966796875,0.8350830078125,-0.3305816650390625
1780626546224444000,10.38044384765625,0.552825927734375,0.8149871826171875,-0.33428955078125
1780626546234474000,10.390473876953125,0.5470428466796875,0.7700958251953125,-0.352813720703125
1780626546244504000,10.400504150390624,0.462066650390625,0.7638702392578125,-0.3718719482421875
1780626546254534000,10.410533935546875,0.5168914794921875,0.7251739501953125,-0.4051666259765625
1780626546264564000,10.42056396484375,0.557830810546875,0.7421417236328125,-0.4204559326171875
1780626546274594000,10.430593994140626,0.571197509765625,0.7262725830078125,-0.44964599609375
1780626546284624100,10.4406240234375,0.6386871337890625,0.7227935791015625,-0.4721527099609375
1780626546294654000,10.450654052734375,0.5722808837890625,0.68035888671875,-0.45697021484375
1780626546304684000,10.46068408203125,0.5589447021484375,0.6880950927734375,-0.4660186767578125
1780626546314713900,10.4707138671875,0.5720062255859375,0.6648406982421875,-0.4559173583984375
1780626546324744000,10.480743896484375,0.592254638671875,0.602813720703125,-0.455657958984375
1780626546334774000,10.49077392578125,0.57232666015625,0.677642822265625,-0.4598388671875
1780626546344804000,10.50080419921875,0.5554962158203125,0.724639892578125,-0.43365478515625
1780626546354834200,10.510834228515625,0.545989990234375,0.667938232421875,-0.41387939453125
1780626546364864000,10.520864013671876,0.5253753662109375,0.63330078125,-0.39453125
1780626546374893800,10.530893798828124,0.5115509033203125,0.677947998046875,-0.3757781982421875
1780626546384924000,10.540923828125,0.5187225341796875,0.783111572265625,-0.3578643798828125
1780626546394954000,10.5509541015625,0.5750885009765625,0.7547454833984375,-0.32659912109375
1780626546404984000,10.560984130859374,0.5597076416015625,0.785736083984375,-0.3125762939453125
1780626546415014100,10.57101416015625,0.5175933837890625,0.7485198974609375,-0.2980194091796875
1780626546425044000,10.5810439453125,0.5229949951171875,0.73345947265625,-0.3309173583984375
1780626546435074000,10.591073974609374,0.554962158203125,0.743194580078125,-0.4070892333984375
1780626546445103900,10.601103759765625,0.5782928466796875,0.7417144775390625,-0.4571990966796875
1780626546455134000,10.611134033203125,0.5635833740234375,0.7798919677734375,-0.428009033203125
1780626546465164000,10.6211640625,0.558380126953125,0.788482666015625,-0.4002838134765625
1780626546475193900,10.63119384765625,0.547454833984375,0.7985382080078125,-0.38360595703125
1780626546485224000,10.641223876953125,0.524993896484375,0.7875518798828125,-0.350982666015625
1780626546495254000,10.65125390625,0.5095062255859375,0.7954559326171875,-0.31768798828125
1780626546505284000,10.6612841796875,0.490325927734375,0.816314697265625,-0.29705810546875
1780626546515314200,10.671314208984375,0.45819091796875,0.8544921875,-0.274261474609375
1780626546525344000,10.681343994140626,0.4178619384765625,0.8206939697265625,-0.2513275146484375
1780626546535373800,10.691373779296875,0.4167022705078125,0.718475341796875,-0.2451171875
1780626546545404000,10.70140380859375,0.42962646484375,0.6898040771484375,-0.27362060546875
1780626546555434000,10.71143408203125,0.4432373046875,0.7276458740234375,-0.318939208984375
1780626546565465000,10.721465087890625,0.456878662109375,0.7475738525390625,-0.3621673583984375
1780626546575494400,10.731494384765625,0.4931640625,0.7802276611328125,-0.411376953125
1780626546585525200,10.741525146484374,0.5118865966796875,0.8100738525390625,-0.45440673828125
1780626546595555300,10.751555419921875,0.5404510498046875,0.8004302978515625,-0.46575927734375
1780626546605585400,10.76158544921875,0.5584259033203125,0.8036346435546875,-0.4654388427734375
1780626546615615200,10.771615234375,0.542236328125,0.8031158447265625,-0.45635986328125
1780626546625645000,10.78164501953125,0.518341064453125,0.776611328125,-0.4326934814453125
1780626546635675100,10.791675048828125,0.50823974609375,0.7409820556640625,-0.4004669189453125
1780626546645705200,10.801705322265626,0.5008087158203125,0.72247314453125,-0.381072998046875
1780626546655735300,10.8117353515625,0.5043182373046875,0.7002105712890625,-0.374053955078125
1780626546665765400,10.821765380859375,0.514556884765625,0.718414306640625,-0.37945556640625
1780626546675795200,10.831795166015626,0.5088653564453125,0.7343902587890625,-0.403717041015625
1780626546685825300,10.8418251953125,0.5045318603515625,0.7438201904296875,-0.4246673583984375
1780626546695855000,10.851855224609375,0.5336151123046875,0.7165985107421875,-0.457855224609375
1780626546705885200,10.86188525390625,0.5764007568359375,0.708099365234375,-0.4852142333984375
1780626546715915300,10.871915283203125,0.5982818603515625,0.6930389404296875,-0.4765167236328125
1780626546725945300,10.8819453125,0.6159515380859375,0.70025634765625,-0.4715576171875
1780626546735975200,10.89197509765625,0.6121063232421875,0.6885986328125,-0.463592529296875
1780626546746005200,10.902005126953124,0.57354736328125,0.6705474853515625,-0.4615325927734375
1780626546756035300,10.912035400390625,0.535888671875,0.7060089111328125,-0.4817657470703125
1780626546766065200,10.922065185546876,0.5284271240234375,0.71502685546875,-0.47998046875
1780626546776095200,10.93209521484375,0.5303497314453125,0.7151641845703125,-0.4497528076171875
1780626546786125000,10.942125,0.5274505615234375,0.6980133056640625,-0.43487548828125
1780626546796155100,10.952155029296875,0.5667724609375,0.692108154296875,-0.438812255859375
1780626546806185200,10.962185302734374,0.5964202880859375,0.7347869873046875,-0.4442291259765625
1780626546816215300,10.97221533203125,0.584228515625,0.700897216796875,-0.4506378173828125
1780626546826245400,10.982245361328125,0.5738525390625,0.678680419921875,-0.4433746337890625
1780626546836275500,10.992275390625,0.581390380859375,0.68408203125,-0.4189605712890625
1780626546846305000,11.002304931640625,0.5547637939453125,0.7254791259765625,-0.40576171875
1780626546856335000,11.012335205078125,0.514495849609375,0.7344970703125,-0.4025115966796875
1780626546866365200,11.022365234375,0.507293701171875,0.7635345458984375,-0.405731201171875
1780626546876395300,11.032395263671875,0.4764556884765625,0.7984161376953125,-0.4124755859375
1780626546886425300,11.04242529296875,0.4875335693359375,0.702392578125,-0.397705078125
1780626546896455200,11.052455078125,0.5223846435546875,0.70989990234375,-0.4014434814453125
1780626546906485200,11.0624853515625,0.51776123046875,0.7777862548828125,-0.4144439697265625
1780626546916515300,11.072515380859375,0.5174407958984375,0.7661590576171875,-0.418182373046875
1780626546926545200,11.082545166015626,0.5416259765625,0.70489501953125,-0.4177398681640625
1780626546936575200,11.0925751953125,0.5235748291015625,0.76849365234375,-0.428070068359375
1780626546946605300,11.102605224609375,0.47576904296875,0.7472381591796875,-0.4055328369140625
1780626546956635100,11.11263525390625,0.4945526123046875,0.6824798583984375,-0.365875244140625
1780626546966665200,11.122665283203125,0.508026123046875,0.6884765625,-0.3466339111328125
1780626546976695300,11.1326953125,0.4830322265625,0.77911376953125,-0.358917236328125
1780626546986725400,11.142725341796876,0.4541778564453125,0.8308868408203125,-0.3699798583984375
1780626546996755200,11.152755126953124,0.488006591796875,0.7442626953125,-0.360992431640625
1780626547006785300,11.162785400390625,0.5151519775390625,0.7197723388671875,-0.381134033203125
1780626547016815000,11.172815185546876,0.519775390625,0.76190185546875,-0.40093994140625
1780626547026845200,11.18284521484375,0.5218048095703125,0.77166748046875,-0.417694091796875
1780626547036875300,11.192875244140625,0.53204345703125,0.7916717529296875,-0.4370574951171875
1780626547046905300,11.2029052734375,0.51171875,0.7867279052734375,-0.4493255615234375
1780626547056935400,11.212935302734374,0.494659423828125,0.7635498046875,-0.45050048828125
1780626547066965200,11.22296533203125,0.491485595703125,0.7060394287109375,-0.435577392578125
1780626547076995000,11.2329951171875,0.513214111328125,0.7267608642578125,-0.4272918701171875
1780626547087025200,11.243025146484374,0.4979705810546875,0.74420166015625,-0.417633056640625
1780626547097055200,11.25305517578125,0.4998626708984375,0.7609405517578125,-0.4166717529296875
1780626547107085300,11.263085205078125,0.5088348388671875,0.800628662109375,-0.4132537841796875
1780626547117115100,11.273115234375,0.4546966552734375,0.7688140869140625,-0.4142913818359375
1780626547127145200,11.283145263671875,0.49908447265625,0.778106689453125,-0.4312591552734375
1780626547137175300,11.29317529296875,0.4932708740234375,0.7567901611328125,-0.4324798583984375
1780626547147205400,11.303205322265624,0.4957275390625,0.699005126953125,-0.423065185546875
1780626547157235200,11.313235107421875,0.4925689697265625,0.716217041015625,-0.4139556884765625
1780626547167265300,11.323265380859375,0.458404541015625,0.7525482177734375,-0.4238739013671875
1780626547177295000,11.333295166015626,0.453857421875,0.7408599853515625,-0.4355316162109375
1780626547187325200,11.3433251953125,0.48114013671875,0.7302093505859375,-0.4345245361328125
1780626547197355300,11.353355224609375,0.4922332763671875,0.7180023193359375,-0.4221649169921875
1780626547207385300,11.36338525390625,0.5068511962890625,0.73345947265625,-0.4047393798828125
1780626547217415400,11.37341552734375,0.5151824951171875,0.755462646484375,-0.4038848876953125
1780626547227445200,11.3834453125,0.5316619873046875,0.6883087158203125,-0.4013671875
1780626547237475000,11.39347509765625,0.4889068603515625,0.6703033447265625,-0.382415771484375
1780626547247505200,11.403505126953124,0.4479827880859375,0.704620361328125,-0.3612213134765625
1780626547257535200,11.41353515625,0.4419708251953125,0.6971588134765625,-0.3414306640625
1780626547267565300,11.4235654296875,0.4430084228515625,0.6787261962890625,-0.3406524658203125
1780626547277595400,11.433595458984374,0.4215850830078125,0.80810546875,-0.380279541015625
1780626547287625200,11.443625244140625,0.3924407958984375,1.0853424072265625,-0.4424896240234375
1780626547297655300,11.4536552734375,0.420928955078125,0.8866729736328125,-0.447509765625
1780626547307685000,11.46368505859375,0.5680694580078125,0.66986083984375,-0.4560699462890625
1780626547317715200,11.473715087890625,0.5992889404296875,0.687103271484375,-0.4970550537109375
1780626547327745300,11.483745361328126,0.5275115966796875,0.7388458251953125,-0.5283355712890625
1780626547337775000,11.493775146484374,0.5110626220703125,0.7185821533203125,-0.5125732421875
1780626547347805200,11.50380517578125,0.540130615234375,0.6487884521484375,-0.4595947265625
1780626547357835300,11.513835205078125,0.5542449951171875,0.593902587890625,-0.4087982177734375
1780626547367865300,11.523865234375,0.539825439453125,0.5650787353515625,-0.3732147216796875
1780626547377895400,11.5338955078125,0.5088958740234375,0.548065185546875,-0.349029541015625
1780626547387925200,11.54392529296875,0.4856109619140625,0.593902587890625,-0.34893798828125
1780626547397955000,11.553955078125,0.460968017578125,0.710723876953125,-0.383575439453125
1780626547407985200,11.563985107421875,0.457672119140625,0.8297119140625,-0.4138946533203125
1780626547418015200,11.57401513671875,0.483612060546875,0.8060760498046875,-0.4363250732421875
1780626547428045300,11.58404541015625,0.527801513671875,0.7614898681640625,-0.459686279296875
1780626547438075400,11.594075439453125,0.5555419921875,0.743316650390625,-0.467620849609375
1780626547448105200,11.604105224609375,0.55316162109375,0.721466064453125,-0.47015380859375
1780626547458135000,11.614135009765626,0.5347137451171875,0.7046966552734375,-0.4509735107421875
1780626547468165000,11.6241650390625,0.510528564453125,0.7118988037109375,-0.4311370849609375
1780626547478195200,11.6341953125,0.483642578125,0.7517852783203125,-0.435943603515625
1780626547488225300,11.644225341796876,0.489990234375,0.8048553466796875,-0.4823760986328125
1780626547498255400,11.65425537109375,0.529449462890625,0.866790771484375,-0.5333709716796875
1780626547508285200,11.66428515625,0.5670623779296875,0.813232421875,-0.54962158203125
1780626547518315300,11.674315185546876,0.5845184326171875,0.6916656494140625,-0.5407257080078125
1780626547528345300,11.684345458984374,0.5797119140625,0.60198974609375,-0.477203369140625
1780626547538375200,11.694375244140625,0.5700836181640625,0.5290985107421875,-0.4468536376953125
1780626547548405200,11.7044052734375,0.564300537109375,0.504486083984375,-0.4677581787109375
1780626547558435300,11.714435302734374,0.553680419921875,0.53924560546875,-0.4691162109375
1780626547568465200,11.724465087890625,0.52557373046875,0.582244873046875,-0.456207275390625
1780626547578495200,11.7344951171875,0.5025787353515625,0.6186676025390625,-0.4744720458984375
1780626547588525300,11.744525390625,0.5128173828125,0.728240966796875,-0.51373291015625
1780626547598555400,11.754555419921875,0.564300537109375,0.8416900634765625,-0.524627685546875
1780626547608585200,11.764585205078125,0.6043548583984375,0.8772125244140625,-0.5469512939453125
1780626547618615000,11.774614990234374,0.613861083984375,0.870086669921875,-0.5637054443359375
1780626547628645000,11.78464501953125,0.5949859619140625,0.7921142578125,-0.56317138671875
1780626547638675200,11.79467529296875,0.535552978515625,0.668060302734375,-0.5158233642578125
1780626547648705300,11.804705322265624,0.480255126953125,0.572021484375,-0.4865875244140625
1780626547658735400,11.8147353515625,0.455963134765625,0.556182861328125,-0.4794921875
1780626547668765200,11.82476513671875,0.4498748779296875,0.58331298828125,-0.4906005859375
1780626547678795300,11.834795166015626,0.455780029296875,0.6480712890625,-0.52557373046875
1780626547688825000,11.8448251953125,0.48260498046875,0.7233428955078125,-0.5409393310546875
1780626547698855200,11.854855224609375,0.5186309814453125,0.7536163330078125,-0.5467987060546875
1780626547708885200,11.86488525390625,0.52886962890625,0.7303466796875,-0.5641326904296875
1780626547718915300,11.874915283203125,0.5228424072265625,0.6790771484375,-0.567626953125
1780626547728946200,11.8849462890625,0.495391845703125,0.627227783203125,-0.54296875
1780626547738976300,11.894976318359374,0.473785400390625,0.5910797119140625,-0.53057861328125
1780626547749006300,11.90500634765625,0.4530792236328125,0.5655364990234375,-0.51702880859375
1780626547759036400,11.915036376953125,0.4247894287109375,0.5959625244140625,-0.507568359375
1780626547769066200,11.925066162109376,0.4164276123046875,0.6505126953125,-0.52001953125
1780626547779096000,11.935095947265625,0.4331512451171875,0.709442138671875,-0.5248260498046875
1780626547789126100,11.945126220703125,0.445770263671875,0.7537689208984375,-0.540496826171875
1780626547799156200,11.95515625,0.473785400390625,0.78204345703125,-0.539947509765625
1780626547809186300,11.965186279296875,0.50421142578125,0.7732086181640625,-0.5010986328125
1780626547819216100,11.975216064453125,0.5095977783203125,0.70465087890625,-0.4700775146484375
1780626547829246200,11.98524609375,0.505523681640625,0.6572113037109375,-0.463836669921875
1780626547839276300,11.9952763671875,0.4822540283203125,0.6343841552734375,-0.4243316650390625
1780626547849306400,12.005306396484375,0.452056884765625,0.585052490234375,-0.4264373779296875
1780626547859336200,12.015336181640626,0.44989013671875,0.563507080078125,-0.430908203125
1780626547869366300,12.0253662109375,0.454742431640625,0.5675811767578125,-0.4337158203125
1780626547879396000,12.03539599609375,0.46356201171875,0.598114013671875,-0.4397735595703125
1780626547889426200,12.04542626953125,0.5009307861328125,0.62066650390625,-0.4484405517578125
1780626547899456300,12.055456298828124,0.5547943115234375,0.6277923583984375,-0.46875
1780626547909486300,12.065486328125,0.59619140625,0.61505126953125,-0.4939117431640625
1780626547919516400,12.075516357421876,0.620208740234375,0.570648193359375,-0.5223388671875
1780626547929546200,12.085546142578124,0.6259918212890625,0.524749755859375,-0.5334930419921875
1780626547939576000,12.095576171875,0.6019744873046875,0.4552764892578125,-0.563995361328125
1780626547949606100,12.105606201171875,0.57470703125,0.4151611328125,-0.579193115234375
1780626547959636200,12.11563623046875,0.53729248046875,0.39892578125,-0.5783538818359375
1780626547969666300,12.125666259765625,0.522705078125,0.3861236572265625,-0.591033935546875
1780626547979696400,12.1356962890625,0.5550689697265625,0.4084930419921875,-0.613677978515625
1780626547989726200,12.145726318359374,0.601470947265625,0.4609222412109375,-0.6401214599609375
1780626547999756300,12.15575634765625,0.621734619140625,0.5266876220703125,-0.6677398681640625
1780626548009786000,12.1657861328125,0.604278564453125,0.6028900146484375,-0.6929168701171875
1780626548019816200,12.175816162109374,0.593597412109375,0.671173095703125,-0.7156524658203125
1780626548029846300,12.18584619140625,0.6044769287109375,0.70159912109375,-0.7677001953125
1780626548039876000,12.1958759765625,0.602569580078125,0.6971282958984375,-0.8097381591796875
1780626548049906200,12.20590625,0.6021728515625,0.68096923828125,-0.8342132568359375
1780626548059936300,12.215936279296875,0.6042938232421875,0.6500701904296875,-0.8462677001953125
1780626548069966300,12.22596630859375,0.599639892578125,0.6096954345703125,-0.8390655517578125
1780626548079996400,12.235996337890626,0.610809326171875,0.54595947265625,-0.81500244140625
1780626548090026200,12.246026123046875,0.6018829345703125,0.4659423828125,-0.746063232421875
1780626548100056000,12.25605615234375,0.603790283203125,0.4373626708984375,-0.6727752685546875
1780626548110086100,12.266086181640626,0.603546142578125,0.4311981201171875,-0.6471099853515625
1780626548120116200,12.2761162109375,0.5630645751953125,0.418670654296875,-0.6534423828125
1780626548130146300,12.286146240234375,0.5590667724609375,0.4027099609375,-0.679046630859375
1780626548140176400,12.29617626953125,0.57470703125,0.4033050537109375,-0.698974609375
1780626548150206200,12.306206298828124,0.5711517333984375,0.3973541259765625,-0.7143707275390625
1780626548160236000,12.316236083984375,0.5772705078125,0.3767547607421875,-0.7224273681640625
1780626548170266000,12.32626611328125,0.5877685546875,0.3613128662109375,-0.7231903076171875
1780626548180296200,12.336296142578124,0.5806427001953125,0.356231689453125,-0.7237091064453125
1780626548190326300,12.346326171875,0.5856475830078125,0.3768310546875,-0.734344482421875
1780626548200356400,12.3563564453125,0.575775146484375,0.4088287353515625,-0.75128173828125
1780626548210386200,12.36638623046875,0.563201904296875,0.4253082275390625,-0.77154541015625
1780626548220416300,12.376416259765625,0.5591278076171875,0.436065673828125,-0.781890869140625
1780626548230446300,12.3864462890625,0.5553741455078125,0.4507598876953125,-0.7840728759765625
1780626548240476200,12.39647607421875,0.5435333251953125,0.4608306884765625,-0.7753143310546875
1780626548250506200,12.40650634765625,0.525177001953125,0.46270751953125,-0.7740325927734375
1780626548260536300,12.416536376953125,0.5110015869140625,0.4686279296875,-0.764801025390625
1780626548270566100,12.426566162109374,0.5183563232421875,0.4772491455078125,-0.7610931396484375
1780626548280596200,12.43659619140625,0.501708984375,0.4979248046875,-0.7405853271484375
1780626548290626300,12.446626220703125,0.493896484375,0.5112457275390625,-0.73101806640625
1780626548300656400,12.456656494140624,0.4745635986328125,0.5038909912109375,-0.727020263671875
1780626548310686500,12.4666865234375,0.42449951171875,0.4732666015625,-0.75823974609375
1780626548320716000,12.476716064453125,0.402923583984375,0.49847412109375,-0.7871551513671875
1780626548330746000,12.48674609375,0.4140167236328125,0.480499267578125,-0.80029296875
1780626548340776200,12.496776123046875,0.402618408203125,0.4620208740234375,-0.8110198974609375
1780626548350806300,12.50680615234375,0.3995819091796875,0.434539794921875,-0.8332366943359375
1780626548360836400,12.51683642578125,0.4132843017578125,0.397308349609375,-0.842742919921875
1780626548370866200,12.5268662109375,0.4444580078125,0.374603271484375,-0.8356475830078125
1780626548380896300,12.536896240234375,0.47772216796875,0.37396240234375,-0.816986083984375
1780626548390926000,12.546926025390626,0.4827880859375,0.401763916015625,-0.77496337890625
1780626548400956200,12.5569560546875,0.4373931884765625,0.4472198486328125,-0.728271484375
1780626548410986200,12.566986328125,0.3898773193359375,0.49591064453125,-0.7147674560546875
1780626548421016300,12.577016357421876,0.3831939697265625,0.535552978515625,-0.7149810791015625
1780626548431046100,12.587046142578124,0.3916015625,0.5425567626953125,-0.7203369140625
1780626548441076200,12.597076171875,0.4248199462890625,0.529296875,-0.7279815673828125
1780626548451106300,12.607106201171876,0.4428558349609375,0.505889892578125,-0.73248291015625
1780626548461136400,12.617136474609374,0.4596099853515625,0.4796295166015625,-0.748382568359375
1780626548471166200,12.627166259765625,0.4614715576171875,0.4837493896484375,-0.7715301513671875
1780626548481196300,12.6371962890625,0.4516754150390625,0.5345458984375,-0.7977752685546875
1780626548491226000,12.64722607421875,0.4307708740234375,0.6266326904296875,-0.8083648681640625
1780626548501256200,12.657256103515625,0.3770294189453125,0.714630126953125,-0.79852294921875
1780626548511286300,12.667286376953125,0.3230743408203125,0.7587890625,-0.7635498046875
1780626548521316400,12.67731640625,0.2797393798828125,0.7489471435546875,-0.720550537109375
1780626548531346400,12.687346435546875,0.261566162109375,0.7003326416015625,-0.6836395263671875
1780626548541376300,12.697376220703125,0.29071044921875,0.6511688232421875,-0.67059326171875
1780626548551406000,12.707406005859376,0.3280487060546875,0.6176300048828125,-0.6890106201171875
1780626548561436200,12.717436279296875,0.375640869140625,0.5964813232421875,-0.70867919921875
1780626548571466200,12.72746630859375,0.4053802490234375,0.578369140625,-0.7089996337890625
1780626548581496300,12.737496337890626,0.3974609375,0.5533294677734375,-0.7039794921875
1780626548591526100,12.747526123046875,0.3779296875,0.53515625,-0.6937103271484375
1780626548601556200,12.75755615234375,0.361785888671875,0.5402374267578125,-0.6717529296875
1780626548611586300,12.76758642578125,0.35980224609375,0.55902099609375,-0.644866943359375
1780626548621616000,12.7776162109375,0.4036865234375,0.5778656005859375,-0.62847900390625
1780626548631646200,12.787646240234375,0.4619598388671875,0.588958740234375,-0.627197265625
1780626548641676300,12.79767626953125,0.489837646484375,0.5805206298828125,-0.64239501953125
1780626548651706000,12.8077060546875,0.5093841552734375,0.559539794921875,-0.659698486328125
1780626548661736200,12.817736083984375,0.5173492431640625,0.5374755859375,-0.669464111328125
1780626548671766300,12.827766357421876,0.5088958740234375,0.5106048583984375,-0.6766204833984375
1780626548681796400,12.83779638671875,0.4975128173828125,0.4698638916015625,-0.6836090087890625
1780626548691826400,12.847826416015625,0.4965667724609375,0.4267730712890625,-0.6918182373046875
1780626548701856300,12.857856201171876,0.502655029296875,0.4020233154296875,-0.6951751708984375
1780626548711886000,12.867885986328124,0.5118255615234375,0.40667724609375,-0.682769775390625
1780626548721916200,12.877916259765625,0.52960205078125,0.4249267578125,-0.6658782958984375
1780626548731946200,12.8879462890625,0.553253173828125,0.4467010498046875,-0.6563262939453125
1780626548741976300,12.897976318359374,0.572479248046875,0.4653778076171875,-0.6544952392578125
1780626548752006400,12.90800634765625,0.5966796875,0.48663330078125,-0.6515655517578125
1780626548762036200,12.9180361328125,0.60162353515625,0.5173492431640625,-0.6439666748046875
1780626548772066300,12.92806640625,0.592498779296875,0.5534515380859375,-0.6388397216796875
1780626548782096100,12.93809619140625,0.588287353515625,0.5893402099609375,-0.6411895751953125
1780626548792126200,12.948126220703125,0.57464599609375,0.6249542236328125,-0.6453399658203125
1780626548802156300,12.95815625,0.538848876953125,0.64691162109375,-0.638824462890625
1780626548812186400,12.968186279296875,0.5063018798828125,0.6430206298828125,-0.627593994140625
1780626548822216200,12.97821630859375,0.47845458984375,0.6246185302734375,-0.617218017578125
1780626548832246300,12.988246337890626,0.4674072265625,0.5914306640625,-0.61236572265625
1780626548842276400,12.9982763671875,0.4831085205078125,0.5482330322265625,-0.619598388671875
1780626548852306200,13.00830615234375,0.5125579833984375,0.506378173828125,-0.6381072998046875
1780626548862336300,13.018336181640626,0.5272216796875,0.4774017333984375,-0.6585235595703125
1780626548872366000,13.028365966796875,0.5304107666015625,0.4635772705078125,-0.6721954345703125
1780626548882396200,13.038396240234375,0.528228759765625,0.4677734375,-0.6786041259765625
1780626548892426200,13.04842626953125,0.5095977783203125,0.478057861328125,-0.6806793212890625
1780626548902456300,13.058456298828125,0.4831390380859375,0.482330322265625,-0.6793670654296875
1780626548912486400,13.068486328125,0.48236083984375,0.4839019775390625,-0.685791015625
1780626548922516200,13.07851611328125,0.508056640625,0.4918670654296875,-0.6833648681640625
1780626548932546000,13.088546142578124,0.5301055908203125,0.50042724609375,-0.6754608154296875
1780626548942576000,13.098576171875,0.533355712890625,0.5025482177734375,-0.6548614501953125
